aX,aY,aZ,gX,gY,gZ
0.483,-0.911,1.145,-1.831,-49.255,-61.096
0.454,-0.989,1.103,-10.498,-48.462,-70.679
0.442,-1.061,1.062,-21.362,-43.823,-81.543
0.464,-1.130,1.018,-33.081,-36.438,-94.116
0.497,-1.189,0.974,-45.044,-26.917,-108.032
0.546,-1.239,0.915,-56.335,-16.235,-122.925
0.618,-1.290,0.852,-65.979,-5.676,-138.000
0.685,-1.337,0.786,-75.928,4.028,-153.809
0.765,-1.363,0.725,-87.036,14.709,-168.884
0.855,-1.383,0.656,-98.999,25.269,-182.312
0.931,-1.407,0.564,-113.281,35.034,-193.542
1.013,-1.422,0.467,-129.883,44.556,-201.538
1.089,-1.406,0.364,-147.949,54.138,-207.153
1.139,-1.358,0.271,-164.856,62.012,-211.609
1.186,-1.303,0.197,-179.321,68.787,-214.294
1.226,-1.238,0.119,-191.040,73.669,-215.759
1.250,-1.171,0.036,-199.951,77.332,-216.919
1.229,-1.109,-0.042,-206.848,81.238,-217.896
1.234,-1.045,-0.123,-213.989,85.754,-219.543
1.271,-0.976,-0.201,-220.520,91.064,-222.656
1.272,-0.888,-0.273,-226.135,95.764,-226.440
1.326,-0.790,-0.335,-229.858,97.107,-231.018
1.411,-0.660,-0.380,-231.934,92.651,-235.352
1.439,-0.545,-0.413,-231.995,83.862,-238.098
1.416,-0.443,-0.454,-231.506,75.928,-239.136
1.382,-0.358,-0.516,-229.370,69.336,-240.112
1.391,-0.309,-0.560,-226.135,66.162,-241.394
1.407,-0.265,-0.606,-224.304,68.848,-243.408
1.396,-0.206,-0.660,-223.755,76.111,-247.742
1.447,-0.152,-0.700,-224.548,87.585,-251.953
1.527,-0.062,-0.735,-227.783,100.769,-252.808
1.586,0.037,-0.770,-230.774,110.535,-250.305
1.607,0.139,-0.795,-232.788,115.906,-244.751
1.597,0.249,-0.807,-232.971,119.080,-236.328
1.605,0.357,-0.800,-229.553,119.385,-225.220
1.609,0.422,-0.783,-222.412,116.028,-212.158
1.535,0.462,-0.760,-213.379,108.276,-197.754
1.453,0.492,-0.708,-204.529,99.121,-183.105
1.437,0.524,-0.648,-195.679,90.271,-169.983
1.470,0.607,-0.613,-187.988,80.627,-161.255
1.475,0.695,-0.566,-179.443,70.374,-152.466
1.456,0.778,-0.483,-168.823,58.105,-141.907
1.504,0.851,-0.388,-156.250,43.945,-128.540
1.519,0.911,-0.306,-142.944,26.184,-112.366
1.450,0.981,-0.204,-129.578,7.324,-98.206
1.401,1.019,-0.112,-116.211,-8.850,-85.876
1.314,1.064,-0.094,-102.295,-22.583,-78.247
1.217,1.098,-0.047,-88.257,-26.794,-70.740
1.199,1.041,-0.016,-74.768,-24.292,-61.768
1.157,1.023,-0.004,-64.636,-18.188,-56.580
1.125,1.015,0.015,-57.129,-7.141,-50.354
1.104,0.998,0.010,-51.270,5.249,-42.297
1.126,0.940,0.028,-46.692,18.372,-32.959
1.191,0.906,0.055,-44.983,29.541,-25.635
1.225,0.892,0.075,-44.678,37.537,-19.226
1.251,0.869,0.088,-44.250,42.908,-11.597
1.298,0.857,0.095,-43.091,44.983,-3.784
1.353,0.854,0.113,-40.894,44.556,4.761
1.380,0.839,0.119,-36.682,40.222,15.259
1.365,0.833,0.113,-30.762,33.081,25.940
1.325,0.766,0.097,-21.973,26.428,37.415
1.337,0.755,0.092,-12.207,21.057,46.570
1.195,0.725,0.021,-0.793,17.029,57.068
1.260,0.656,0.112,12.878,21.118,65.369
1.334,0.625,0.078,25.940,19.470,71.289
1.221,0.537,0.044,40.405,13.184,76.050
1.233,0.535,0.058,53.955,10.864,77.515
1.234,0.489,0.019,70.801,5.859,83.862
1.239,0.432,0.021,86.548,2.197,89.355
1.264,0.375,0.030,100.159,-3.296,96.680
1.236,0.296,0.021,111.816,-11.902,105.225
1.246,0.194,0.046,118.103,-20.447,114.807
1.179,0.097,0.039,119.385,-28.442,125.305
1.137,0.107,0.039,117.554,-33.386,130.737
1.110,0.101,0.040,116.150,-34.607,135.681
1.083,0.096,0.043,115.417,-33.142,138.672
1.063,0.113,0.040,115.234,-29.419,139.465
1.055,0.130,0.034,116.150,-24.475,139.404
1.054,0.151,0.039,118.530,-17.700,139.526
1.115,0.164,0.069,122.070,-12.634,141.296
1.121,0.130,0.051,125.549,-13.000,144.714
1.123,0.151,0.073,128.235,-13.489,147.644
1.148,0.167,0.084,131.470,-15.869,152.527
1.216,0.123,0.125,135.559,-21.912,158.752
1.253,0.120,0.140,139.893,-33.203,162.781
1.242,0.094,0.129,143.555,-48.096,164.734
1.217,0.100,0.132,145.935,-61.646,165.894
1.171,0.079,0.132,149.048,-73.608,169.495
1.113,0.072,0.137,150.818,-81.970,173.462
1.042,0.073,0.134,152.100,-84.717,177.063
1.006,0.046,0.167,154.175,-80.078,180.420
0.976,0.063,0.199,154.968,-72.815,178.894
0.966,0.051,0.225,155.334,-64.697,178.650
0.961,0.009,0.230,155.518,-56.335,177.734
0.904,-0.019,0.212,155.029,-47.913,174.927
0.859,-0.027,0.223,154.602,-36.316,170.532
0.851,-0.051,0.246,154.358,-23.376,165.405
0.842,-0.057,0.276,152.710,-12.146,159.424
0.846,-0.064,0.307,149.292,-4.517,155.701
0.896,-0.069,0.352,146.057,-1.038,152.771
0.938,-0.068,0.385,143.005,-4.333,150.696
0.929,-0.075,0.407,140.625,-14.954,149.475
0.901,-0.074,0.414,138.733,-29.053,148.804
0.856,-0.070,0.419,137.939,-42.358,148.132
0.799,-0.081,0.439,137.756,-53.162,147.156
0.742,-0.056,0.434,137.512,-61.096,146.057
0.711,-0.084,0.451,136.841,-63.354,147.583
0.689,-0.094,0.469,135.498,-61.584,148.071
0.655,-0.105,0.466,133.423,-58.472,146.790
0.634,-0.107,0.477,131.226,-51.392,144.287
0.624,-0.140,0.489,128.967,-41.626,141.479
0.635,-0.152,0.525,125.366,-31.433,136.597
0.668,-0.152,0.560,119.934,-23.865,131.775
0.681,-0.157,0.590,114.868,-20.569,126.160
0.693,-0.147,0.609,110.779,-20.325,119.446
0.693,-0.144,0.620,107.483,-21.729,114.014
0.674,-0.147,0.629,105.713,-23.499,108.948
0.646,-0.149,0.631,104.309,-24.963,104.370
0.615,-0.155,0.619,103.455,-24.109,100.647

1.326,-0.952,-0.353,-279.297,14.160,-228.821
1.354,-0.879,-0.434,-290.649,8.240,-235.840
1.372,-0.781,-0.518,-299.744,1.282,-240.601
1.373,-0.691,-0.602,-306.946,-3.540,-241.638
1.369,-0.597,-0.674,-313.599,-4.211,-241.699
1.393,-0.456,-0.749,-321.167,-0.916,-241.211
1.398,-0.299,-0.846,-326.538,3.113,-238.403
1.401,-0.124,-0.911,-327.026,10.925,-235.535
1.416,0.063,-0.912,-322.021,21.057,-231.567
1.449,0.243,-0.887,-310.730,27.527,-225.403
1.470,0.417,-0.874,-294.189,26.733,-216.736
1.475,0.573,-0.854,-273.376,19.775,-205.872
1.470,0.689,-0.813,-247.864,9.949,-193.237
1.492,0.781,-0.773,-219.177,-1.404,-181.458
1.540,0.872,-0.732,-188.293,-12.451,-172.485
1.575,0.964,-0.671,-155.640,-20.325,-164.734
1.564,1.039,-0.596,-124.695,-24.231,-154.846
1.537,1.096,-0.488,-96.497,-23.010,-141.968
1.509,1.151,-0.364,-70.190,-18.677,-127.258
1.480,1.161,-0.301,-47.119,-12.878,-110.779
1.421,1.134,-0.251,-27.954,-2.441,-95.642
1.421,1.123,-0.150,-13.367,14.343,-81.665
1.511,1.115,-0.025,-1.526,26.672,-68.909
1.488,1.084,0.025,9.827,25.208,-58.289
1.500,1.012,0.098,20.203,17.517,-47.974
1.471,0.943,0.118,28.076,6.653,-39.001
1.405,0.871,0.174,33.630,-0.610,-28.870
1.368,0.811,0.207,37.537,-5.188,-17.944
1.366,0.721,0.233,40.710,-9.155,-7.202
1.304,0.672,0.244,41.565,-11.108,-0.061
1.211,0.681,0.244,40.710,-10.986,6.775
1.228,0.526,0.280,41.138,-10.559,16.663
1.105,0.521,0.231,41.687,-8.667,18.555
1.051,0.518,0.288,42.603,-1.404,21.179
1.084,0.444,0.305,46.265,3.235,25.635
1.099,0.469,0.306,48.889,2.258,26.367
1.045,0.418,0.232,53.711,-0.610,29.907
1.021,0.462,0.225,58.044,0.732,30.151
0.908,0.376,0.093,65.125,4.578,33.569
1.180,0.489,0.373,74.341,14.954,34.790
1.049,0.339,0.157,83.740,1.831,40.771
1.083,0.299,0.250,92.712,0.793,38.086
1.050,0.345,0.161,101.196,-1.892,39.734
1.131,0.275,0.157,113.403,-4.211,46.997
1.095,0.233,0.092,124.756,-8.911,52.917
1.139,0.086,0.134,133.057,-10.315,63.354
1.068,0.071,0.099,133.484,-12.756,69.885
1.109,0.062,0.181,130.737,-8.728,77.393
1.101,0.062,0.147,126.709,-8.240,83.008
1.075,0.040,0.142,123.047,-7.141,87.402
1.068,0.050,0.124,118.713,-4.883,90.942
1.059,0.064,0.095,114.868,-4.578,94.482
1.040,0.066,0.052,112.366,-3.967,97.534
1.029,0.081,0.025,111.633,-2.563,99.976
1.081,0.133,0.051,113.220,0.427,103.149
1.168,0.171,0.085,118.347,-1.526,106.995
1.251,0.171,0.091,125.610,-11.353,109.497
1.221,0.142,0.059,132.690,-24.902,112.427
1.152,0.142,0.062,137.573,-34.607,116.882
1.163,0.117,0.095,141.235,-41.443,122.742
1.165,0.062,0.129,142.639,-48.828,127.258
1.129,0.039,0.149,139.954,-56.274,130.249
1.093,0.051,0.147,133.240,-62.439,133.179
1.050,0.061,0.135,125.671,-65.613,135.742
1.008,0.070,0.124,118.347,-64.392,136.719
0.978,0.104,0.127,112.915,-58.899,135.010
0.962,0.131,0.135,109.680,-50.659,132.690
0.963,0.147,0.141,108.887,-40.894,129.517
0.978,0.160,0.157,110.107,-30.640,126.465
0.991,0.174,0.165,113.037,-20.630,123.413
1.007,0.175,0.174,117.188,-11.230,121.460
1.031,0.155,0.188,122.559,-4.578,121.155
1.059,0.131,0.215,126.953,-0.732,122.192
1.096,0.089,0.235,129.028,0.061,124.084
1.084,0.083,0.237,128.723,-1.099,124.390
1.061,0.062,0.253,127.686,-2.808,124.817
1.043,0.037,0.258,125.305,-6.226,124.817
1.037,0.034,0.298,122.192,-10.254,124.573
1.038,0.027,0.321,118.713,-16.846,124.512
1.057,0.024,0.340,116.150,-24.475,124.084
1.045,0.013,0.363,115.417,-30.945,123.352
1.013,0.008,0.369,116.394,-37.292,123.413
0.993,-0.005,0.385,118.652,-42.114,123.718
0.968,-0.029,0.413,120.605,-45.959,123.901
0.947,-0.064,0.433,121.094,-48.828,124.634
0.928,-0.094,0.457,119.263,-51.331,125.977
0.908,-0.108,0.488,116.394,-54.321,127.197
0.884,-0.126,0.506,113.586,-58.167,128.174
0.841,-0.146,0.516,110.474,-62.012,127.808
0.797,-0.163,0.530,106.750,-65.002,126.648
0.751,-0.172,0.541,102.905,-65.613,124.451
0.703,-0.177,0.551,99.121,-64.392,121.704
0.666,-0.178,0.568,94.727,-61.157,118.347
0.644,-0.178,0.584,90.027,-56.396,114.929
0.626,-0.182,0.601,85.510,-52.612,110.840
0.610,-0.184,0.620,81.665,-49.683,105.530
0.604,-0.179,0.640,77.759,-47.302,99.609
0.605,-0.164,0.659,73.730,-44.800,94.177
0.589,-0.151,0.663,70.801,-43.823,88.745
0.574,-0.143,0.661,67.322,-42.175,83.862
0.563,-0.134,0.661,63.660,-39.246,80.322
0.557,-0.118,0.666,59.753,-35.278,77.759
0.571,-0.100,0.675,55.908,-31.250,75.623
0.593,-0.079,0.681,52.490,-28.381,73.303
0.595,-0.074,0.688,50.537,-27.771,70.374
0.578,-0.060,0.689,48.584,-27.893,67.139
0.567,-0.044,0.693,47.241,-27.954,63.843
0.553,-0.034,0.694,46.021,-27.832,60.669
0.531,-0.031,0.690,44.739,-27.466,57.129
0.520,-0.029,0.689,43.274,-26.733,53.162
0.506,-0.039,0.685,42.053,-24.414,49.072
0.509,-0.022,0.690,40.588,-20.996,44.922
0.506,-0.018,0.700,39.856,-17.639,40.405
0.503,-0.029,0.703,39.551,-14.282,36.011
0.508,-0.032,0.725,39.612,-9.705,32.288
0.514,-0.035,0.733,39.612,-5.127,28.137
0.524,-0.063,0.748,39.001,-0.183,24.841
0.544,-0.099,0.767,37.170,5.615,23.437
0.552,-0.108,0.781,34.424,10.376,22.949

1.479,-0.893,-0.269,-277.405,44.922,-346.375
1.577,-0.718,-0.292,-278.442,40.405,-356.262
1.669,-0.523,-0.290,-278.503,36.194,-357.422
1.746,-0.371,-0.315,-277.283,32.776,-349.915
1.781,-0.228,-0.363,-278.870,28.870,-333.435
1.800,-0.069,-0.413,-284.485,24.292,-311.523
1.821,0.097,-0.488,-290.222,19.775,-289.978
1.876,0.275,-0.567,-293.579,16.479,-269.592
1.931,0.455,-0.610,-291.138,13.550,-251.404
1.918,0.613,-0.657,-282.166,8.728,-236.816
1.838,0.733,-0.689,-268.799,4.089,-224.426
1.746,0.865,-0.700,-252.014,3.662,-212.341
1.684,0.993,-0.689,-231.018,9.399,-199.707
1.618,1.061,-0.652,-206.604,18.616,-184.082
1.560,1.081,-0.610,-179.504,26.062,-165.955
1.599,1.088,-0.547,-152.222,29.663,-146.729
1.643,1.069,-0.494,-124.390,26.123,-125.122
1.639,1.022,-0.444,-95.215,14.099,-102.356
1.599,0.982,-0.382,-66.589,-0.793,-80.322
1.554,0.920,-0.335,-41.138,-14.160,-60.791
1.479,0.878,-0.312,-17.578,-24.902,-46.997
1.375,0.814,-0.257,4.150,-26.917,-36.743
1.281,0.731,-0.199,22.949,-20.203,-29.541
1.209,0.651,-0.114,38.025,-6.409,-25.635
1.242,0.551,-0.017,49.988,11.169,-24.231
1.386,0.510,0.060,56.213,24.231,-24.109
1.224,0.275,-0.010,58.105,31.616,-22.034
1.266,0.391,0.148,49.683,44.922,-20.264
1.360,0.331,0.157,45.288,49.744,-6.165
1.395,0.333,0.142,40.588,43.884,3.052
1.409,0.365,0.229,40.161,38.391,11.414
1.410,0.399,0.326,42.664,25.024,21.240
1.399,0.424,0.314,45.959,3.235,32.471
1.358,0.411,0.329,50.842,-11.536,45.532
1.265,0.383,0.343,55.725,-20.569,57.556
1.208,0.383,0.340,61.401,-24.048,68.481
1.159,0.357,0.321,68.726,-22.278,79.041
1.135,0.303,0.350,75.195,-16.235,88.135
1.116,0.296,0.378,79.590,-11.292,94.055
1.080,0.264,0.391,83.069,-8.789,98.389
1.008,0.210,0.345,85.999,-7.996,100.769
1.044,0.262,0.373,89.172,-6.714,101.196
1.019,0.068,0.325,94.238,-8.850,106.201
0.943,0.117,0.248,96.924,-7.812,101.318
0.903,0.085,0.349,99.731,4.517,99.609
0.983,0.112,0.385,101.257,10.742,97.717
1.006,0.076,0.371,103.027,5.859,97.656
1.030,0.075,0.408,104.309,3.906,96.619
1.042,0.060,0.362,105.225,-0.305,99.976
1.044,-0.006,0.381,106.323,-1.587,104.614
1.082,0.007,0.411,106.628,-3.662,107.544
1.083,0.047,0.385,107.239,-10.986,111.450
1.056,0.043,0.378,109.192,-17.578,116.943
1.015,0.034,0.354,111.633,-23.621,121.704
0.963,0.037,0.325,113.159,-27.222,125.000
0.931,0.053,0.312,114.929,-26.917,127.380
0.897,0.064,0.285,116.821,-23.865,130.127
0.869,0.035,0.268,118.469,-19.287,133.362
0.855,0.018,0.259,118.896,-13.550,135.498
0.849,0.027,0.253,119.690,-7.263,136.169
0.856,0.045,0.257,120.605,-0.793,136.658
0.868,0.061,0.261,123.291,4.883,137.207
0.893,0.083,0.265,127.197,8.301,138.000
0.921,0.102,0.268,132.263,8.301,138.733
0.944,0.123,0.279,138.489,5.615,139.526
0.949,0.141,0.285,145.142,0.732,139.832
0.952,0.154,0.285,152.100,-5.676,140.320
0.955,0.139,0.285,158.325,-12.878,141.357
0.945,0.099,0.287,161.987,-21.179,143.921
0.901,0.060,0.292,161.926,-29.297,147.888
0.852,0.030,0.296,158.752,-34.485,151.794
0.807,0.022,0.292,152.588,-36.133,155.273
0.779,0.025,0.294,145.447,-33.997,158.203
0.761,0.036,0.300,138.916,-29.114,159.973
0.745,0.049,0.306,134.155,-23.987,159.973
0.739,0.055,0.316,131.348,-18.311,158.020
0.741,0.066,0.327,130.615,-11.475,154.785
0.743,0.076,0.341,131.531,-4.333,151.550
0.774,0.079,0.365,134.155,2.136,148.376
0.822,0.061,0.398,138.367,6.897,144.897
0.858,0.045,0.431,142.090,8.301,141.357
0.883,0.040,0.461,144.775,6.958,138.367
0.898,0.027,0.486,146.667,3.296,136.230
0.903,0.010,0.507,146.545,-1.465,135.742
0.892,-0.006,0.524,144.409,-8.057,136.902
0.847,-0.020,0.528,140.076,-15.442,139.160
0.794,-0.003,0.543,133.728,-21.545,141.418
0.729,-0.041,0.533,125.610,-25.330,144.226
0.672,-0.023,0.536,116.821,-23.865,144.531
0.630,-0.005,0.533,107.056,-18.738,144.836
0.602,-0.021,0.549,97.717,-11.841,142.761
0.546,0.019,0.493,90.515,-5.737,137.695
0.579,0.054,0.559,85.632,2.441,129.700
0.659,0.101,0.575,82.153,5.249,120.850
0.661,0.138,0.558,81.360,2.991,115.417
0.765,0.127,0.620,82.214,-0.061,109.802
0.802,0.145,0.619,84.412,-9.460,101.929
0.774,0.145,0.629,86.792,-20.264,96.375
0.779,0.124,0.648,87.524,-28.259,96.375
0.754,0.089,0.624,86.304,-36.377,97.107
0.709,0.084,0.626,84.106,-41.504,96.375
0.641,0.059,0.604,79.712,-43.945,96.558
0.584,0.052,0.592,73.730,-42.358,95.154
0.565,0.069,0.603,68.115,-36.255,90.515
0.560,0.073,0.595,63.904,-28.625,84.167
0.557,0.053,0.600,60.120,-19.104,77.454
0.572,0.065,0.615,57.495,-7.874,69.763
0.588,0.081,0.631,56.580,2.625,62.744
0.604,0.057,0.647,56.946,12.085,57.007
0.636,0.039,0.675,57.129,19.958,53.894
0.657,0.029,0.699,55.908,24.414,53.101
0.674,0.003,0.723,54.077,25.146,52.979
0.677,-0.012,0.737,51.086,23.315,53.406
0.677,-0.030,0.764,48.157,18.982,54.199
0.651,-0.042,0.776,45.349,13.306,54.016
0.604,-0.041,0.796,42.297,8.545,52.063
0.512,-0.122,0.778,39.124,5.798,49.255
0.443,-0.141,0.792,35.400,8.545,41.748
0.418,-0.169,0.815,31.067,16.907,33.691

1.180,-1.043,0.287,-141.846,-24.780,-153.198
1.186,-1.088,0.184,-157.104,-24.475,-162.781
1.156,-1.161,0.055,-172.913,-24.048,-175.232
1.197,-1.215,-0.072,-190.674,-19.775,-190.613
1.213,-1.207,-0.175,-210.876,-11.475,-207.397
1.183,-1.176,-0.280,-231.140,-1.831,-223.145
1.188,-1.092,-0.368,-250.732,9.827,-235.779
1.255,-0.944,-0.417,-267.517,20.874,-247.009
1.328,-0.828,-0.437,-279.175,27.954,-258.240
1.386,-0.736,-0.466,-286.743,30.884,-268.860
1.462,-0.630,-0.508,-293.335,27.649,-278.748
1.546,-0.530,-0.550,-299.805,18.066,-287.292
1.623,-0.386,-0.596,-307.739,4.089,-294.434
1.696,-0.169,-0.633,-313.171,-9.521,-301.697
1.785,0.042,-0.657,-311.768,-21.362,-309.021
1.864,0.233,-0.669,-302.551,-31.372,-313.354
1.901,0.406,-0.662,-287.659,-38.452,-314.636
1.881,0.534,-0.664,-270.874,-41.321,-312.073
1.854,0.594,-0.648,-256.348,-37.903,-305.542
1.831,0.620,-0.621,-247.864,-29.846,-296.692
1.753,0.680,-0.633,-246.582,-20.203,-289.307
1.595,0.726,-0.649,-249.390,-5.493,-285.278
1.393,0.759,-0.680,-253.662,15.991,-286.560
1.170,0.811,-0.759,-255.676,46.509,-292.542
1.080,0.876,-0.839,-252.380,88.379,-297.913
1.271,1.016,-0.807,-244.324,131.104,-294.250
1.454,1.106,-0.687,-228.333,156.433,-279.358
1.527,1.168,-0.567,-204.529,157.715,-255.981
1.546,1.244,-0.475,-175.171,140.381,-228.088
1.571,1.286,-0.395,-140.442,111.267,-197.266
1.583,1.250,-0.333,-101.746,75.867,-164.062
1.561,1.170,-0.273,-61.462,38.818,-131.226
1.491,1.083,-0.208,-23.376,6.775,-99.426
1.412,0.960,-0.141,10.010,-13.733,-68.237
1.387,0.820,-0.064,36.194,-23.682,-39.978
1.377,0.704,-0.006,55.115,-26.123,-15.869
1.386,0.615,0.058,68.420,-23.071,4.456
1.418,0.504,0.131,77.576,-19.897,20.447
1.419,0.494,0.164,83.130,-20.630,30.090
1.453,0.453,0.255,88.806,-21.851,41.565
1.718,0.469,0.239,94.971,-32.471,46.509
1.247,0.241,0.082,100.342,-46.326,43.030
1.213,0.349,0.168,98.877,-35.828,37.537
1.312,0.263,0.135,108.459,-21.240,45.593
1.305,0.118,0.160,114.502,-8.606,44.983
1.271,0.074,0.323,114.990,1.404,41.199
1.327,0.048,0.345,112.000,1.587,43.335
1.385,0.011,0.337,106.262,-1.709,51.025
1.376,-0.019,0.368,99.915,-6.409,60.364
1.369,-0.007,0.372,95.215,-14.771,70.251
1.376,-0.006,0.367,92.834,-26.550,83.313
1.363,0.005,0.358,91.797,-40.955,97.717
1.281,-0.053,0.315,92.773,-57.129,112.061
1.227,-0.028,0.276,91.797,-70.679,124.695
1.148,-0.030,0.305,90.027,-76.050,135.742
1.003,-0.037,0.174,88.257,-77.148,141.296
0.893,-0.141,0.215,88.257,-67.200,141.785
0.978,0.125,0.245,88.196,-60.120,137.939
1.053,0.082,0.333,93.018,-62.378,139.465
1.068,0.144,0.223,95.398,-68.970,138.367
0.969,0.001,0.189,101.929,-70.496,141.357
0.950,0.070,0.201,104.736,-63.782,137.451
0.987,0.133,0.194,109.558,-57.922,138.306
1.001,0.122,0.212,116.028,-52.002,141.663
1.027,0.078,0.236,121.826,-49.011,144.714
1.040,0.020,0.228,125.793,-49.561,146.057
1.015,-0.040,0.205,128.662,-50.110,145.386
0.954,-0.064,0.185,129.028,-48.523,144.104
0.910,-0.071,0.202,128.113,-42.542,141.968
0.911,-0.062,0.231,126.038,-35.095,138.550
0.909,-0.045,0.235,123.352,-28.992,133.972
0.889,-0.025,0.246,120.056,-21.057,129.089
0.874,-0.001,0.254,116.638,-11.169,124.084
0.874,0.013,0.261,114.990,-1.282,120.178
0.881,0.018,0.271,114.624,8.240,117.920
0.886,0.009,0.276,115.417,15.991,116.882
0.875,0.015,0.267,117.371,23.621,114.685
0.850,0.016,0.272,119.812,33.508,111.572
0.831,0.013,0.281,122.864,44.006,108.093
0.802,0.016,0.272,126.038,54.810,102.905
0.777,0.016,0.259,128.723,68.359,95.825
0.770,0.012,0.250,131.287,83.313,89.111
0.802,0.006,0.252,132.263,96.436,83.679
0.878,-0.009,0.272,130.920,105.042,80.933
0.947,-0.032,0.303,127.502,105.713,81.726
0.992,-0.036,0.334,121.826,97.229,85.632
1.037,-0.023,0.374,115.356,81.482,91.370
1.071,-0.004,0.408,110.046,58.350,97.595
1.052,0.013,0.407,105.591,29.236,104.004
1.003,0.026,0.382,102.966,-0.244,110.657
0.953,0.042,0.352,102.295,-25.574,117.249
0.887,0.053,0.343,102.417,-45.044,122.986
0.851,0.068,0.342,102.539,-57.495,126.953
0.842,0.066,0.345,102.783,-64.697,129.395
0.813,0.049,0.346,102.417,-69.458,130.432
0.783,0.048,0.345,102.173,-72.205,130.066
0.772,0.050,0.355,101.563,-73.425,130.005
0.758,0.058,0.359,100.891,-73.242,130.493
0.735,0.066,0.368,99.976,-73.242,131.958
0.680,0.073,0.370,99.304,-73.181,134.583
0.624,0.052,0.394,97.656,-71.594,138.306
0.535,0.003,0.368,95.337,-68.787,143.494
0.574,0.029,0.412,91.919,-63.904,145.630
0.569,0.013,0.446,87.646,-65.491,150.024
0.509,0.014,0.435,83.435,-70.374,151.062
0.611,0.000,0.529,79.956,-73.486,147.949
0.687,0.004,0.544,78.308,-82.092,141.113
0.634,0.042,0.538,77.332,-91.614,128.296
0.620,0.037,0.591,79.651,-94.055,120.850
0.636,0.050,0.577,84.656,-95.032,109.497
0.579,0.045,0.595,91.431,-90.576,98.694
0.524,0.038,0.661,96.802,-82.520,90.942
0.517,-0.001,0.666,98.450,-76.477,89.050
0.513,-0.063,0.694,97.717,-68.115,87.402
0.495,-0.085,0.719,93.689,-61.340,83.618
0.471,-0.108,0.744,88.135,-58.228,78.247
0.441,-0.136,0.751,81.055,-56.274,70.801
0.439,-0.159,0.774,72.327,-52.551,62.500
0.485,-0.158,0.815,63.171,-46.814,54.382

1.453,0.737,-0.468,-211.365,38.452,-262.512
1.442,0.827,-0.469,-189.514,31.555,-247.803
1.421,0.912,-0.437,-165.588,23.865,-230.286
1.432,0.982,-0.387,-141.113,15.686,-211.914
1.464,1.060,-0.303,-118.958,8.301,-193.054
1.430,1.132,-0.225,-98.083,2.014,-175.049
1.363,1.171,-0.138,-79.163,-0.854,-157.349
1.324,1.210,-0.087,-62.134,0.610,-141.479
1.313,1.249,-0.025,-46.265,8.423,-127.441
1.329,1.282,0.065,-32.227,17.822,-110.901
1.376,1.291,0.169,-19.409,21.667,-90.576
1.370,1.268,0.216,-7.019,17.761,-69.092
1.337,1.237,0.246,5.005,11.902,-49.011
1.299,1.158,0.284,18.494,7.019,-31.433
1.286,1.164,0.433,31.738,0.610,-17.700
1.263,1.080,0.430,43.457,-13.428,-0.549
1.232,0.959,0.465,54.504,-23.193,15.015
1.189,0.867,0.492,62.317,-28.687,27.588
1.134,0.720,0.520,67.261,-29.663,39.307
1.117,0.678,0.589,67.444,-26.245,46.753
1.092,0.582,0.631,66.223,-20.447,53.467
1.078,0.532,0.650,63.538,-14.282,57.068
1.073,0.530,0.658,61.401,-10.132,60.303
1.068,0.495,0.635,63.171,-7.080,62.927
1.083,0.428,0.623,66.467,-4.700,65.430
1.094,0.388,0.617,69.214,-3.296,68.237
1.088,0.371,0.612,73.181,-4.639,70.129
1.068,0.345,0.591,79.712,-8.362,71.472
1.052,0.320,0.573,87.708,-12.817,73.120
1.012,0.269,0.536,96.924,-16.113,76.294
1.002,0.240,0.491,107.300,-17.334,79.895
1.021,0.156,0.465,117.676,-18.982,87.036
1.035,0.080,0.464,124.512,-20.081,96.802
1.029,0.018,0.441,128.662,-21.423,107.910
0.989,-0.026,0.383,130.310,-23.621,117.737
0.974,-0.111,0.397,130.249,-21.240,125.305
1.007,0.018,0.399,126.526,-17.822,129.395
1.010,-0.177,0.415,125.061,-19.104,138.489
0.966,-0.138,0.296,118.591,-21.423,135.620
0.934,-0.081,0.500,112.244,-13.550,135.437
1.002,0.016,0.485,104.309,-17.822,135.681
1.016,-0.042,0.403,99.792,-31.799,140.930
0.974,-0.098,0.435,95.581,-32.166,143.982
0.946,-0.104,0.411,90.088,-35.156,146.851
0.965,-0.052,0.425,84.656,-37.048,150.330
0.958,-0.036,0.413,81.177,-40.405,155.029
0.928,-0.026,0.403,80.444,-42.542,158.142
0.887,-0.001,0.384,82.458,-41.931,159.058
0.853,0.024,0.362,86.914,-38.330,160.339
0.844,0.044,0.377,93.384,-31.433,162.781
0.851,0.040,0.388,100.586,-24.780,165.771
0.866,0.020,0.403,105.591,-20.325,168.701
0.875,-0.002,0.421,108.704,-17.822,171.082
0.868,-0.017,0.431,108.948,-18.066,172.424
0.859,-0.018,0.441,107.239,-21.240,173.218
0.844,-0.019,0.451,105.469,-27.222,174.500
0.824,-0.015,0.459,103.577,-34.119,175.171
0.787,-0.009,0.463,102.356,-40.649,174.988
0.741,0.003,0.462,101.807,-44.983,174.316
0.702,0.013,0.466,102.295,-45.959,174.011
0.683,0.007,0.472,104.370,-44.373,173.523
0.666,-0.007,0.481,106.506,-41.321,171.875
0.666,-0.022,0.502,108.826,-37.537,169.434
0.682,-0.032,0.529,110.840,-34.363,165.955
0.690,-0.047,0.558,112.122,-32.959,161.926
0.686,-0.057,0.578,111.816,-33.447,157.776
0.675,-0.070,0.601,110.596,-35.583,153.809
0.668,-0.086,0.631,108.398,-38.513,150.818
0.657,-0.094,0.659,104.553,-43.091,149.170
0.624,-0.111,0.679,99.548,-49.194,148.865
0.567,-0.130,0.687,93.445,-55.664,149.109
0.518,-0.130,0.680,85.083,-60.364,149.231
0.461,-0.124,0.658,76.965,-63.171,148.682
0.403,-0.110,0.652,69.885,-63.660,147.339
0.387,-0.089,0.653,65.002,-62.317,144.043
0.382,-0.138,0.640,63.171,-59.387,139.038
0.480,0.021,0.764,63.904,-55.847,130.066
0.449,-0.058,0.733,67.444,-57.678,126.160
0.419,-0.029,0.723,71.472,-57.678,118.042
0.418,-0.113,0.788,74.158,-58.655,113.708
0.399,-0.099,0.753,73.120,-62.012,107.117
0.313,-0.125,0.726,70.435,-63.538,105.225
0.259,-0.153,0.737,65.308,-59.448,103.943
0.256,-0.149,0.759,58.960,-54.443,101.257
0.312,-0.139,0.820,54.077,-48.950,97.839
0.333,-0.147,0.854,52.246,-45.227,93.262
0.296,-0.146,0.868,51.514,-41.382,86.731
0.266,-0.142,0.881,50.659,-35.278,80.200
0.279,-0.140,0.916,50.659,-26.855,75.073
0.279,-0.135,0.933,50.964,-20.691,69.153
0.268,-0.139,0.943,51.697,-16.602,62.805
0.290,-0.160,0.973,53.589,-13.123,55.908
0.304,-0.179,0.985,53.833,-11.597,49.805
0.287,-0.206,0.982,52.551,-11.047,44.739
0.289,-0.230,0.986,49.500,-10.010,39.795
0.311,-0.244,0.995,45.227,-8.118,36.011
0.309,-0.252,1.001,40.833,-5.676,33.813
0.305,-0.256,1.007,36.194,-2.747,31.860
0.297,-0.251,1.006,31.677,1.343,29.968
0.299,-0.241,1.001,28.198,5.981,27.405
0.308,-0.237,1.003,25.452,11.047,24.231
0.306,-0.235,1.001,24.231,15.015,19.958
0.301,-0.230,0.990,23.315,17.700,15.503
0.315,-0.227,0.998,22.888,19.348,11.475
0.347,-0.227,1.014,22.522,19.470,7.996
0.369,-0.227,1.023,22.583,18.188,5.249
0.391,-0.232,1.036,22.522,15.686,3.174
0.423,-0.244,1.058,22.400,12.512,1.709
0.456,-0.250,1.076,21.179,8.911,2.441
0.456,-0.252,1.085,19.348,3.540,4.211
0.436,-0.255,1.083,17.029,-2.563,5.493
0.406,-0.257,1.071,14.587,-7.263,6.653
0.359,-0.254,1.052,11.597,-9.460,6.653
0.318,-0.255,1.037,8.667,-8.789,5.310
0.294,-0.264,1.022,5.981,-5.432,3.113
0.267,-0.248,1.009,2.869,0.671,0.061
0.255,-0.257,0.999,-0.366,8.179,-1.831
0.248,-0.266,0.990,-2.747,16.357,-3.967
0.251,-0.256,0.996,-5.615,25.391,-7.446

1.113,1.140,0.475,-34.912,16.968,-139.954
1.075,1.147,0.491,-31.067,15.381,-137.146
1.028,1.156,0.501,-27.649,13.611,-133.240
0.984,1.163,0.523,-23.560,13.977,-128.357
0.923,1.144,0.542,-18.860,16.418,-120.850
0.865,1.090,0.555,-13.794,20.630,-111.023
0.821,1.025,0.574,-10.254,26.367,-99.060
0.796,0.941,0.599,-8.118,34.119,-85.876
0.826,0.884,0.641,-7.568,42.053,-72.449
0.933,0.851,0.732,-7.080,46.204,-59.814
1.131,0.775,0.797,-5.554,40.955,-49.011
0.912,0.682,0.630,-3.540,30.640,-46.082
0.987,0.679,0.696,-0.610,38.391,-40.710
1.067,0.582,0.733,7.996,43.640,-31.860
1.191,0.562,0.961,13.306,47.119,-25.635
1.173,0.378,0.829,16.663,25.391,-10.986
1.222,0.406,0.919,16.602,10.559,-1.587
1.201,0.262,0.829,18.799,-5.066,12.451
1.144,0.270,0.816,21.240,-19.653,19.714
1.069,0.271,0.759,25.757,-29.541,26.489
0.959,0.228,0.700,30.945,-32.532,30.579
0.887,0.197,0.710,35.095,-26.611,32.227
0.883,0.177,0.738,38.391,-21.790,32.654
0.878,0.146,0.687,41.565,-21.545,32.166
0.873,0.087,0.663,44.189,-20.142,32.471
0.871,0.065,0.668,45.227,-18.250,32.837
0.877,0.063,0.651,46.021,-18.433,34.607
0.860,0.049,0.616,47.607,-18.188,37.048
0.865,0.044,0.617,50.171,-15.381,39.185
0.880,0.021,0.615,52.002,-11.902,41.870
0.894,-0.011,0.613,50.964,-8.972,46.509
0.909,-0.013,0.606,47.363,-6.897,50.903
0.923,-0.001,0.612,42.419,-5.493,56.335
0.908,-0.008,0.586,37.048,-5.249,63.477
0.897,0.002,0.576,31.311,-3.174,69.336
0.908,0.035,0.580,26.489,-0.977,73.120
0.915,0.062,0.565,23.804,-0.610,75.562
0.903,0.094,0.545,23.926,-0.122,76.721
0.899,0.136,0.529,25.940,1.282,78.186
0.911,0.169,0.517,30.518,2.502,80.200
0.919,0.190,0.502,36.926,2.625,81.848
0.914,0.208,0.489,44.434,2.197,83.801
0.925,0.194,0.467,53.040,2.380,86.792
0.941,0.146,0.446,61.157,1.648,91.187
0.951,0.108,0.466,66.101,1.038,96.985
0.963,0.073,0.491,68.176,-0.183,102.783
0.996,0.037,0.511,66.833,-3.052,108.032
1.014,0.019,0.551,61.279,-7.751,113.220
1.001,0.024,0.571,51.453,-14.160,117.493
0.970,0.055,0.586,40.588,-20.020,121.094
0.943,0.082,0.593,30.884,-24.048,124.573
0.947,0.109,0.612,22.705,-27.222,128.235
0.956,0.146,0.607,16.907,-33.386,131.165
0.947,0.158,0.594,13.916,-41.809,133.667
0.905,0.163,0.571,13.306,-49.988,136.047
0.855,0.165,0.568,14.587,-54.688,138.306
0.807,0.178,0.553,16.602,-57.983,139.404
0.766,0.184,0.549,18.677,-59.326,140.808
0.735,0.184,0.550,21.484,-58.777,141.174
0.704,0.186,0.534,23.682,-57.129,140.381
0.698,0.177,0.531,25.879,-54.565,139.282
0.695,0.170,0.539,26.794,-52.063,137.573
0.690,0.147,0.550,26.367,-49.438,135.254
0.690,0.111,0.572,23.376,-47.180,133.301
0.688,0.103,0.590,18.738,-45.044,130.676
0.678,0.110,0.597,12.939,-41.992,128.601
0.671,0.115,0.593,8.362,-37.598,126.648
0.680,0.147,0.603,5.493,-31.738,123.352
0.686,0.171,0.609,5.310,-25.635,120.667
0.678,0.193,0.609,7.507,-19.958,117.676
0.664,0.212,0.606,12.024,-14.648,115.356
0.636,0.220,0.600,17.883,-9.338,113.770
0.597,0.211,0.591,24.536,-4.761,111.877
0.558,0.190,0.560,30.029,-0.793,110.168
0.527,0.166,0.531,33.203,2.747,109.131
0.502,0.168,0.539,34.241,6.287,107.178
0.463,0.141,0.521,32.471,8.545,105.469
0.440,0.142,0.511,28.564,11.108,103.149
0.468,0.149,0.526,25.452,13.794,100.464
0.503,0.158,0.546,24.231,13.977,96.924
0.536,0.182,0.580,25.330,10.742,92.712
0.563,0.215,0.602,28.442,2.441,88.867
0.578,0.246,0.615,34.607,-9.583,85.999
0.589,0.275,0.626,43.213,-24.841,84.961
0.556,0.281,0.627,54.565,-41.321,85.022
0.496,0.272,0.615,66.895,-55.908,85.876
0.411,0.243,0.598,79.102,-66.406,87.158
0.313,0.200,0.576,90.332,-71.411,87.891
0.219,0.156,0.557,98.083,-71.106,87.952
0.140,0.103,0.552,101.685,-64.575,87.036
0.094,0.063,0.581,101.440,-52.551,84.778
0.092,0.023,0.635,98.999,-36.255,81.848
0.095,-0.013,0.680,94.604,-19.165,77.576
0.138,-0.042,0.732,89.233,-5.005,72.998
0.201,-0.063,0.792,83.191,4.822,67.444
0.263,-0.079,0.858,77.820,10.803,61.829
0.312,-0.108,0.931,74.280,12.756,57.251
0.330,-0.106,0.980,71.289,7.996,53.345
0.338,-0.134,1.015,68.481,-0.366,51.208
0.357,-0.158,1.058,65.979,-8.118,49.011
0.339,-0.177,1.060,64.209,-15.320,46.326
0.304,-0.198,1.056,63.354,-20.020,41.687
0.297,-0.211,1.061,62.439,-20.508,34.851
0.318,-0.246,1.080,61.584,-16.479,26.306
0.328,-0.284,1.101,59.875,-9.644,16.907
0.350,-0.307,1.119,56.885,-1.587,10.132
0.420,-0.330,1.159,53.101,7.080,8.179
0.473,-0.365,1.202,49.133,12.939,9.888
0.509,-0.405,1.233,44.678,14.587,12.390
0.553,-0.437,1.276,39.124,13.489,15.076
0.578,-0.467,1.282,33.630,10.193,17.639
0.571,-0.503,1.285,29.663,5.737,18.799
0.539,-0.524,1.290,25.391,2.319,17.395
0.491,-0.552,1.277,20.996,-0.793,15.381
0.447,-0.581,1.276,15.747,-2.319,12.146
0.407,-0.609,1.254,8.484,-3.601,7.874
0.354,-0.642,1.231,1.038,-4.211,2.075
0.316,-0.652,1.208,-7.874,-3.601,-4.333
0.324,-0.659,1.190,-17.395,-1.709,-10.315

1.394,1.303,0.011,-101.501,88.074,-211.792
1.492,1.373,0.042,-93.445,85.876,-198.425
1.508,1.430,0.047,-81.055,75.684,-184.326
1.480,1.454,0.070,-65.735,63.660,-169.678
1.426,1.444,0.088,-48.889,52.673,-154.236
1.368,1.425,0.111,-31.860,45.593,-136.841
1.302,1.337,0.148,-14.465,45.166,-117.859
1.224,1.272,0.162,-0.305,48.889,-97.412
1.404,1.285,0.312,13.000,55.359,-73.120
1.133,0.759,0.019,28.320,56.763,-52.673
1.365,0.942,0.485,30.457,74.585,-57.312
1.395,0.923,0.255,32.166,62.378,-39.856
1.304,0.711,0.321,39.856,54.749,-21.729
1.318,0.597,0.350,42.542,48.218,-13.123
1.396,0.715,0.305,45.349,38.086,-5.371
1.535,0.585,0.411,54.504,31.250,10.010
1.472,0.496,0.448,62.561,16.052,22.217
1.459,0.382,0.474,69.885,-2.441,30.334
1.462,0.380,0.498,74.707,-17.273,35.217
1.357,0.308,0.447,80.200,-33.875,48.767
1.291,0.248,0.441,84.290,-43.640,62.744
1.313,0.200,0.496,88.013,-48.950,77.026
1.304,0.130,0.453,90.820,-56.580,89.722
1.252,0.055,0.435,90.515,-64.392,100.647
1.176,0.001,0.413,87.097,-69.153,110.718
1.130,-0.024,0.423,81.116,-70.190,118.042
1.101,-0.015,0.412,73.792,-70.862,122.375
1.068,-0.040,0.405,66.589,-72.876,124.878
1.033,-0.049,0.416,57.007,-74.463,125.671
0.997,-0.021,0.427,46.082,-74.463,124.207
0.967,0.014,0.433,36.133,-71.350,122.314
0.938,0.058,0.424,27.710,-66.284,121.033
0.919,0.100,0.419,21.606,-59.570,120.667
0.910,0.128,0.428,18.616,-51.575,120.544
0.905,0.143,0.430,16.663,-43.213,120.605
0.903,0.157,0.430,15.625,-35.889,120.239
0.886,0.178,0.424,15.259,-29.602,119.202
0.866,0.194,0.406,16.846,-24.475,118.042
0.854,0.207,0.384,19.958,-20.203,117.065
0.837,0.213,0.356,25.085,-16.785,115.845
0.825,0.209,0.333,30.701,-13.489,115.112
0.807,0.201,0.326,35.889,-10.864,114.563
0.781,0.194,0.334,39.734,-8.423,114.014
0.762,0.196,0.347,42.053,-6.409,112.854
0.735,0.193,0.349,42.664,-5.066,111.511
0.718,0.191,0.357,42.053,-3.601,109.924
0.710,0.198,0.366,39.856,-1.587,109.070
0.690,0.207,0.362,37.109,-0.244,109.131
0.669,0.220,0.358,34.485,0.977,109.802
0.654,0.243,0.357,32.288,2.319,110.596
0.638,0.275,0.357,30.945,3.357,110.168
0.624,0.301,0.342,31.067,4.456,108.643
0.605,0.317,0.352,32.593,7.019,106.018
0.599,0.358,0.350,34.851,9.155,103.210
0.615,0.370,0.369,38.818,11.292,101.746
0.651,0.381,0.390,43.701,11.353,99.915
0.685,0.391,0.422,49.316,9.460,98.328
0.729,0.410,0.449,54.932,4.211,96.985
0.765,0.414,0.480,60.852,-4.883,96.680
0.768,0.411,0.482,66.589,-16.663,96.130
0.738,0.408,0.485,71.716,-28.076,95.825
0.686,0.411,0.478,74.707,-36.560,96.313
0.630,0.416,0.468,76.599,-41.443,97.046
0.571,0.419,0.460,77.026,-43.152,98.145
0.521,0.426,0.455,76.782,-43.457,99.426
0.483,0.428,0.443,76.111,-42.480,101.196
0.454,0.416,0.450,75.439,-40.344,104.187
0.426,0.413,0.450,74.646,-38.757,107.117
0.413,0.404,0.448,75.256,-38.025,108.765
0.417,0.411,0.453,78.491,-37.109,108.704
0.393,0.379,0.448,83.557,-36.743,108.948
0.356,0.381,0.432,89.966,-36.011,107.178
0.348,0.336,0.426,96.680,-34.363,107.971
0.355,0.294,0.437,100.647,-32.837,108.521
0.328,0.255,0.448,101.563,-31.494,109.680
0.296,0.221,0.468,99.182,-28.503,110.962
0.274,0.201,0.478,95.337,-26.306,110.352
0.243,0.175,0.479,90.820,-24.475,107.971
0.219,0.146,0.495,87.036,-20.752,102.417
0.211,0.128,0.510,84.229,-17.090,94.849
0.207,0.103,0.525,82.825,-13.550,87.463
0.228,0.080,0.558,82.947,-9.521,80.872
0.259,0.061,0.605,85.510,-5.920,74.829
0.297,0.043,0.654,91.003,-3.662,69.397
0.335,0.025,0.703,97.351,-4.333,62.927
0.383,-0.011,0.763,102.051,-8.545,55.908
0.438,-0.050,0.827,102.478,-13.550,51.208
0.463,-0.072,0.865,99.548,-16.907,48.340
0.479,-0.089,0.881,95.886,-21.484,45.410
0.464,-0.108,0.891,92.041,-24.353,43.823
0.423,-0.106,0.902,88.501,-22.827,41.443
0.416,-0.094,0.926,85.571,-18.127,37.231
0.449,-0.099,0.968,83.801,-12.085,31.433
0.482,-0.120,1.027,82.153,-6.775,25.696
0.508,-0.136,1.075,78.796,-4.028,20.630
0.535,-0.142,1.105,74.524,-2.991,17.334
0.559,-0.150,1.124,71.106,-3.418,14.038
0.577,-0.158,1.143,68.176,-5.493,10.498
0.568,-0.164,1.151,64.392,-8.667,7.751
0.542,-0.152,1.150,60.669,-12.268,5.920
0.529,-0.173,1.148,57.068,-15.625,4.395
0.508,-0.164,1.134,52.307,-17.456,4.028
0.459,-0.196,1.116,47.546,-17.578,4.761
0.436,-0.155,1.104,42.358,-14.648,1.953
0.392,-0.174,1.077,38.025,-9.949,0.549
0.377,-0.166,1.075,34.119,-2.502,-3.174
0.387,-0.175,1.074,30.518,5.432,-6.226
0.418,-0.190,1.090,27.954,13.855,-8.911
0.498,-0.186,1.130,26.184,18.555,-9.888
0.558,-0.204,1.155,24.902,15.747,-9.277
0.576,-0.211,1.169,21.729,7.935,-7.385
0.574,-0.210,1.162,18.250,-2.869,-5.798
0.559,-0.211,1.146,14.771,-13.794,-4.944
0.521,-0.202,1.132,10.986,-22.766,-4.333
0.478,-0.190,1.114,6.775,-28.503,-4.456
0.423,-0.172,1.083,3.235,-29.907,-4.822
0.380,-0.161,1.062,-0.183,-26.123,-5.676
0.359,-0.153,1.043,-3.601,-18.738,-6.775
0.379,-0.139,1.040,-6.287,-10.071,-7.385

1.353,-0.879,-0.476,-273.071,177.429,-298.218
1.557,-0.625,-0.551,-276.306,182.434,-304.626
1.747,-0.384,-0.602,-273.560,171.082,-304.810
1.836,-0.164,-0.661,-265.381,141.785,-300.293
1.818,0.087,-0.708,-253.845,100.586,-291.504
1.753,0.369,-0.736,-238.953,56.091,-280.945
1.738,0.622,-0.756,-219.238,17.883,-273.315
1.744,0.819,-0.765,-196.716,-10.620,-269.104
1.710,0.983,-0.731,-176.453,-31.128,-264.893
1.645,1.123,-0.691,-159.973,-42.419,-261.353
1.573,1.192,-0.639,-147.949,-41.931,-257.812
1.476,1.247,-0.577,-139.709,-30.029,-248.291
1.368,1.304,-0.487,-133.606,-10.803,-230.713
1.315,1.363,-0.359,-127.502,12.024,-209.290
1.329,1.444,-0.201,-119.446,36.987,-186.951
1.326,1.540,-0.068,-107.910,56.274,-165.588
1.293,1.584,0.034,-91.125,67.078,-145.691
1.278,1.583,0.127,-69.641,70.007,-127.625
1.306,1.542,0.217,-47.363,67.200,-111.755
1.305,1.447,0.279,-26.367,57.800,-97.778
1.294,1.339,0.330,-8.911,44.495,-85.449
1.336,1.247,0.370,4.883,27.954,-74.158
1.318,1.146,0.358,18.311,9.033,-64.026
1.279,1.039,0.370,31.067,-3.357,-52.246
1.251,0.959,0.399,41.138,-9.033,-36.926
1.228,0.866,0.430,49.744,-11.597,-19.348
1.294,0.809,0.518,56.519,-13.611,-2.625
1.591,0.879,0.618,62.561,-20.203,14.832
1.237,0.329,0.469,66.589,-33.508,24.963
1.226,0.620,0.533,57.678,-31.006,14.038
1.379,0.480,0.612,60.547,-27.039,28.076
1.359,0.449,0.605,60.364,-28.687,29.419
1.305,0.374,0.598,62.866,-33.875,34.058
1.293,0.315,0.573,67.932,-36.682,37.109
1.286,0.250,0.538,75.867,-40.955,40.344
1.254,0.197,0.551,83.740,-43.152,45.288
1.193,0.120,0.532,90.576,-47.485,53.406
1.131,0.054,0.535,93.811,-51.819,65.918
1.083,0.035,0.535,92.163,-55.237,79.834
1.041,0.020,0.544,87.952,-57.007,92.041
0.992,0.010,0.515,81.360,-58.167,101.135
0.951,0.004,0.494,72.754,-57.800,107.056
0.940,0.002,0.485,64.880,-56.335,109.985
0.935,0.006,0.472,57.800,-55.054,111.267
0.903,0.020,0.454,51.758,-53.040,111.938
0.889,0.039,0.468,46.326,-49.561,113.098
0.913,0.073,0.488,42.786,-46.082,114.380
0.927,0.106,0.496,40.833,-43.274,117.065
0.932,0.115,0.496,42.114,-39.673,121.094
0.973,0.142,0.521,45.898,-36.316,125.244
0.988,0.172,0.525,50.049,-36.072,131.287
1.008,0.101,0.539,54.932,-36.743,137.390
0.981,0.108,0.507,58.167,-39.001,136.475
0.932,0.125,0.496,60.547,-34.363,135.864
0.944,0.104,0.545,62.378,-28.748,135.132
0.966,0.118,0.556,61.646,-28.625,132.874
0.968,0.106,0.562,61.279,-31.128,132.385
0.958,0.054,0.560,61.768,-33.813,130.859
0.929,0.061,0.565,60.852,-35.217,128.235
0.915,0.051,0.579,59.387,-35.583,126.770
0.894,0.033,0.578,57.068,-35.461,125.427
0.871,0.030,0.609,54.443,-33.691,123.718
0.910,0.056,0.643,51.270,-34.546,122.131
0.906,0.058,0.652,48.340,-40.039,122.681
0.865,0.056,0.646,46.143,-46.997,123.657
0.828,0.059,0.632,44.434,-53.284,124.634
0.788,0.057,0.640,43.335,-57.922,125.793
0.744,0.059,0.642,41.138,-62.012,125.732
0.692,0.057,0.636,39.246,-64.575,124.207
0.628,0.068,0.615,37.415,-65.125,122.253
0.564,0.074,0.601,35.095,-62.683,121.155
0.525,0.079,0.603,32.043,-57.617,120.239
0.493,0.090,0.595,27.893,-51.331,119.324
0.457,0.096,0.598,23.376,-44.678,118.713
0.428,0.126,0.601,18.677,-38.147,117.310
0.386,0.139,0.587,15.137,-31.921,117.920
0.335,0.153,0.567,11.902,-25.146,118.774
0.288,0.160,0.557,9.583,-17.517,119.324
0.258,0.180,0.546,7.751,-8.667,118.835
0.245,0.204,0.536,6.409,0.061,118.042
0.248,0.217,0.536,5.554,9.155,117.065
0.264,0.224,0.552,5.493,16.663,115.967
0.297,0.235,0.568,5.676,20.752,113.892
0.316,0.249,0.575,5.798,20.081,111.084
0.308,0.262,0.578,4.700,16.479,109.375
0.289,0.284,0.569,2.747,9.766,108.582
0.266,0.270,0.568,-0.244,1.587,108.521
0.253,0.314,0.536,-4.883,-7.507,109.680
0.191,0.302,0.504,-10.315,-15.808,114.746
0.135,0.324,0.466,-15.442,-20.142,117.676
0.102,0.334,0.429,-19.470,-20.264,121.826
0.078,0.344,0.401,-20.081,-15.076,123.657
0.080,0.340,0.404,-18.005,-4.761,124.268
0.104,0.321,0.413,-15.198,7.996,123.230
0.141,0.341,0.424,-12.390,20.447,121.521
0.196,0.296,0.543,-9.705,35.583,119.263
0.281,0.349,0.550,-10.864,45.776,115.723
0.351,0.284,0.552,-11.658,51.453,123.840
0.320,0.284,0.548,-12.329,51.575,122.009
0.320,0.338,0.526,-10.132,46.875,112.000
0.382,0.448,0.522,-1.953,39.551,99.304
0.419,0.477,0.499,13.000,31.433,86.487
0.454,0.439,0.520,33.569,26.367,69.519
0.513,0.405,0.561,55.176,21.118,49.927
0.564,0.370,0.635,74.951,15.808,38.208
0.572,0.323,0.691,91.980,8.728,32.349
0.563,0.277,0.718,105.652,1.526,29.297
0.566,0.238,0.757,117.249,-3.296,27.588
0.563,0.202,0.814,126.953,-6.897,26.611
0.539,0.172,0.867,134.155,-12.390,24.597
0.540,0.130,0.919,139.648,-15.259,19.958
0.552,0.077,0.966,142.273,-13.794,15.259
0.525,0.027,1.004,140.381,-11.414,12.390
0.492,-0.016,1.026,135.193,-8.240,10.986
0.475,-0.047,1.028,127.686,-4.944,9.888
0.459,-0.073,1.028,118.225,-1.648,8.972
0.432,-0.085,1.028,107.239,1.099,7.874
0.416,-0.094,1.037,96.008,2.869,6.104
0.430,-0.111,1.058,84.900,3.845,5.371

0.447,-1.004,1.103,-50.720,16.846,-102.600
0.412,-1.096,1.019,-69.397,17.883,-110.229
0.442,-1.181,0.936,-97.656,25.940,-113.770
0.454,-1.181,0.814,-133.606,41.199,-113.647
0.477,-1.133,0.656,-170.898,61.340,-116.272
0.563,-1.043,0.495,-203.308,85.510,-124.878
0.699,-0.972,0.380,-227.844,110.474,-134.949
0.853,-0.934,0.307,-245.361,130.615,-145.813
0.981,-0.902,0.199,-257.568,141.174,-157.776
1.129,-0.904,0.120,-264.282,142.090,-172.546
1.234,-0.931,0.025,-267.883,134.583,-188.049
1.267,-0.952,-0.101,-270.752,120.117,-202.209
1.303,-0.928,-0.213,-273.010,100.769,-214.783
1.369,-0.837,-0.288,-273.071,79.163,-225.647
1.416,-0.731,-0.337,-268.799,58.044,-234.375
1.427,-0.667,-0.391,-258.484,39.368,-240.540
1.399,-0.558,-0.445,-246.033,24.231,-241.272
1.398,-0.377,-0.487,-233.948,10.315,-239.441
1.406,-0.191,-0.538,-221.313,-2.991,-238.281
1.383,-0.006,-0.589,-210.632,-16.907,-235.352
1.327,0.205,-0.615,-203.064,-30.334,-232.788
1.282,0.448,-0.646,-196.045,-40.649,-231.934
1.267,0.703,-0.668,-185.547,-47.241,-232.910
1.267,0.915,-0.670,-170.532,-50.049,-234.009
1.287,1.079,-0.630,-153.381,-49.194,-232.544
1.320,1.230,-0.546,-135.193,-45.227,-228.821
1.352,1.368,-0.460,-116.577,-38.208,-223.633
1.364,1.477,-0.373,-96.802,-27.954,-215.271
1.380,1.549,-0.278,-76.294,-16.663,-203.308
1.398,1.593,-0.186,-55.664,-7.202,-188.721
1.431,1.591,-0.113,-35.217,1.770,-174.500
1.470,1.542,-0.050,-16.907,10.132,-160.706
1.472,1.469,0.005,-2.075,16.418,-145.569
1.438,1.405,0.065,8.179,20.020,-128.601
1.438,1.340,0.152,14.587,20.813,-109.924
1.428,1.307,0.213,19.043,15.564,-92.041
1.408,1.271,0.234,25.391,4.395,-74.646
1.357,1.201,0.236,33.752,-11.169,-54.932
1.268,1.137,0.247,42.542,-27.771,-35.645
1.200,1.090,0.284,51.331,-39.368,-18.799
1.270,1.001,0.366,61.157,-48.218,-3.845
1.052,0.743,0.211,67.993,-56.946,3.723
0.906,0.757,0.188,68.176,-44.922,2.441
1.048,0.634,0.509,71.106,-16.418,4.272
1.144,0.652,0.506,64.087,-7.996,2.197
1.201,0.569,0.560,60.242,-9.766,10.498
1.195,0.473,0.565,54.382,-8.423,14.343
1.221,0.474,0.575,50.903,-8.423,17.761
1.238,0.484,0.576,52.246,-8.545,22.156
1.234,0.449,0.593,59.021,-9.216,27.954
1.255,0.438,0.647,69.824,-12.695,32.288
1.263,0.406,0.674,82.397,-22.705,38.269
1.238,0.328,0.673,94.421,-36.255,47.546
1.208,0.252,0.665,104.675,-50.842,56.458
1.162,0.173,0.630,113.281,-65.491,63.660
1.092,0.089,0.603,117.249,-77.820,71.289
1.000,0.016,0.586,114.868,-85.144,79.773
0.931,-0.013,0.591,106.262,-85.938,86.975
0.880,-0.019,0.596,94.727,-82.520,91.248
0.841,-0.002,0.591,82.520,-76.660,93.628
0.819,0.017,0.583,71.045,-69.824,95.520
0.823,0.041,0.583,61.462,-61.768,96.252
0.840,0.051,0.592,54.871,-53.223,97.229
0.857,0.063,0.591,51.147,-45.715,99.182
0.885,0.086,0.594,49.805,-41.626,101.624
0.916,0.097,0.601,52.185,-40.039,104.370
0.932,0.097,0.602,57.739,-40.588,106.689
0.929,0.097,0.590,65.186,-43.762,108.337
0.909,0.099,0.568,74.341,-48.096,108.826
0.895,0.079,0.553,83.679,-51.208,109.314
0.889,0.053,0.551,92.163,-53.284,110.291
0.840,0.019,0.518,98.938,-55.359,112.366
0.814,0.014,0.489,103.394,-54.688,113.953
0.795,-0.064,0.498,105.652,-50.293,115.173
0.798,-0.033,0.502,103.760,-46.143,112.732
0.815,-0.115,0.559,99.548,-42.725,114.990
0.816,-0.073,0.551,90.454,-44.434,112.793
0.809,-0.110,0.569,80.444,-47.058,114.441
0.803,-0.082,0.577,68.848,-48.157,113.586
0.793,-0.089,0.586,57.983,-49.011,114.441
0.790,-0.067,0.599,49.194,-49.683,113.647
0.792,-0.051,0.600,43.396,-52.124,113.464
0.775,-0.044,0.586,40.894,-55.420,113.647
0.760,-0.029,0.580,41.748,-57.129,113.770
0.736,-0.026,0.582,43.640,-57.739,115.845
0.705,-0.021,0.581,45.776,-58.655,118.896
0.682,-0.026,0.588,47.424,-58.777,121.643
0.662,-0.021,0.600,47.607,-57.983,124.146
0.624,-0.018,0.602,47.119,-57.129,126.587
0.587,-0.017,0.599,46.265,-55.054,128.296
0.570,-0.024,0.602,44.617,-50.964,128.967
0.543,-0.023,0.599,43.396,-46.143,128.052
0.510,-0.021,0.601,41.992,-40.771,126.526
0.487,-0.017,0.601,39.856,-35.278,124.756
0.465,-0.005,0.608,37.476,-30.579,122.559
0.459,-0.001,0.632,35.034,-27.039,120.667
0.448,0.006,0.657,31.555,-24.597,120.056
0.409,0.022,0.672,27.954,-24.475,120.178
0.366,0.036,0.670,25.208,-25.757,120.667
0.322,0.042,0.662,23.682,-26.733,121.521
0.282,0.043,0.664,21.484,-25.818,122.314
0.251,0.040,0.679,18.433,-22.827,122.375
0.227,0.029,0.668,14.099,-18.494,121.826
0.207,0.051,0.708,11.292,-12.329,118.835
0.192,0.061,0.704,9.583,-8.484,114.868
0.193,0.057,0.717,8.667,-6.165,110.901
0.202,0.079,0.716,8.240,-5.920,103.760
0.185,0.088,0.690,8.057,-8.240,97.595
0.170,0.087,0.705,9.216,-7.935,90.759
0.194,0.067,0.736,10.986,-8.667,82.520
0.227,0.062,0.748,11.169,-10.803,74.463
0.233,0.053,0.765,10.742,-11.719,68.115
0.250,0.050,0.768,10.132,-12.268,61.462
0.272,0.044,0.764,8.972,-11.902,56.885
0.294,0.039,0.776,8.667,-10.010,53.528
0.325,0.023,0.796,9.094,-7.202,50.964
0.349,0.017,0.803,10.132,-4.272,49.072
0.362,0.010,0.807,11.902,-1.953,47.729
0.385,-0.005,0.823,14.709,-1.099,46.021

0.428,-1.224,1.037,-40.039,16.907,-81.238
0.493,-1.342,0.967,-59.082,31.006,-96.985
0.524,-1.476,0.834,-81.177,44.922,-109.497
0.578,-1.572,0.752,-107.361,61.707,-121.399
0.693,-1.660,0.660,-136.414,75.439,-130.859
0.780,-1.691,0.536,-169.678,85.510,-138.611
0.783,-1.638,0.392,-202.576,92.346,-146.973
0.777,-1.557,0.237,-228.394,97.229,-156.921
0.811,-1.453,0.105,-249.084,103.027,-168.640
0.848,-1.290,-0.002,-268.127,109.863,-180.420
0.892,-1.065,-0.113,-285.950,112.671,-193.359
0.965,-0.835,-0.245,-299.561,111.084,-205.872
1.041,-0.590,-0.331,-307.739,105.957,-216.736
1.097,-0.364,-0.368,-309.570,96.191,-224.243
1.146,-0.154,-0.373,-305.664,83.618,-229.858
1.203,0.047,-0.410,-298.828,67.200,-233.337
1.259,0.227,-0.489,-289.185,44.617,-234.680
1.298,0.391,-0.579,-278.198,19.897,-236.267
1.329,0.529,-0.658,-267.029,-2.747,-238.831
1.360,0.658,-0.714,-255.493,-20.691,-242.676
1.419,0.775,-0.740,-243.103,-32.043,-248.169
1.498,0.912,-0.745,-229.614,-35.583,-254.578
1.536,1.048,-0.712,-214.355,-30.396,-257.996
1.546,1.151,-0.635,-198.547,-17.639,-255.066
1.526,1.223,-0.549,-182.617,-2.869,-245.239
1.473,1.301,-0.489,-165.283,11.780,-230.652
1.410,1.341,-0.436,-145.203,26.611,-210.815
1.390,1.386,-0.367,-123.962,40.833,-189.087
1.485,1.472,-0.264,-99.243,53.467,-169.006
1.599,1.481,-0.152,-70.557,57.739,-148.682
1.630,1.405,-0.061,-41.138,47.119,-126.648
1.602,1.320,0.009,-17.517,25.513,-106.018
1.561,1.240,0.046,-1.770,1.770,-86.609
1.496,1.192,0.066,8.728,-19.531,-68.970
1.406,1.158,0.100,17.883,-35.828,-52.551
1.309,1.109,0.140,27.405,-45.471,-37.842
1.221,1.046,0.168,37.354,-48.645,-25.208
1.128,0.963,0.197,46.204,-46.082,-14.709
1.019,0.911,0.216,52.002,-36.438,-4.944
1.183,0.940,0.375,57.007,-21.790,8.484
1.129,0.579,0.272,63.965,-17.822,21.057
0.989,0.681,0.359,62.622,-11.902,10.498
0.989,0.749,0.333,65.735,-0.183,14.709
1.030,0.617,0.367,74.707,12.024,19.348
1.081,0.570,0.531,80.383,15.930,17.517
1.181,0.628,0.514,84.717,-2.075,19.592
1.163,0.503,0.468,94.360,-20.752,24.902
1.112,0.388,0.459,103.516,-32.959,30.273
1.035,0.296,0.404,109.497,-44.861,38.208
1.046,0.270,0.441,112.976,-48.950,45.227
1.085,0.226,0.536,114.929,-51.819,54.016
1.055,0.183,0.518,113.281,-59.204,62.561
1.020,0.122,0.509,109.436,-63.477,70.007
1.001,0.099,0.539,102.905,-62.378,75.012
0.979,0.100,0.549,95.459,-59.448,78.857
0.933,0.112,0.555,88.623,-54.993,80.933
0.896,0.125,0.554,83.069,-48.584,81.787
0.873,0.128,0.544,79.712,-42.664,82.336
0.845,0.132,0.551,77.698,-35.217,83.679
0.828,0.145,0.546,76.782,-27.588,85.938
0.821,0.142,0.536,77.332,-21.301,88.257
0.834,0.134,0.522,78.918,-15.686,88.989
0.855,0.122,0.506,81.848,-12.573,88.318
0.867,0.109,0.495,85.327,-12.390,86.487
0.871,0.103,0.481,88.135,-14.587,83.557
0.872,0.097,0.464,90.759,-17.334,79.651
0.859,0.083,0.465,92.834,-18.982,76.660
0.831,0.079,0.474,93.811,-19.226,75.317
0.807,0.089,0.474,93.750,-19.592,74.646
0.784,0.088,0.469,93.323,-18.799,74.097
0.761,0.088,0.452,92.651,-15.442,74.463
0.737,0.093,0.433,92.529,-8.972,74.707
0.725,0.106,0.421,93.628,0.061,74.707
0.741,0.114,0.419,94.910,11.719,76.355
0.766,0.109,0.423,95.398,23.071,80.200
0.802,0.096,0.454,93.811,31.616,84.961
0.839,0.099,0.494,90.149,35.645,90.210
0.876,0.099,0.518,84.412,32.898,96.436
0.872,0.112,0.509,77.820,25.146,101.563
0.845,0.110,0.495,72.083,17.334,106.262
0.818,0.109,0.499,67.566,10.925,109.741
0.792,0.109,0.513,64.026,5.554,111.511
0.772,0.125,0.520,61.340,-0.061,111.755
0.737,0.131,0.522,60.730,-5.005,110.413
0.721,0.151,0.517,61.890,-8.423,107.788
0.725,0.149,0.524,64.514,-11.230,104.431
0.724,0.164,0.520,68.604,-15.991,99.731
0.723,0.166,0.535,73.486,-22.034,96.069
0.700,0.165,0.531,78.003,-29.175,93.201
0.674,0.159,0.547,82.458,-35.278,91.492
0.644,0.154,0.568,85.022,-40.405,91.736
0.606,0.145,0.577,84.290,-45.715,93.872
0.580,0.147,0.573,81.543,-50.415,97.107
0.541,0.130,0.562,76.843,-54.382,101.318
0.490,0.147,0.562,71.228,-55.969,105.469
0.449,0.101,0.554,64.758,-55.298,109.314
0.421,0.131,0.562,57.495,-53.772,107.849
0.443,0.121,0.573,51.270,-52.917,107.178
0.426,0.118,0.552,46.692,-54.382,102.600
0.433,0.119,0.565,46.082,-53.284,95.154
0.478,0.104,0.591,49.438,-52.490,87.036
0.511,0.113,0.586,54.077,-54.199,76.660
0.506,0.106,0.576,62.256,-54.382,67.688
0.510,0.070,0.588,73.608,-51.025,58.411
0.547,0.061,0.626,85.144,-45.776,49.500
0.612,0.020,0.684,95.520,-41.504,43.640
0.661,-0.010,0.704,101.868,-42.542,40.405
0.677,-0.049,0.734,104.858,-45.654,39.795
0.665,-0.082,0.742,103.333,-50.354,41.992
0.615,-0.126,0.739,97.839,-56.274,47.363
0.564,-0.151,0.765,89.905,-59.631,52.246
0.516,-0.176,0.750,79.773,-63.110,56.335
0.453,-0.192,0.727,69.458,-64.514,58.899
0.392,-0.205,0.722,61.890,-60.608,59.082
0.359,-0.234,0.714,57.800,-51.575,56.152
0.349,-0.255,0.725,56.091,-38.452,50.171
0.348,-0.263,0.747,54.382,-23.621,43.762
0.369,-0.263,0.769,51.941,-11.169,38.208
0.402,-0.262,0.778,49.866,-3.906,33.325

0.408,-1.008,1.168,-37.292,4.517,-32.227
0.389,-1.084,1.155,-45.349,10.559,-39.307
0.390,-1.170,1.130,-53.711,17.700,-45.898
0.377,-1.242,1.098,-62.744,26.855,-52.673
0.362,-1.317,1.054,-73.669,37.903,-59.021
0.331,-1.399,0.983,-88.074,50.354,-64.331
0.285,-1.501,0.867,-108.032,65.613,-68.726
0.265,-1.682,0.716,-132.751,83.130,-73.730
0.265,-1.917,0.524,-164.856,104.431,-81.848
0.295,-2.060,0.305,-204.163,129.456,-95.154
0.443,-2.058,0.097,-249.268,157.715,-113.586
0.623,-1.996,-0.099,-295.898,184.143,-132.812
0.716,-1.965,-0.316,-342.834,205.688,-149.353
0.773,-1.919,-0.556,-387.573,223.145,-165.100
0.897,-1.846,-0.741,-427.795,238.831,-177.368
1.013,-1.610,-0.895,-462.952,250.854,-181.213
1.071,-1.219,-1.001,-486.511,257.019,-178.345
1.220,-0.928,-0.965,-496.216,256.104,-172.729
1.438,-0.719,-0.955,-503.662,236.755,-164.795
1.531,-0.531,-1.070,-510.437,191.772,-152.710
1.512,-0.332,-1.238,-515.930,132.080,-140.259
1.456,-0.041,-1.384,-517.090,67.810,-134.888
1.443,0.372,-1.492,-506.226,10.742,-141.113
1.457,0.862,-1.567,-475.586,-33.813,-155.945
1.469,1.377,-1.536,-424.072,-66.284,-171.997
1.452,1.863,-1.427,-353.027,-89.172,-186.340
1.417,2.198,-1.297,-266.602,-106.628,-194.519
1.334,2.279,-1.181,-174.683,-117.065,-189.209
1.224,2.143,-1.074,-89.233,-116.028,-172.424
1.182,1.883,-0.953,-18.250,-99.792,-151.367
1.270,1.569,-0.801,33.325,-74.402,-128.479
1.386,1.292,-0.679,66.528,-50.842,-105.591
1.482,1.064,-0.571,83.374,-32.959,-82.153
1.537,0.912,-0.456,85.876,-22.522,-60.852
1.539,0.864,-0.365,78.674,-21.301,-47.058
1.496,0.885,-0.325,68.359,-25.818,-39.490
1.404,0.934,-0.304,59.082,-31.372,-34.729
1.284,0.993,-0.262,51.880,-32.166,-30.945
1.170,1.067,-0.196,49.072,-26.062,-26.306
1.123,1.107,-0.105,52.551,-15.137,-17.212
1.100,0.985,-0.056,61.157,-5.798,-5.859
1.013,1.027,-0.060,69.885,0.549,-1.160
0.951,0.870,-0.112,82.947,12.756,12.756
1.099,0.904,0.190,91.919,26.733,19.409
1.146,0.845,0.090,101.013,17.334,34.424
1.169,0.667,0.153,116.211,8.850,48.645
1.165,0.609,0.172,123.047,-3.967,52.429
1.147,0.521,0.178,131.409,-15.991,53.711
1.121,0.444,0.229,136.658,-22.827,51.025
1.100,0.377,0.292,137.573,-26.733,47.791
1.076,0.313,0.355,135.132,-29.846,44.861
1.086,0.286,0.403,129.700,-31.433,41.260
1.088,0.254,0.445,122.986,-30.090,40.955
1.059,0.247,0.447,115.540,-28.381,42.114
1.073,0.248,0.464,109.802,-27.283,45.898
1.078,0.254,0.435,106.445,-29.602,54.688
1.084,0.234,0.411,106.506,-34.241,66.223
1.062,0.185,0.399,108.337,-39.856,78.064
1.018,0.157,0.375,110.291,-47.302,87.463
0.979,0.146,0.386,110.107,-53.162,95.642
0.922,0.141,0.391,108.215,-56.641,100.830
0.877,0.142,0.377,103.821,-57.434,103.027
0.859,0.144,0.395,97.778,-56.763,102.295
0.839,0.152,0.404,89.539,-56.763,99.182
0.822,0.173,0.418,80.505,-56.274,94.116
0.821,0.202,0.428,72.876,-55.237,87.891
0.809,0.233,0.423,67.932,-54.016,82.092
0.790,0.260,0.411,66.040,-51.636,77.820
0.787,0.286,0.400,68.176,-48.035,74.707
0.807,0.306,0.405,74.036,-42.847,72.144
0.839,0.304,0.416,81.787,-37.781,70.496
0.855,0.277,0.406,89.905,-34.241,70.923
0.849,0.237,0.389,96.008,-32.471,73.669
0.865,0.205,0.402,98.755,-31.372,77.393
0.895,0.171,0.421,98.083,-32.288,80.994
0.911,0.138,0.445,92.957,-36.560,84.595
0.914,0.131,0.456,84.045,-45.654,87.524
0.906,0.146,0.457,74.158,-57.556,88.196
0.870,0.159,0.449,64.758,-69.580,87.402
0.808,0.203,0.433,56.396,-80.200,85.999
0.774,0.244,0.438,52.063,-86.243,85.327
0.774,0.269,0.448,53.162,-89.233,84.961
0.735,0.294,0.434,57.007,-91.736,85.083
0.701,0.296,0.423,63.232,-90.942,86.914
0.676,0.301,0.399,70.007,-88.562,90.820
0.619,0.285,0.379,76.599,-85.449,95.642
0.582,0.253,0.373,82.031,-80.383,99.976
0.558,0.227,0.380,85.571,-73.730,102.844
0.516,0.214,0.384,88.196,-65.552,104.126
0.489,0.192,0.396,89.661,-56.885,105.042
0.485,0.168,0.419,90.210,-48.279,104.614
0.487,0.152,0.440,90.759,-41.748,102.539
0.492,0.130,0.464,91.309,-37.537,99.915
0.517,0.097,0.491,92.529,-34.668,96.741
0.528,0.072,0.511,94.482,-34.241,92.651
0.507,0.009,0.531,96.375,-35.278,88.379
0.455,0.032,0.528,96.558,-36.255,84.045
0.433,-0.027,0.541,96.252,-34.546,83.252
0.415,-0.055,0.554,93.994,-31.067,80.322
0.400,-0.085,0.583,91.370,-24.658,78.430
0.428,-0.064,0.659,89.294,-17.151,77.393
0.456,-0.085,0.660,87.463,-16.235,79.102
0.415,-0.144,0.650,86.731,-14.893,78.247
0.396,-0.161,0.688,87.585,-9.216,72.083
0.443,-0.186,0.772,87.280,-6.470,67.322
0.545,-0.271,0.873,81.299,-9.094,65.002
0.610,-0.329,0.947,67.871,-16.968,65.796
0.622,-0.379,1.052,49.683,-23.071,73.425
0.569,-0.399,1.093,28.503,-31.738,82.458
0.492,-0.370,1.061,9.155,-40.466,86.304
0.451,-0.296,1.040,-4.883,-42.297,84.473
0.441,-0.209,1.021,-12.878,-39.917,78.979
0.417,-0.121,0.985,-15.930,-36.743,68.970
0.432,-0.064,0.983,-12.695,-30.518,55.481
0.475,-0.025,0.975,-3.235,-21.973,39.246
0.515,-0.035,0.987,9.888,-13.611,23.926
0.538,-0.062,1.003,21.606,-7.935,12.085
0.547,-0.057,1.001,30.457,-5.432,3.784
0.557,-0.077,1.001,37.842,-4.456,-0.366

0.623,-0.887,1.101,-28.259,14.648,-57.007
0.622,-1.027,1.074,-31.250,18.799,-62.439
0.623,-1.206,1.038,-37.598,26.428,-69.336
0.612,-1.425,0.979,-48.523,38.269,-77.637
0.557,-1.692,0.859,-68.237,55.481,-87.524
0.533,-1.975,0.684,-99.365,79.834,-99.854
0.637,-2.173,0.485,-142.151,111.816,-114.197
0.738,-2.208,0.285,-194.946,143.555,-125.183
0.814,-2.167,0.072,-250.000,166.443,-134.460
0.847,-2.040,-0.147,-298.035,183.594,-145.081
0.903,-1.840,-0.278,-333.496,199.219,-153.625
1.008,-1.570,-0.345,-356.140,211.121,-160.645
1.099,-1.333,-0.352,-366.882,216.858,-165.283
1.160,-1.114,-0.329,-370.178,210.327,-164.917
1.202,-0.852,-0.321,-368.408,185.974,-160.828
1.212,-0.565,-0.377,-364.807,143.677,-154.663
1.235,-0.283,-0.521,-362.610,86.609,-149.048
1.259,-0.097,-0.704,-359.314,24.719,-146.240
1.264,0.221,-0.868,-354.126,-31.067,-151.001
1.288,0.472,-1.028,-342.957,-74.707,-156.433
1.316,0.822,-1.099,-324.036,-100.525,-171.265
1.336,1.130,-1.100,-295.410,-104.553,-189.697
1.338,1.436,-1.038,-258.240,-89.172,-207.458
1.347,1.663,-0.909,-211.670,-58.533,-218.689
1.358,1.851,-0.718,-161.560,-19.653,-222.229
1.378,1.870,-0.545,-112.000,16.541,-213.867
1.396,1.888,-0.432,-68.237,43.030,-199.585
1.485,1.801,-0.310,-29.541,59.448,-176.147
1.583,1.650,-0.228,1.648,59.875,-149.231
1.586,1.559,-0.160,26.062,45.349,-121.033
1.529,1.482,-0.106,44.861,23.437,-92.834
1.497,1.329,-0.063,61.768,-1.709,-68.848
1.416,1.278,-0.047,74.646,-25.696,-51.392
1.324,1.191,0.027,82.275,-42.969,-33.386
1.216,1.101,0.062,83.801,-53.406,-17.578
1.131,1.048,0.112,82.825,-52.979,-4.456
1.067,0.989,0.152,78.918,-45.288,5.676
1.003,0.924,0.182,74.280,-33.325,12.573
0.981,0.869,0.217,70.190,-18.372,15.259
0.998,0.808,0.235,68.237,-5.066,15.747
0.999,0.757,0.257,67.383,5.615,15.991
0.994,0.709,0.283,67.078,14.160,16.418
0.996,0.653,0.301,67.200,19.836,17.700
1.020,0.603,0.326,67.871,23.071,20.325
1.048,0.558,0.330,69.092,21.729,24.658
1.071,0.519,0.343,70.801,16.418,30.212
1.104,0.475,0.360,73.547,7.568,34.302
1.131,0.408,0.362,76.660,-2.258,39.429
1.123,0.342,0.380,77.942,-12.939,47.302
1.093,0.295,0.400,77.271,-25.330,55.298
1.066,0.269,0.410,75.684,-36.743,60.730
1.021,0.242,0.372,75.684,-42.725,63.354
0.973,0.168,0.350,76.965,-45.227,67.200
0.936,0.124,0.365,73.242,-44.861,73.608
0.906,0.124,0.407,65.918,-39.795,78.613
0.899,0.153,0.446,57.129,-32.227,80.627
0.910,0.188,0.464,49.866,-24.963,80.688
0.916,0.203,0.452,44.556,-19.836,80.627
0.904,0.206,0.441,42.114,-15.747,80.017
0.904,0.208,0.446,41.504,-11.841,78.186
0.915,0.216,0.454,41.748,-8.118,75.867
0.931,0.236,0.459,42.725,-5.859,73.792
0.949,0.248,0.459,45.654,-6.897,72.205
0.985,0.251,0.452,51.270,-10.254,71.106
1.007,0.241,0.443,58.899,-15.686,71.655
1.046,0.220,0.436,65.857,-23.499,75.256
1.069,0.190,0.432,71.411,-34.668,79.834
1.054,0.143,0.452,74.585,-46.509,84.290
1.003,0.123,0.462,73.120,-54.932,87.830
0.939,0.126,0.466,68.359,-59.021,90.332
0.881,0.136,0.461,62.683,-58.838,91.736
0.826,0.155,0.454,56.946,-54.321,91.858
0.800,0.171,0.451,52.979,-45.959,90.393
0.802,0.196,0.454,51.392,-36.438,87.952
0.799,0.211,0.452,52.429,-28.259,85.815
0.805,0.227,0.451,55.054,-22.705,84.045
0.815,0.243,0.460,59.937,-19.348,83.557
0.830,0.255,0.472,66.040,-17.822,84.106
0.835,0.248,0.471,73.303,-19.043,85.205
0.819,0.222,0.456,80.505,-22.156,86.975
0.792,0.187,0.446,86.243,-25.818,88.501
0.750,0.156,0.447,89.722,-28.320,89.233
0.700,0.130,0.457,89.905,-28.503,89.050
0.655,0.113,0.462,86.182,-26.733,89.172
0.635,0.096,0.474,79.346,-23.926,89.417
0.629,0.072,0.487,70.251,-19.958,90.820
0.597,0.056,0.476,58.716,-15.625,94.421
0.537,0.051,0.450,45.654,-10.437,99.854
0.474,0.068,0.432,31.311,-3.418,105.469
0.443,0.109,0.435,18.066,5.188,109.070
0.464,0.166,0.449,9.094,12.634,109.680
0.528,0.212,0.474,7.080,16.113,106.140
0.582,0.245,0.500,11.353,14.282,99.243
0.598,0.272,0.519,19.409,7.629,91.431
0.579,0.293,0.535,29.297,-2.380,84.229
0.543,0.298,0.516,41.016,-14.893,76.843
0.502,0.285,0.504,53.894,-25.940,69.824
0.466,0.262,0.504,66.040,-33.020,64.453
0.439,0.228,0.512,75.806,-36.682,60.730
0.402,0.186,0.517,82.031,-37.354,57.739
0.383,0.140,0.524,84.839,-35.034,54.321
0.399,0.096,0.549,84.412,-30.457,50.171
0.427,0.060,0.574,81.543,-24.170,45.959
0.475,0.032,0.598,78.003,-17.395,41.809
0.536,0.014,0.629,75.562,-12.878,37.781
0.589,0.006,0.663,74.768,-11.536,35.217
0.659,-0.006,0.700,74.951,-14.832,34.058
0.729,-0.029,0.740,75.256,-21.240,35.217
0.733,-0.041,0.761,74.463,-30.701,39.001
0.698,-0.048,0.765,73.853,-41.870,43.518
0.659,-0.061,0.759,74.341,-52.185,47.546
0.610,-0.079,0.755,75.256,-59.387,49.377
0.554,-0.103,0.754,75.684,-61.157,48.584
0.529,-0.132,0.775,75.989,-57.312,44.373
0.548,-0.168,0.810,76.111,-49.072,38.330
0.566,-0.205,0.849,75.256,-39.001,33.264
0.573,-0.210,0.896,73.181,-31.799,28.198
0.609,-0.222,0.926,72.388,-27.954,23.193
0.634,-0.242,0.968,71.106,-27.588,19.470

0.584,-1.158,1.081,-58.838,66.711,-66.467
0.632,-1.346,1.060,-68.909,80.627,-76.965
0.670,-1.547,1.004,-86.182,93.445,-85.144
0.725,-1.717,0.914,-110.779,104.553,-92.285
0.716,-1.875,0.775,-142.273,113.831,-96.802
0.664,-1.933,0.602,-179.687,122.986,-98.206
0.646,-1.972,0.450,-217.773,135.254,-98.877
0.657,-2.048,0.313,-255.310,148.865,-99.915
0.693,-2.067,0.168,-292.908,164.795,-102.234
0.711,-1.947,0.006,-327.271,181.274,-107.666
0.840,-1.743,-0.104,-353.088,188.354,-117.798
1.054,-1.574,-0.196,-369.995,185.425,-127.197
1.274,-1.330,-0.262,-383.789,171.936,-135.193
1.493,-1.085,-0.286,-396.912,142.395,-140.808
1.615,-0.824,-0.350,-415.100,97.778,-139.160
1.523,-0.501,-0.538,-435.669,45.044,-127.991
1.367,-0.146,-0.840,-448.303,-11.108,-117.676
1.281,0.243,-1.143,-445.557,-61.646,-116.882
1.236,0.624,-1.332,-426.147,-96.985,-120.605
1.209,1.060,-1.429,-389.282,-115.967,-130.554
1.216,1.457,-1.423,-335.266,-121.155,-149.902
1.228,1.756,-1.361,-267.029,-117.554,-174.561
1.245,1.918,-1.247,-190.002,-105.774,-197.937
1.218,1.942,-1.137,-113.403,-85.999,-213.684
1.160,1.809,-1.037,-43.945,-57.861,-217.407
1.196,1.593,-0.912,10.925,-21.057,-211.426
1.372,1.435,-0.755,49.255,15.442,-198.242
1.467,1.259,-0.645,74.280,39.917,-178.101
1.564,1.135,-0.475,86.365,51.697,-156.006
1.632,1.129,-0.377,88.318,46.753,-131.287
1.608,1.104,-0.286,88.074,29.053,-103.821
1.523,1.084,-0.257,87.341,2.380,-78.308
1.368,1.063,-0.278,84.351,-22.095,-53.894
1.217,1.047,-0.271,80.322,-33.508,-32.654
1.101,1.048,-0.271,75.928,-34.424,-16.785
1.024,1.028,-0.255,72.632,-24.475,-5.432
1.001,1.006,-0.205,70.923,-7.690,0.793
0.990,0.960,-0.178,70.496,9.216,5.249
0.979,0.905,-0.119,70.007,26.855,8.667
0.996,0.863,-0.045,67.932,43.701,11.780
1.027,0.841,0.016,65.063,55.359,16.479
1.063,0.816,0.085,63.477,60.730,23.499
1.085,0.790,0.156,63.965,57.800,32.104
1.121,0.753,0.204,66.711,47.607,41.992
1.111,0.700,0.234,71.472,31.067,53.284
1.062,0.643,0.273,76.904,11.047,63.843
1.010,0.578,0.315,82.642,-7.202,71.228
0.966,0.509,0.364,86.670,-19.226,76.355
0.932,0.456,0.402,87.952,-26.245,77.942
0.908,0.425,0.440,88.013,-28.564,76.477
0.910,0.407,0.481,88.684,-25.635,72.876
0.936,0.382,0.521,91.064,-20.203,69.580
0.987,0.332,0.518,95.581,-14.954,68.604
0.997,0.232,0.513,100.952,-11.780,70.435
0.996,0.138,0.529,103.516,-9.033,73.792
1.022,0.071,0.568,101.685,-6.836,77.637
1.044,0.024,0.592,95.825,-8.057,80.750
1.023,0.000,0.600,86.182,-13.855,81.421
0.976,0.012,0.616,73.975,-21.912,79.346
0.931,0.052,0.618,62.317,-29.663,74.707
0.895,0.090,0.599,52.979,-36.377,69.092
0.864,0.119,0.579,45.044,-41.504,64.941
0.843,0.158,0.569,39.001,-44.983,61.401
0.833,0.195,0.548,35.950,-46.997,59.265
0.825,0.216,0.522,35.278,-49.072,59.143
0.825,0.231,0.516,36.865,-49.377,60.791
0.844,0.253,0.528,39.673,-48.462,62.927
0.855,0.298,0.519,44.617,-48.279,64.819
0.896,0.290,0.541,52.124,-50.171,67.078
0.886,0.333,0.499,61.279,-55.603,66.284
0.894,0.315,0.491,70.374,-59.692,65.857
0.897,0.274,0.493,78.491,-64.331,63.416
0.898,0.268,0.504,83.801,-68.848,58.655
0.924,0.233,0.556,86.060,-71.716,55.664
0.964,0.211,0.587,84.167,-75.378,53.589
0.991,0.221,0.619,78.918,-80.078,53.711
1.014,0.229,0.632,72.205,-84.229,57.007
1.025,0.257,0.628,67.932,-88.684,59.570
1.001,0.288,0.607,67.078,-92.346,62.805
0.942,0.301,0.573,68.970,-94.482,66.528
0.897,0.303,0.556,72.571,-93.689,70.129
0.872,0.312,0.531,77.209,-91.797,72.327
0.819,0.308,0.501,81.970,-90.698,73.730
0.772,0.302,0.486,87.891,-89.722,73.120
0.739,0.286,0.459,94.727,-89.417,71.350
0.694,0.254,0.441,100.159,-90.881,70.007
0.649,0.222,0.445,103.699,-92.468,69.275
0.608,0.208,0.448,104.065,-94.910,68.848
0.564,0.208,0.446,101.868,-97.046,69.580
0.515,0.206,0.444,98.694,-97.961,71.167
0.475,0.208,0.444,93.994,-97.656,73.669
0.452,0.213,0.446,89.478,-96.436,76.782
0.427,0.208,0.434,86.731,-95.520,79.468
0.365,0.188,0.398,85.144,-94.788,81.726
0.283,0.172,0.363,82.703,-92.407,84.534
0.235,0.146,0.343,80.688,-87.341,87.708
0.196,0.112,0.330,78.125,-80.017,89.966
0.140,0.079,0.327,72.937,-71.045,91.797
0.073,0.076,0.317,65.369,-59.937,92.407
0.051,0.048,0.326,57.434,-46.692,92.773
0.066,0.024,0.349,50.781,-33.325,90.637
0.100,0.009,0.377,45.349,-21.729,86.243
0.169,-0.027,0.417,41.870,-12.756,80.872
0.240,-0.073,0.455,40.649,-7.019,75.562
0.294,-0.104,0.503,40.894,-4.578,71.960
0.347,-0.124,0.571,40.649,-4.089,72.571
0.391,-0.168,0.630,39.795,-5.066,79.041
0.443,-0.217,0.688,36.499,-10.376,87.036
0.490,-0.252,0.750,30.457,-18.799,95.276
0.481,-0.285,0.795,22.156,-26.611,105.347
0.443,-0.306,0.826,13.123,-31.311,111.877
0.423,-0.295,0.853,4.028,-29.724,111.877
0.466,-0.291,0.880,-2.747,-23.682,107.178
0.518,-0.283,0.906,-5.127,-17.090,93.933
0.534,-0.262,0.927,-5.005,-11.536,75.684
0.565,-0.221,0.976,-2.502,-7.263,57.190
0.606,-0.167,1.026,5.920,-4.944,39.246
0.647,-0.136,1.073,19.592,-6.836,22.949
0.671,-0.126,1.116,36.316,-10.376,10.559

0.533,-0.839,1.299,-3.845,5.737,-33.691
0.502,-0.966,1.310,-9.766,7.019,-36.133
0.424,-1.122,1.277,-20.813,11.963,-38.147
0.346,-1.273,1.206,-39.063,21.423,-41.626
0.344,-1.416,1.109,-63.599,35.767,-48.157
0.384,-1.513,0.976,-92.102,54.016,-60.913
0.452,-1.563,0.821,-121.155,76.355,-77.637
0.544,-1.635,0.673,-150.208,100.342,-95.947
0.649,-1.723,0.538,-178.345,122.498,-115.540
0.735,-1.818,0.376,-204.163,141.113,-135.071
0.831,-1.802,0.211,-234.070,156.372,-152.527
0.920,-1.667,0.056,-268.616,166.443,-163.452
1.007,-1.482,-0.086,-300.720,165.955,-170.044
1.097,-1.276,-0.242,-325.684,153.687,-174.988
1.167,-1.090,-0.367,-341.614,134.644,-177.063
1.206,-0.886,-0.432,-348.999,111.694,-175.781
1.222,-0.633,-0.460,-346.741,84.351,-172.668
1.241,-0.369,-0.462,-333.740,53.040,-172.546
1.283,-0.077,-0.459,-312.256,23.987,-179.321
1.334,0.155,-0.461,-284.058,0.122,-190.735
1.286,0.481,-0.458,-254.578,-20.447,-202.637
1.202,0.707,-0.481,-223.755,-37.720,-205.994
1.153,0.889,-0.499,-191.101,-46.814,-209.778
1.157,1.088,-0.449,-160.095,-43.640,-213.806
1.220,1.277,-0.376,-127.991,-32.959,-213.074
1.269,1.381,-0.365,-93.262,-19.958,-211.548
1.323,1.476,-0.311,-59.265,-3.357,-208.679
1.394,1.518,-0.227,-26.611,15.320,-199.890
1.437,1.566,-0.081,1.648,28.198,-185.608
1.430,1.519,0.026,24.841,31.860,-162.598
1.440,1.453,0.135,40.588,25.513,-139.160
1.438,1.424,0.214,49.988,10.803,-116.516
1.357,1.378,0.210,55.481,-8.362,-95.581
1.296,1.237,0.231,58.228,-25.391,-78.674
1.183,1.164,0.190,55.969,-38.940,-67.383
1.073,1.126,0.183,50.415,-44.128,-56.335
0.954,1.065,0.204,44.312,-39.246,-45.593
0.884,1.000,0.241,37.231,-24.719,-35.583
0.862,0.976,0.302,29.785,-7.202,-27.527
0.842,0.940,0.327,22.949,8.606,-18.738
0.871,0.861,0.380,17.151,23.865,-10.986
0.896,0.817,0.396,11.475,32.227,-5.737
0.898,0.790,0.374,7.385,33.264,-1.099
0.923,0.757,0.401,5.981,31.982,3.662
0.949,0.740,0.411,8.423,27.222,7.019
0.966,0.700,0.420,14.832,18.250,12.085
0.990,0.637,0.470,22.705,7.385,18.250
0.996,0.573,0.516,30.090,-2.930,23.926
0.978,0.526,0.545,36.011,-10.681,29.236
0.975,0.456,0.532,41.748,-15.930,34.241
0.994,0.354,0.530,46.936,-19.958,40.405
1.001,0.264,0.556,46.936,-22.766,47.119
1.022,0.203,0.609,42.114,-23.865,54.077
1.051,0.158,0.653,34.668,-26.306,61.218
1.039,0.141,0.658,26.367,-32.288,66.284
1.003,0.134,0.654,18.921,-38.269,68.542
0.942,0.154,0.628,12.634,-42.786,68.665
0.872,0.175,0.613,8.728,-42.053,68.359
0.813,0.192,0.608,6.653,-38.086,68.054
0.777,0.190,0.592,5.249,-33.203,67.505
0.763,0.177,0.576,5.615,-28.137,65.979
0.767,0.171,0.576,8.911,-23.132,63.782
0.780,0.173,0.581,13.000,-20.142,62.073
0.810,0.163,0.594,16.663,-19.470,60.547
0.812,0.177,0.603,21.301,-18.799,59.631
0.806,0.187,0.605,27.283,-17.944,59.692
0.802,0.175,0.610,33.081,-17.212,62.012
0.798,0.175,0.611,37.109,-17.029,65.308
0.806,0.177,0.622,40.527,-17.700,68.359
0.801,0.172,0.614,43.457,-19.104,70.801
0.789,0.169,0.605,44.067,-22.278,72.754
0.777,0.172,0.599,44.495,-25.940,73.181
0.784,0.174,0.583,44.556,-29.175,71.533
0.790,0.165,0.573,44.617,-32.776,70.313
0.776,0.152,0.568,43.762,-37.292,70.679
0.770,0.153,0.584,42.114,-41.626,71.716
0.756,0.162,0.599,40.283,-44.556,73.364
0.731,0.196,0.619,39.429,-45.593,74.585
0.729,0.207,0.639,40.283,-44.678,77.637
0.724,0.199,0.642,42.542,-42.603,81.177
0.713,0.193,0.649,44.189,-39.856,84.595
0.707,0.197,0.656,45.105,-36.011,87.341
0.690,0.197,0.654,45.288,-32.349,88.867
0.677,0.198,0.651,45.288,-28.992,88.684
0.671,0.197,0.651,44.434,-25.818,87.036
0.667,0.210,0.648,44.800,-24.414,84.656
0.665,0.201,0.641,45.898,-24.963,82.581
0.668,0.181,0.652,46.143,-26.978,82.214
0.680,0.169,0.666,45.044,-30.151,83.618
0.690,0.162,0.685,44.922,-34.790,85.449
0.698,0.150,0.704,45.776,-40.039,87.219
0.681,0.130,0.722,47.119,-46.448,88.562
0.645,0.121,0.739,47.119,-51.941,89.661
0.637,0.101,0.771,46.021,-56.030,90.393
0.621,0.090,0.769,44.556,-58.594,89.905
0.572,0.093,0.763,43.823,-58.228,88.684
0.527,0.084,0.756,43.457,-53.650,87.463
0.503,0.079,0.745,42.542,-45.715,85.571
0.487,0.088,0.738,40.771,-35.645,82.825
0.482,0.098,0.736,38.513,-25.085,79.651
0.487,0.104,0.730,36.194,-15.991,76.294
0.481,0.114,0.718,33.447,-9.583,73.486
0.470,0.128,0.706,31.128,-6.042,71.655
0.451,0.146,0.689,29.785,-5.371,70.557
0.429,0.155,0.671,29.785,-6.592,69.763
0.429,0.157,0.664,31.555,-8.911,68.726
0.423,0.165,0.658,35.278,-12.329,66.956
0.443,0.166,0.670,39.490,-16.724,64.331
0.469,0.162,0.688,44.922,-22.217,61.157
0.480,0.134,0.714,51.331,-28.687,57.495
0.480,0.102,0.736,55.481,-34.851,55.237
0.456,0.090,0.740,55.542,-39.917,55.420
0.420,0.079,0.729,52.185,-43.518,57.312
0.375,0.071,0.712,46.936,-43.701,60.364
0.328,0.072,0.685,39.978,-40.344,63.538
0.278,0.080,0.660,32.471,-34.119,65.308
0.250,0.088,0.644,26.001,-25.452,64.819
0.243,0.093,0.639,22.949,-15.259,61.646
0.242,0.105,0.646,23.499,-5.737,56.641

0.273,-1.373,1.015,-83.557,48.767,-56.091
0.348,-1.553,0.938,-103.088,68.481,-69.763
0.404,-1.756,0.810,-128.479,92.285,-84.106
0.529,-1.923,0.683,-160.156,120.117,-99.426
0.712,-1.990,0.545,-194.946,149.353,-117.065
0.865,-1.989,0.405,-232.300,173.279,-131.592
0.970,-1.949,0.266,-270.325,187.378,-141.541
1.096,-1.867,0.135,-304.749,191.345,-150.085
1.217,-1.778,0.013,-331.055,186.829,-156.982
1.290,-1.623,-0.098,-350.220,173.584,-163.208
1.342,-1.351,-0.182,-364.197,151.978,-167.847
1.392,-1.040,-0.219,-371.643,123.413,-169.189
1.426,-0.758,-0.269,-373.596,88.135,-167.419
1.404,-0.467,-0.374,-370.544,47.302,-164.795
1.345,-0.172,-0.505,-361.572,6.958,-166.504
1.291,0.117,-0.637,-348.145,-28.015,-173.096
1.246,0.425,-0.755,-330.078,-54.626,-182.922
1.183,0.722,-0.858,-305.786,-70.557,-193.665
1.115,0.998,-0.955,-276.123,-76.416,-201.355
1.076,1.238,-1.010,-241.272,-75.012,-206.299
1.090,1.432,-0.997,-202.759,-64.819,-209.534
1.159,1.619,-0.916,-160.767,-46.143,-209.961
1.240,1.772,-0.771,-115.601,-25.024,-206.116
1.300,1.831,-0.607,-69.214,-9.705,-193.848
1.347,1.823,-0.448,-23.804,-4.028,-175.232
1.404,1.780,-0.306,16.846,-6.042,-153.625
1.417,1.704,-0.192,52.917,-13.855,-129.761
1.388,1.623,-0.092,81.970,-26.001,-104.492
1.335,1.535,0.007,103.516,-40.344,-80.261
1.274,1.456,0.102,117.554,-53.162,-59.021
1.196,1.362,0.179,125.793,-62.866,-41.321
1.090,1.252,0.227,127.930,-69.946,-26.062
0.985,1.141,0.268,123.047,-72.388,-11.902
0.883,1.045,0.304,112.854,-70.618,-0.366
0.797,1.000,0.324,101.196,-64.880,7.812
0.748,0.957,0.329,91.919,-53.955,12.329
0.684,0.924,0.356,85.205,-38.025,14.709
0.681,0.980,0.440,80.139,-17.151,16.785
0.824,0.914,0.560,79.285,-1.038,23.315
0.812,0.698,0.463,78.613,0.916,21.179
0.667,0.758,0.496,72.205,9.338,12.207
0.672,0.719,0.514,68.848,25.146,19.531
0.774,0.591,0.463,65.674,39.124,28.259
0.849,0.486,0.601,62.500,52.979,29.480
0.967,0.515,0.689,56.519,47.974,29.480
1.054,0.434,0.665,49.744,26.001,36.926
1.053,0.365,0.696,42.053,8.240,42.908
1.011,0.352,0.660,34.424,-8.606,48.584
0.967,0.351,0.636,31.738,-19.287,52.429
0.949,0.359,0.648,33.630,-22.156,53.162
0.977,0.375,0.718,37.903,-23.193,54.260
1.009,0.355,0.736,42.419,-29.724,56.641
0.967,0.305,0.704,46.814,-35.889,58.594
0.927,0.292,0.700,50.537,-36.194,60.852
0.934,0.278,0.677,54.504,-36.621,63.965
0.927,0.227,0.649,57.739,-39.673,69.214
0.890,0.179,0.648,57.434,-41.077,75.378
0.857,0.175,0.640,53.284,-41.687,78.979
0.861,0.190,0.636,47.668,-41.016,80.933
0.869,0.203,0.660,43.152,-40.222,81.238
0.852,0.206,0.658,39.246,-42.847,80.811
0.829,0.224,0.644,36.621,-46.143,79.468
0.826,0.229,0.643,37.048,-48.462,77.637
0.805,0.235,0.621,40.466,-51.147,75.134
0.778,0.235,0.609,45.654,-52.612,73.608
0.776,0.219,0.601,52.002,-52.429,73.730
0.766,0.193,0.584,57.922,-51.392,76.294
0.741,0.165,0.561,62.683,-49.805,80.688
0.716,0.125,0.542,65.002,-48.035,85.571
0.688,0.104,0.536,65.125,-43.823,89.661
0.654,0.104,0.537,62.500,-36.865,92.163
0.624,0.111,0.538,58.594,-28.381,93.323
0.628,0.110,0.545,54.138,-19.226,92.529
0.634,0.109,0.552,50.232,-11.536,89.050
0.634,0.125,0.559,45.959,-5.981,85.205
0.645,0.137,0.562,42.358,-3.174,82.336
0.687,0.136,0.570,39.978,-2.441,80.200
0.713,0.142,0.584,39.673,-3.845,79.224
0.702,0.152,0.596,40.588,-6.226,79.773
0.675,0.151,0.594,42.358,-9.338,81.726
0.638,0.141,0.583,43.884,-11.658,84.106
0.596,0.134,0.562,45.288,-11.780,85.632
0.548,0.131,0.539,46.204,-9.644,85.388
0.503,0.130,0.517,49.255,-4.822,82.275
0.486,0.132,0.508,54.871,2.625,76.233
0.481,0.122,0.501,64.026,13.550,67.871
0.501,0.083,0.506,76.721,27.527,57.373
0.550,0.102,0.543,89.905,41.748,46.082
0.590,0.045,0.562,101.074,51.453,37.048
0.615,0.060,0.586,108.643,55.237,25.879
0.652,0.021,0.621,114.258,52.795,20.752
0.637,-0.003,0.605,116.638,44.189,15.198
0.631,-0.034,0.674,117.798,36.926,11.292
0.605,-0.024,0.682,116.333,24.048,8.728
0.560,-0.041,0.679,112.854,9.460,10.498
0.517,-0.060,0.679,108.154,-2.319,13.672
0.474,-0.109,0.657,101.807,-12.878,20.386
0.384,-0.139,0.610,94.177,-18.860,25.818
0.322,-0.135,0.609,87.097,-15.442,29.480
0.340,-0.176,0.633,80.383,-7.019,33.752
0.365,-0.201,0.647,72.571,1.343,35.706
0.371,-0.212,0.659,64.636,8.728,36.682
0.401,-0.226,0.690,56.885,15.991,37.048
0.433,-0.235,0.715,47.913,21.790,38.330
0.453,-0.240,0.727,38.574,23.926,39.917
0.477,-0.241,0.732,29.541,20.996,41.138
0.491,-0.247,0.732,21.606,12.695,42.358
0.485,-0.259,0.725,15.198,1.221,43.152
0.479,-0.277,0.713,10.925,-9.766,42.480
0.486,-0.307,0.716,9.216,-17.517,40.100
0.503,-0.329,0.718,8.423,-21.851,35.645
0.542,-0.347,0.729,7.568,-22.888,30.396
0.600,-0.382,0.752,8.362,-19.470,24.658
0.668,-0.419,0.784,10.376,-12.146,18.982
0.729,-0.426,0.812,11.902,-4.333,14.343
0.786,-0.418,0.833,13.855,2.380,11.841
0.874,-0.424,0.876,16.663,7.812,11.292
0.970,-0.441,0.923,17.761,11.108,12.512
1.013,-0.442,0.961,15.198,9.033,16.052

0.490,-0.976,1.115,1.648,25.574,-26.245
0.500,-1.244,1.122,-2.136,36.133,-31.250
0.427,-1.506,1.040,-14.709,47.180,-39.673
0.310,-1.837,0.904,-39.307,66.956,-52.490
0.368,-1.870,0.927,-74.951,94.177,-64.819
0.494,-1.886,0.708,-116.516,108.765,-70.618
0.525,-1.859,0.531,-156.982,128.052,-79.773
0.535,-1.772,0.397,-193.115,150.330,-91.614
0.578,-1.735,0.176,-224.915,169.556,-105.408
0.665,-1.689,-0.043,-252.869,193.420,-121.277
0.889,-1.442,-0.040,-274.536,223.877,-134.888
1.118,-1.352,-0.059,-285.889,237.793,-140.076
1.245,-1.262,-0.123,-294.556,227.234,-147.644
1.311,-1.138,-0.159,-299.194,207.458,-147.766
1.319,-0.909,-0.194,-300.110,180.298,-143.433
1.335,-0.663,-0.225,-295.288,145.264,-133.850
1.305,-0.419,-0.229,-285.034,104.370,-125.366
1.246,-0.219,-0.259,-269.470,62.073,-119.263
1.122,0.010,-0.328,-250.366,23.621,-119.080
1.033,0.247,-0.379,-229.248,-7.202,-122.009
1.013,0.481,-0.416,-203.918,-29.724,-129.578
1.062,0.688,-0.457,-174.011,-43.640,-143.860
1.129,0.886,-0.461,-143.250,-46.875,-161.987
1.188,1.079,-0.415,-115.601,-42.603,-178.040
1.244,1.227,-0.372,-90.332,-34.546,-189.026
1.327,1.269,-0.367,-68.909,-22.827,-194.946
1.455,1.313,-0.315,-55.115,-5.676,-195.374
1.547,1.344,-0.245,-48.889,10.864,-185.852
1.680,1.304,-0.146,-45.593,18.188,-171.082
1.750,1.255,-0.160,-44.250,12.390,-157.288
1.671,1.273,-0.212,-45.837,4.272,-140.015
1.558,1.245,-0.214,-47.058,1.038,-115.906
1.531,1.236,-0.196,-45.959,-0.244,-91.614
1.454,1.246,-0.183,-43.274,-5.249,-70.313
1.315,1.197,-0.199,-40.649,-10.742,-47.791
1.208,1.131,-0.175,-38.879,-10.925,-27.405
1.088,1.136,-0.184,-36.377,-9.338,-12.878
1.039,1.068,-0.132,-31.494,-4.456,0.061
1.022,1.004,-0.109,-25.085,-1.770,9.460
0.994,0.919,-0.098,-18.188,-0.793,18.616
0.938,0.827,-0.083,-11.658,1.465,26.489
0.926,0.786,-0.004,-5.188,5.554,31.860
0.933,0.739,0.050,2.197,8.240,36.499
0.939,0.666,0.092,9.399,8.606,39.673
0.976,0.601,0.163,16.052,7.507,41.687
1.023,0.515,0.221,21.912,3.967,43.884
1.045,0.446,0.276,25.513,0.488,46.448
1.081,0.412,0.311,27.649,-2.563,50.415
1.142,0.410,0.330,30.579,-8.057,54.199
1.163,0.397,0.355,33.813,-12.390,57.800
1.135,0.382,0.372,36.926,-15.015,60.547
1.103,0.380,0.372,41.504,-16.479,62.500
1.098,0.384,0.380,48.340,-16.357,62.744
1.082,0.369,0.395,57.129,-15.747,62.622
1.047,0.346,0.392,66.711,-15.381,62.317
1.027,0.336,0.396,75.500,-13.977,60.974
1.013,0.320,0.399,83.984,-11.597,60.181
1.016,0.269,0.396,92.041,-10.864,60.120
1.045,0.223,0.419,97.656,-11.292,61.707
1.049,0.194,0.430,100.281,-13.123,64.331
1.044,0.172,0.429,101.624,-15.686,65.613
1.074,0.134,0.457,102.539,-17.944,66.467
1.103,0.115,0.489,103.149,-21.057,68.115
1.116,0.093,0.514,102.844,-28.381,71.594
1.111,0.073,0.534,101.379,-37.415,76.965
1.093,0.049,0.540,99.487,-46.753,81.604
1.028,0.028,0.522,96.558,-54.688,84.595
0.946,0.017,0.501,93.628,-59.570,84.412
0.895,0.018,0.497,91.309,-61.768,81.421
0.876,0.033,0.486,90.820,-63.965,76.172
0.867,0.038,0.471,92.346,-67.627,70.190
0.860,0.034,0.467,96.130,-71.777,64.331
0.875,0.022,0.479,100.464,-76.721,59.326
0.896,0.010,0.501,104.126,-83.069,57.251
0.882,-0.001,0.506,105.347,-91.064,59.814
0.859,-0.026,0.501,104.553,-99.854,65.063
0.864,-0.052,0.500,101.990,-107.178,71.472
0.841,-0.078,0.501,98.450,-112.366,76.965
0.795,-0.089,0.505,92.529,-115.173,81.421
0.745,-0.094,0.503,85.571,-116.028,84.900
0.695,-0.096,0.504,78.796,-115.356,86.975
0.635,-0.091,0.504,72.327,-112.366,87.646
0.603,-0.092,0.513,66.223,-107.300,86.792
0.586,-0.086,0.532,61.462,-101.135,83.984
0.552,-0.068,0.545,57.251,-95.154,80.139
0.514,-0.052,0.556,54.077,-89.905,76.599
0.488,-0.041,0.561,51.453,-84.961,74.463
0.455,-0.031,0.562,49.438,-80.139,72.937
0.442,-0.030,0.574,48.157,-76.050,71.777
0.493,-0.060,0.613,47.668,-71.960,71.777
0.539,-0.088,0.643,47.913,-69.214,71.350
0.539,-0.091,0.661,49.194,-68.787,69.214
0.545,-0.090,0.685,49.377,-68.726,67.932
0.561,-0.099,0.700,47.424,-68.542,67.993
0.546,-0.092,0.685,44.922,-68.298,67.688
0.505,-0.078,0.666,41.809,-66.284,67.566
0.455,-0.062,0.640,38.452,-61.157,67.749
0.390,-0.040,0.610,35.645,-52.551,67.505
0.357,-0.031,0.597,34.424,-40.466,66.711
0.385,-0.045,0.612,36.987,-26.001,63.904
0.417,-0.063,0.642,41.504,-11.902,59.082
0.423,-0.073,0.687,44.678,-1.099,56.519
0.452,-0.093,0.728,45.837,4.639,55.908
0.496,-0.123,0.758,46.570,5.371,56.213
0.524,-0.145,0.786,45.776,1.648,56.763
0.519,-0.146,0.801,43.884,-5.371,56.519
0.491,-0.136,0.797,41.504,-14.404,54.871
0.449,-0.166,0.790,38.147,-22.156,52.979
0.415,-0.147,0.802,33.997,-26.062,49.683
0.398,-0.162,0.809,29.541,-28.198,48.035
0.383,-0.213,0.821,25.330,-25.879,47.485
0.394,-0.136,0.872,20.569,-20.630,44.983
0.425,-0.198,0.856,18.127,-16.846,45.959
0.447,-0.229,0.885,17.517,-10.864,42.542
0.435,-0.212,0.882,18.372,-5.371,38.452
0.501,-0.235,0.963,20.264,-0.061,35.950
0.526,-0.230,0.939,19.226,-3.235,32.959
0.481,-0.245,0.930,16.418,-7.080,31.677
0.457,-0.256,0.931,13.184,-7.446,31.372

0.570,-0.857,1.210,16.846,-12.756,-13.916
0.546,-0.929,1.228,9.460,-17.700,-18.616
0.527,-1.007,1.235,0.549,-16.663,-25.024
0.511,-1.119,1.231,-10.498,-8.362,-33.142
0.492,-1.259,1.192,-26.367,7.812,-42.419
0.430,-1.414,1.081,-50.415,33.264,-51.208
0.393,-1.553,0.896,-83.252,68.298,-61.096
0.457,-1.669,0.672,-122.925,112.122,-72.449
0.576,-1.752,0.446,-166.931,156.738,-84.229
0.688,-1.850,0.214,-213.074,193.176,-95.703
0.764,-1.933,-0.029,-256.592,217.163,-107.300
0.869,-1.932,-0.273,-296.509,231.384,-121.582
1.011,-1.778,-0.509,-329.712,241.150,-135.620
1.111,-1.571,-0.687,-351.196,245.667,-149.536
1.133,-1.388,-0.803,-362.427,243.652,-159.912
1.079,-1.156,-0.865,-370.178,237.610,-164.246
1.053,-0.934,-0.910,-374.817,227.295,-165.710
1.117,-0.715,-0.941,-376.526,214.966,-167.664
1.282,-0.483,-0.953,-375.183,199.097,-172.241
1.481,-0.273,-0.952,-371.643,174.561,-177.917
1.627,-0.102,-1.008,-368.225,137.939,-182.983
1.627,0.098,-1.132,-364.319,93.262,-189.148
1.589,0.312,-1.279,-357.300,55.603,-195.740
1.546,0.536,-1.415,-345.459,34.668,-200.195
1.506,0.759,-1.492,-327.026,30.273,-200.012
1.474,0.991,-1.513,-302.612,38.452,-194.275
1.464,1.211,-1.471,-271.667,54.504,-185.608
1.456,1.376,-1.376,-236.084,72.754,-174.744
1.419,1.533,-1.277,-196.228,87.646,-162.476
1.405,1.663,-1.109,-151.367,99.121,-150.635
1.475,1.721,-0.864,-104.736,104.675,-138.794
1.553,1.713,-0.637,-58.289,96.985,-124.695
1.569,1.649,-0.477,-14.160,74.951,-106.995
1.538,1.527,-0.362,24.719,42.480,-88.135
1.502,1.373,-0.286,55.176,7.690,-70.190
1.462,1.207,-0.229,73.792,-21.118,-51.819
1.385,1.087,-0.179,81.177,-41.931,-35.278
1.300,0.975,-0.147,82.031,-55.664,-20.081
1.227,0.938,-0.084,77.393,-60.364,-6.348
1.234,0.891,-0.005,71.289,-57.556,9.155
1.316,0.805,0.034,63.416,-51.941,22.583
0.988,0.579,0.007,49.255,-45.105,25.085
0.986,0.853,0.073,30.701,-26.184,19.958
1.004,0.571,-0.057,27.344,-2.136,36.316
1.121,0.664,0.151,17.517,18.982,31.799
1.162,0.681,0.156,11.169,22.095,38.574
1.250,0.611,0.162,10.254,13.611,49.133
1.242,0.603,0.145,11.780,-1.099,54.993
1.233,0.586,0.128,18.250,-16.602,59.143
1.258,0.565,0.141,28.870,-31.006,61.768
1.228,0.528,0.148,40.344,-45.166,64.087
1.163,0.425,0.151,52.307,-55.542,66.956
1.140,0.422,0.171,62.256,-61.707,66.589
1.102,0.372,0.139,70.679,-67.444,70.374
1.026,0.303,0.138,77.637,-68.054,72.693
0.993,0.298,0.141,82.458,-64.941,71.411
0.972,0.259,0.170,86.304,-59.021,71.533
0.988,0.247,0.221,87.952,-54.688,69.641
1.038,0.234,0.251,87.402,-54.016,68.665
1.045,0.216,0.273,85.876,-56.091,69.397
1.020,0.215,0.260,83.069,-60.608,70.801
1.050,0.211,0.276,80.261,-65.125,74.097
1.065,0.211,0.277,76.965,-70.923,77.759
1.032,0.232,0.258,74.829,-76.294,80.261
1.013,0.248,0.244,74.646,-79.346,81.360
0.988,0.236,0.216,75.745,-79.834,82.153
0.952,0.244,0.213,77.087,-76.050,81.909
0.909,0.253,0.198,78.430,-68.481,80.505
0.891,0.241,0.196,79.346,-58.289,78.796
0.881,0.256,0.205,79.590,-46.570,75.073
0.868,0.261,0.213,79.346,-35.217,70.984
0.896,0.250,0.233,78.735,-24.353,67.322
0.928,0.255,0.234,77.759,-17.334,63.904
0.991,0.255,0.253,76.355,-14.038,62.195
1.062,0.263,0.268,75.439,-17.090,61.279
1.079,0.284,0.264,76.050,-27.405,60.364
1.085,0.286,0.256,79.041,-41.260,60.913
1.069,0.275,0.245,82.886,-55.542,63.660
1.011,0.261,0.234,86.121,-68.237,67.688
0.947,0.243,0.229,86.609,-76.050,71.838
0.885,0.229,0.231,85.266,-78.247,75.073
0.849,0.237,0.236,82.642,-76.233,76.721
0.813,0.245,0.231,80.017,-74.463,77.332
0.760,0.239,0.210,77.759,-72.693,76.355
0.725,0.241,0.207,76.965,-68.359,74.280
0.731,0.244,0.225,76.294,-61.707,72.937
0.751,0.252,0.238,75.684,-58.228,72.876
0.748,0.248,0.251,75.684,-58.960,73.730
0.750,0.250,0.259,76.172,-61.768,74.280
0.755,0.251,0.276,77.637,-66.650,74.951
0.787,0.268,0.306,80.444,-74.280,76.050
0.771,0.279,0.318,83.862,-86.243,77.393
0.714,0.275,0.307,88.196,-99.487,78.430
0.652,0.265,0.302,92.712,-110.596,78.857
0.638,0.266,0.309,96.741,-119.385,79.407
0.584,0.262,0.294,100.586,-128.601,79.834
0.508,0.247,0.282,105.530,-134.583,79.285
0.493,0.228,0.297,110.291,-135.315,79.468
0.489,0.200,0.321,114.136,-134.949,81.238
0.452,0.150,0.354,115.051,-134.094,83.801
0.436,0.133,0.375,112.122,-132.935,86.670
0.414,0.118,0.395,107.727,-131.470,89.111
0.372,0.106,0.424,102.356,-128.235,90.088
0.326,0.091,0.478,96.802,-119.385,91.003
0.292,0.087,0.527,92.102,-103.149,91.431
0.271,0.061,0.561,89.233,-81.787,91.431
0.241,0.087,0.599,87.341,-57.495,89.783
0.225,0.051,0.595,85.876,-32.532,92.041
0.272,0.025,0.683,85.327,-6.592,92.529
0.319,-0.016,0.668,85.022,13.123,90.515
0.330,-0.044,0.696,84.839,25.452,85.510
0.376,-0.119,0.755,85.510,35.706,80.017
0.477,-0.175,0.836,83.374,38.574,72.754
0.548,-0.204,0.906,77.148,30.090,64.880
0.578,-0.234,0.941,68.359,12.939,57.617
0.587,-0.240,0.957,59.570,-4.150,51.636
0.561,-0.233,0.962,53.162,-18.494,46.387
0.504,-0.234,0.946,49.744,-27.771,41.870
0.464,-0.240,0.949,48.950,-28.442,36.804

0.860,-0.779,1.094,-32.410,21.423,-28.259
0.868,-0.865,1.103,-34.058,12.512,-30.457
0.866,-0.964,1.100,-40.161,7.996,-32.654
0.858,-1.044,1.073,-51.392,9.644,-34.424
0.806,-1.097,1.005,-67.688,17.334,-36.194
0.767,-1.162,0.912,-87.830,29.846,-38.696
0.765,-1.221,0.807,-109.741,45.532,-40.955
0.789,-1.225,0.688,-134.460,60.486,-41.748
0.869,-1.273,0.552,-158.081,69.153,-44.739
0.980,-1.269,0.426,-176.270,68.970,-53.040
1.093,-1.187,0.348,-189.148,62.500,-60.974
1.134,-1.073,0.257,-197.327,49.805,-69.031
1.146,-0.975,0.175,-198.975,36.987,-78.918
1.165,-0.859,0.152,-193.970,28.809,-89.844
1.166,-0.748,0.158,-186.340,25.146,-99.243
1.136,-0.628,0.159,-180.237,24.170,-106.812
1.146,-0.518,0.141,-179.382,26.733,-113.892
1.162,-0.420,0.115,-184.753,31.128,-118.469
1.103,-0.303,0.033,-194.763,34.119,-120.056
1.078,-0.181,-0.042,-205.566,34.729,-124.084
1.065,-0.041,-0.097,-215.942,37.598,-129.639
1.032,0.132,-0.166,-224.487,40.955,-137.207
1.003,0.321,-0.224,-229.858,43.274,-146.484
0.988,0.508,-0.275,-230.042,45.166,-156.311
0.964,0.664,-0.309,-224.304,46.387,-164.307
0.930,0.798,-0.336,-214.294,46.509,-168.762
0.909,0.910,-0.349,-201.050,46.326,-170.105
0.900,1.016,-0.358,-184.814,46.448,-168.030
0.875,1.102,-0.372,-166.565,46.936,-163.208
0.851,1.164,-0.379,-147.888,49.683,-157.166
0.849,1.207,-0.372,-129.822,56.519,-151.489
0.893,1.248,-0.339,-113.037,65.796,-145.508
0.950,1.281,-0.274,-97.229,72.205,-137.939
0.975,1.295,-0.209,-82.214,72.388,-129.028
0.977,1.282,-0.141,-68.237,67.810,-118.652
0.974,1.249,-0.079,-56.152,59.021,-106.384
1.014,1.221,-0.007,-46.570,45.898,-93.384
1.010,1.187,0.036,-38.452,28.137,-79.834
0.959,1.145,0.039,-30.884,7.690,-66.956
0.897,1.105,0.040,-23.193,-8.179,-55.969
0.846,1.062,0.056,-15.015,-15.869,-47.974
0.798,1.022,0.084,-6.165,-13.733,-42.725
0.759,0.971,0.125,3.601,-2.808,-39.001
0.748,0.912,0.177,12.329,14.893,-34.546
0.788,0.829,0.231,18.677,34.363,-28.931
0.888,0.768,0.304,21.606,49.622,-21.545
1.009,0.706,0.365,21.423,54.016,-12.207
1.041,0.660,0.373,19.104,46.143,-3.479
0.991,0.640,0.349,16.724,31.677,5.737
0.989,0.569,0.334,16.296,18.372,14.465
1.061,0.638,0.490,17.700,5.310,18.066
1.049,0.601,0.448,19.592,-20.447,26.184
1.024,0.541,0.431,21.545,-42.847,32.471
0.966,0.538,0.394,24.658,-56.152,34.851
0.893,0.510,0.344,31.067,-58.777,35.217
0.823,0.445,0.322,39.063,-48.035,33.142
0.859,0.468,0.380,47.058,-28.442,26.367
0.951,0.463,0.425,54.688,-10.986,22.156
1.038,0.413,0.461,61.768,-1.709,20.996
1.017,0.379,0.402,68.054,-1.282,20.508
1.037,0.361,0.429,75.317,0.122,20.630
1.150,0.375,0.510,81.421,-1.099,23.254
1.191,0.334,0.503,86.365,-14.160,29.297
1.161,0.302,0.500,89.844,-30.762,32.959
1.107,0.309,0.496,91.797,-43.945,36.255
1.058,0.325,0.482,93.933,-53.223,40.833
1.010,0.340,0.475,96.191,-57.251,45.410
0.959,0.335,0.462,98.511,-56.580,49.805
0.918,0.317,0.462,100.708,-52.185,54.504
0.906,0.310,0.445,101.685,-47.058,58.533
0.918,0.307,0.439,103.088,-42.297,60.120
0.936,0.312,0.442,105.408,-39.795,59.326
0.948,0.306,0.412,108.887,-40.466,58.960
0.950,0.276,0.399,112.793,-44.373,59.143
0.937,0.248,0.405,115.540,-49.988,58.289
0.931,0.230,0.413,116.638,-54.749,55.664
0.920,0.234,0.417,117.188,-58.533,52.246
0.901,0.242,0.416,118.591,-62.012,49.683
0.898,0.228,0.423,121.155,-64.392,48.767
0.898,0.207,0.426,123.596,-64.758,49.927
0.891,0.188,0.426,125.793,-64.758,52.795
0.880,0.166,0.425,127.686,-64.514,57.678
0.861,0.144,0.415,129.395,-64.026,62.927
0.815,0.107,0.405,129.944,-62.561,68.054
0.781,0.085,0.408,128.479,-59.753,73.242
0.749,0.065,0.416,125.366,-57.068,77.759
0.711,0.042,0.428,121.216,-54.749,80.383
0.676,0.030,0.439,115.601,-53.223,81.177
0.671,0.008,0.460,108.704,-52.124,80.322
0.684,-0.018,0.480,101.318,-51.697,78.247
0.662,-0.017,0.477,93.445,-53.955,75.317
0.645,-0.025,0.481,85.693,-57.556,73.486
0.641,-0.038,0.496,77.637,-61.646,72.571
0.654,-0.047,0.508,69.702,-65.369,72.327
0.657,-0.054,0.527,63.354,-69.092,72.021
0.641,-0.061,0.536,57.922,-72.693,72.266
0.620,-0.061,0.533,52.673,-75.623,73.425
0.586,-0.055,0.526,49.500,-77.026,74.829
0.559,-0.063,0.534,47.485,-76.111,75.928
0.535,-0.065,0.542,46.387,-74.219,76.477
0.497,-0.067,0.542,45.166,-71.899,76.233
0.461,-0.075,0.545,44.312,-68.848,74.890
0.438,-0.095,0.551,43.213,-64.697,72.937
0.426,-0.107,0.567,42.419,-59.509,70.374
0.406,-0.144,0.570,42.236,-54.138,67.017
0.432,-0.170,0.604,40.894,-47.363,61.523
0.475,-0.181,0.623,39.185,-41.382,59.021
0.521,-0.253,0.660,37.598,-35.339,56.763
0.591,-0.287,0.706,35.889,-29.785,51.819
0.685,-0.286,0.757,34.485,-27.161,47.424
0.738,-0.336,0.774,33.813,-26.917,46.387
0.726,-0.352,0.784,34.302,-27.161,42.969
0.705,-0.345,0.781,36.011,-25.879,39.124
0.677,-0.342,0.768,37.476,-22.888,35.400
0.647,-0.335,0.769,38.025,-15.564,32.471
0.631,-0.342,0.786,38.208,-7.874,31.067
0.632,-0.336,0.776,37.170,-2.197,29.114
0.659,-0.350,0.785,35.095,2.136,29.419
0.652,-0.350,0.780,31.372,5.493,30.090

0.822,-0.796,0.974,-31.921,12.207,-3.235
0.872,-0.819,0.962,-33.875,2.991,-4.578
0.913,-0.822,0.946,-33.691,-6.836,-7.019
0.968,-0.836,0.941,-31.433,-17.395,-10.071
1.007,-0.858,0.933,-26.428,-27.832,-14.832
1.001,-0.882,0.924,-20.203,-36.560,-19.836
0.965,-0.885,0.911,-16.602,-42.236,-22.461
0.912,-0.864,0.875,-17.273,-44.983,-23.315
0.835,-0.815,0.825,-22.400,-44.067,-20.813
0.741,-0.755,0.760,-30.212,-39.124,-16.235
0.679,-0.718,0.693,-37.720,-29.907,-11.353
0.615,-0.682,0.635,-44.006,-16.418,-7.507
0.569,-0.647,0.593,-48.889,0.244,-6.042
0.569,-0.619,0.565,-52.368,17.883,-6.897
0.572,-0.599,0.535,-54.993,34.485,-9.949
0.593,-0.604,0.500,-59.021,48.645,-15.076
0.620,-0.602,0.466,-64.087,60.303,-23.071
0.659,-0.582,0.435,-71.777,67.810,-31.677
0.718,-0.568,0.401,-81.360,70.679,-39.978
0.773,-0.569,0.342,-93.018,68.665,-50.232
0.796,-0.586,0.275,-105.896,65.063,-62.073
0.767,-0.573,0.201,-120.544,64.636,-73.547
0.675,-0.524,0.112,-136.963,68.359,-83.191
0.613,-0.514,0.037,-154.358,77.332,-92.590
0.591,-0.488,-0.007,-172.485,93.140,-102.234
0.611,-0.411,-0.023,-189.331,112.183,-113.281
0.700,-0.312,-0.044,-204.895,127.197,-128.052
0.806,-0.189,-0.070,-218.323,135.803,-146.179
0.886,-0.044,-0.106,-228.699,137.573,-163.086
0.972,0.089,-0.135,-234.558,133.362,-178.467
1.019,0.208,-0.150,-236.511,124.939,-190.552
1.035,0.328,-0.154,-235.046,113.342,-198.730
1.051,0.440,-0.148,-231.689,99.915,-203.369
1.061,0.528,-0.150,-228.333,87.036,-204.895
1.058,0.597,-0.160,-225.586,75.745,-203.369
1.044,0.661,-0.182,-223.450,66.650,-200.134
1.034,0.736,-0.203,-221.436,61.279,-196.594
1.050,0.836,-0.203,-219.421,61.584,-192.932
1.091,0.946,-0.185,-215.637,64.941,-188.049
1.124,1.047,-0.150,-209.717,68.115,-181.519
1.154,1.131,-0.099,-201.172,69.824,-172.363
1.178,1.202,-0.047,-189.636,68.970,-160.645
1.203,1.249,-0.001,-175.049,64.331,-146.851
1.232,1.275,0.041,-158.325,56.946,-131.592
1.221,1.286,0.074,-140.076,48.462,-114.746
1.185,1.282,0.112,-121.582,39.978,-96.985
1.145,1.254,0.107,-102.295,32.227,-80.200
1.112,1.135,0.100,-81.604,30.945,-69.275
1.180,1.316,0.333,-62.195,31.860,-63.110
1.166,1.142,0.273,-41.504,13.489,-45.776
1.211,1.075,0.341,-23.804,-0.732,-31.860
1.168,0.960,0.332,-8.789,-14.709,-18.494
1.127,0.891,0.336,4.028,-26.550,-10.681
1.106,0.808,0.344,15.076,-33.813,-4.333
1.090,0.727,0.383,23.437,-38.025,1.282
1.070,0.668,0.399,28.381,-43.335,8.423
1.057,0.615,0.383,30.762,-47.546,16.113
1.009,0.550,0.351,33.203,-48.157,22.766
0.981,0.521,0.344,35.400,-43.762,27.588
1.032,0.505,0.344,39.185,-37.415,31.860
1.042,0.455,0.361,44.495,-31.677,36.804
1.058,0.440,0.369,49.072,-29.297,41.870
1.091,0.409,0.368,53.772,-29.297,47.974
1.110,0.379,0.378,58.655,-30.212,51.331
1.083,0.368,0.372,62.927,-33.813,54.871
1.035,0.362,0.360,66.650,-39.368,60.486
0.988,0.348,0.331,69.641,-46.143,67.139
0.936,0.335,0.295,71.228,-51.819,73.792
0.891,0.319,0.267,71.533,-54.932,79.102
0.873,0.311,0.246,71.533,-55.847,82.214
0.879,0.317,0.229,72.021,-54.932,83.374
0.898,0.318,0.233,73.608,-52.368,83.679
0.934,0.316,0.239,76.050,-49.683,83.313
0.958,0.324,0.251,78.918,-47.180,84.351
0.994,0.330,0.280,82.153,-44.861,87.036
1.037,0.333,0.307,86.365,-44.250,90.332
1.052,0.332,0.321,90.759,-46.631,93.628
1.053,0.314,0.330,94.971,-51.025,96.741
1.020,0.300,0.327,98.999,-55.420,99.304
0.959,0.289,0.317,102.783,-58.960,101.318
0.912,0.272,0.312,106.018,-59.875,103.455
0.926,0.247,0.317,109.436,-58.777,102.905
0.960,0.225,0.341,113.403,-56.824,99.182
0.981,0.207,0.360,117.554,-57.007,93.872
0.977,0.187,0.366,121.765,-59.998,88.562
0.979,0.165,0.380,124.817,-64.026,84.656
0.974,0.136,0.393,127.380,-67.871,82.214
0.923,0.110,0.404,128.174,-71.289,82.153
0.846,0.093,0.418,127.075,-72.693,84.595
0.773,0.066,0.426,122.986,-71.655,89.233
0.738,0.033,0.435,116.760,-67.627,94.299
0.719,0.013,0.435,109.924,-61.035,98.389
0.682,0.007,0.435,104.187,-52.429,100.098
0.653,0.006,0.448,100.769,-42.114,99.792
0.645,0.002,0.461,99.976,-31.799,97.107
0.645,0.005,0.480,100.159,-23.071,92.834
0.657,-0.000,0.494,102.356,-16.907,87.097
0.692,-0.028,0.517,105.713,-12.939,80.505
0.706,-0.056,0.548,107.788,-12.085,75.439
0.724,-0.074,0.571,106.995,-13.428,71.838
0.755,-0.096,0.589,104.980,-16.846,68.604
0.755,-0.121,0.596,100.952,-22.705,66.833
0.728,-0.150,0.592,94.543,-28.931,66.345
0.712,-0.161,0.598,86.548,-32.104,66.650
0.662,-0.154,0.576,78.308,-32.288,67.017
0.613,-0.157,0.576,71.350,-27.222,67.627
0.548,-0.136,0.539,65.186,-19.531,68.665
0.541,-0.148,0.539,59.998,-7.996,70.557
0.579,-0.147,0.562,55.237,3.174,71.594
0.716,-0.192,0.606,51.880,10.193,71.716
0.840,-0.228,0.630,51.453,10.864,68.054
0.877,-0.245,0.650,54.749,5.859,62.134
0.853,-0.225,0.649,59.448,-3.540,56.519
0.817,-0.236,0.641,64.575,-14.893,52.185
0.758,-0.241,0.639,70.190,-25.146,47.302
0.678,-0.219,0.630,74.158,-32.227,43.335
0.631,-0.249,0.632,76.355,-35.583,41.931
0.554,-0.272,0.619,76.477,-34.790,40.649
0.479,-0.289,0.597,73.547,-29.419,41.016

0.971,-0.747,1.086,-35.095,29.297,-22.888
1.062,-0.781,1.099,-34.912,39.917,-28.259
1.133,-0.859,1.077,-37.903,48.523,-31.067
1.172,-0.950,1.014,-44.922,55.603,-34.729
1.203,-1.014,0.927,-57.312,63.599,-39.673
1.212,-1.090,0.813,-75.195,74.219,-42.664
1.152,-1.123,0.637,-95.764,84.106,-46.387
1.129,-1.099,0.454,-116.211,93.811,-50.171
1.176,-1.087,0.304,-134.338,104.309,-53.589
1.176,-1.109,0.154,-147.888,112.488,-58.655
1.087,-1.085,0.002,-155.762,118.225,-62.561
0.980,-1.019,-0.105,-160.339,121.094,-63.599
0.977,-1.004,-0.176,-158.447,120.300,-62.805
1.060,-1.042,-0.189,-154.663,114.624,-63.782
1.083,-1.071,-0.193,-154.419,103.699,-67.810
1.071,-1.020,-0.215,-161.987,88.562,-76.477
1.039,-0.880,-0.263,-177.795,73.120,-86.609
0.958,-0.698,-0.344,-198.425,54.688,-97.168
0.823,-0.462,-0.455,-220.703,34.668,-105.774
0.695,-0.196,-0.562,-238.586,17.456,-115.234
0.627,0.043,-0.648,-247.437,6.958,-128.479
0.602,0.239,-0.698,-248.291,6.165,-145.081
0.614,0.418,-0.716,-244.019,13.550,-161.865
0.667,0.613,-0.725,-237.732,24.536,-177.490
0.745,0.804,-0.724,-228.149,34.790,-191.223
0.816,0.967,-0.698,-217.041,44.495,-198.303
0.905,1.127,-0.651,-203.796,52.795,-199.097
1.028,1.251,-0.582,-187.195,57.312,-196.350
1.120,1.319,-0.487,-169.373,59.387,-188.660
1.150,1.345,-0.362,-151.306,60.059,-176.453
1.124,1.345,-0.220,-132.629,59.265,-161.316
1.123,1.320,-0.068,-113.586,58.411,-145.752
1.164,1.263,0.079,-95.032,58.899,-131.287
1.164,1.195,0.201,-79.102,59.570,-117.859
1.176,1.135,0.300,-68.970,59.998,-107.117
1.193,1.103,0.376,-63.232,63.293,-98.694
1.212,1.071,0.421,-60.120,67.078,-91.309
1.259,1.035,0.444,-59.448,67.627,-83.313
1.309,1.001,0.459,-59.875,65.186,-73.486
1.340,0.987,0.487,-59.998,59.387,-61.157
1.337,0.963,0.500,-58.533,50.110,-47.302
1.326,0.926,0.497,-55.176,38.025,-32.410
1.473,0.919,0.515,-49.377,24.902,-18.188
1.229,0.728,0.362,-42.480,10.742,-12.756
1.200,0.756,0.315,-36.682,11.780,-13.611
1.341,0.737,0.482,-27.405,15.930,-8.179
1.268,0.690,0.374,-22.339,3.540,-1.099
1.329,0.624,0.401,-16.968,-6.104,7.874
1.308,0.575,0.326,-13.916,-21.423,15.137
1.208,0.516,0.284,-9.644,-34.363,21.179
1.145,0.497,0.254,-4.883,-43.884,25.635
1.081,0.458,0.238,1.160,-48.767,27.832
1.109,0.462,0.300,7.141,-49.744,27.649
1.126,0.451,0.294,13.000,-55.481,29.114
1.125,0.390,0.308,19.104,-61.340,32.288
1.044,0.373,0.260,24.414,-67.139,35.034
1.000,0.360,0.261,29.846,-68.298,37.781
0.996,0.356,0.274,35.645,-68.298,39.917
0.951,0.294,0.263,39.856,-70.557,43.030
0.899,0.273,0.254,41.687,-70.801,43.579
0.877,0.281,0.249,42.908,-68.298,43.518
0.903,0.264,0.257,45.959,-65.674,43.701
0.934,0.247,0.269,50.171,-64.209,44.006
0.943,0.241,0.278,54.688,-64.453,45.654
0.955,0.236,0.277,59.509,-66.711,48.096
0.984,0.217,0.285,64.148,-69.458,51.819
0.979,0.204,0.281,67.749,-72.632,56.152
0.956,0.197,0.266,70.618,-76.965,60.486
0.924,0.188,0.244,74.036,-80.444,63.232
0.888,0.181,0.229,77.087,-80.261,63.721
0.839,0.175,0.218,79.224,-76.721,63.049
0.807,0.168,0.224,79.834,-70.007,61.523
0.805,0.177,0.233,79.895,-61.646,59.509
0.829,0.186,0.256,80.139,-53.162,58.228
0.871,0.187,0.283,80.688,-46.448,58.228
0.903,0.192,0.303,81.421,-42.114,60.486
0.916,0.198,0.318,81.970,-39.612,65.247
0.909,0.199,0.317,82.092,-39.001,71.594
0.898,0.202,0.319,82.336,-38.330,78.247
0.872,0.202,0.319,82.947,-36.194,84.290
0.821,0.198,0.314,84.534,-32.410,87.646
0.781,0.197,0.312,85.754,-26.306,88.562
0.765,0.193,0.320,87.524,-18.494,87.708
0.788,0.180,0.341,89.355,-10.681,85.449
0.822,0.169,0.359,90.820,-4.883,82.458
0.848,0.161,0.382,91.858,-2.197,79.651
0.884,0.153,0.412,92.773,-2.808,77.393
0.935,0.141,0.447,92.651,-5.798,76.660
0.974,0.136,0.475,91.675,-11.597,76.843
0.984,0.126,0.492,90.515,-20.264,78.247
0.978,0.116,0.498,89.844,-29.907,80.627
0.945,0.108,0.494,88.623,-39.307,83.069
0.888,0.099,0.482,87.280,-46.631,85.205
0.817,0.094,0.475,84.839,-49.988,86.548
0.741,0.092,0.472,82.397,-49.133,87.219
0.669,0.091,0.470,79.712,-44.067,87.280
0.609,0.091,0.469,76.904,-36.072,87.341
0.562,0.095,0.474,73.853,-26.428,87.524
0.531,0.098,0.482,71.533,-16.846,87.708
0.534,0.084,0.496,68.481,-9.277,87.524
0.592,0.068,0.525,65.002,-4.883,86.487
0.633,0.057,0.547,61.401,-5.249,84.473
0.651,0.052,0.571,57.739,-11.536,82.214
0.685,0.052,0.585,53.345,-23.926,80.444
0.698,0.055,0.575,48.584,-43.579,78.430
0.667,0.055,0.539,43.274,-68.542,75.684
0.589,0.065,0.479,38.818,-95.032,71.899
0.461,0.066,0.411,34.546,-117.004,67.871
0.314,0.066,0.351,31.189,-130.554,63.843
0.191,0.061,0.304,28.015,-134.521,59.875
0.124,0.045,0.284,24.902,-129.822,56.458
0.087,0.029,0.295,21.545,-115.479,55.786
0.077,-0.018,0.311,18.921,-93.506,56.885
0.139,-0.039,0.377,15.503,-67.993,56.763
0.251,-0.089,0.425,11.597,-43.152,60.669
0.401,-0.127,0.522,9.033,-20.325,63.721
0.512,-0.123,0.579,7.629,-5.859,65.063
0.587,-0.147,0.649,9.216,4.639,67.078
0.665,-0.154,0.723,12.634,12.085,66.895

1.180,-1.641,0.388,-238.281,222.412,-179.382
1.560,-1.721,0.347,-249.146,219.055,-203.064
1.881,-1.789,0.259,-260.864,191.772,-220.093
2.023,-1.814,0.141,-272.339,150.146,-229.858
1.968,-1.758,0.005,-283.569,104.919,-232.361
1.739,-1.624,-0.159,-295.410,63.293,-228.394
1.505,-1.461,-0.344,-309.509,31.433,-216.858
1.466,-1.308,-0.523,-325.928,11.719,-201.355
1.454,-1.126,-0.688,-340.393,5.798,-193.115
1.291,-0.894,-0.932,-353.027,8.484,-197.083
1.124,-0.657,-1.156,-364.380,18.494,-208.862
1.173,-0.334,-1.320,-371.765,39.368,-225.830
1.485,0.165,-1.355,-372.070,60.791,-240.662
1.734,0.763,-1.288,-357.727,68.115,-247.803
1.834,1.291,-1.164,-321.838,62.622,-250.366
1.842,1.678,-0.992,-267.639,48.157,-243.286
1.817,1.893,-0.816,-199.890,30.518,-221.558
1.776,1.935,-0.639,-127.991,10.559,-187.866
1.723,1.863,-0.452,-62.073,-11.658,-147.278
1.613,1.673,-0.332,-7.751,-34.302,-106.018
1.496,1.455,-0.267,33.325,-54.626,-71.167
1.386,1.261,-0.190,57.678,-65.002,-44.006
1.281,1.108,-0.120,64.697,-63.538,-24.109
1.185,0.989,-0.072,59.082,-55.664,-11.597
1.135,0.890,-0.048,45.105,-46.387,-6.226
1.103,0.832,-0.029,26.611,-37.781,-7.690
1.083,0.807,-0.013,9.216,-28.381,-14.893
1.077,0.748,-0.015,-3.479,-17.090,-23.315
1.058,0.681,-0.021,-15.137,-5.493,-27.710
1.040,0.661,-0.013,-25.757,4.578,-29.053
1.065,0.669,0.009,-32.166,14.343,-26.978
1.082,0.652,0.035,-33.142,20.935,-21.179
1.084,0.623,0.079,-30.823,26.672,-13.306
1.112,0.616,0.103,-27.039,28.809,-6.958
1.100,0.566,0.077,-20.630,26.733,-3.357
1.046,0.515,0.012,-12.695,26.428,-3.906
1.086,0.438,0.168,-4.089,36.072,-8.667
1.145,0.558,0.207,1.465,34.302,-11.963
1.170,0.417,0.172,10.681,21.606,-3.601
1.155,0.324,0.241,15.259,17.883,1.648
1.118,0.322,0.210,17.151,14.343,9.277
1.094,0.271,0.193,21.118,13.489,17.822
1.110,0.235,0.236,26.123,13.916,23.010
1.142,0.232,0.256,32.043,11.841,28.748
1.159,0.190,0.275,37.903,6.714,39.001
1.100,0.106,0.277,41.443,-0.793,47.607
1.051,0.084,0.294,41.077,-5.371,51.392
1.029,0.096,0.324,39.490,-7.812,53.772
1.005,0.093,0.329,36.377,-10.864,56.091
0.974,0.084,0.333,32.837,-13.672,56.702
0.967,0.106,0.347,29.663,-14.465,55.603
0.954,0.138,0.343,27.527,-13.306,54.321
0.950,0.170,0.339,27.710,-11.353,54.321
0.960,0.198,0.350,30.090,-10.376,54.993
0.978,0.215,0.347,33.875,-10.620,56.213
0.973,0.245,0.343,38.025,-10.254,56.946
0.959,0.278,0.335,43.701,-9.155,58.716
0.946,0.290,0.323,51.208,-8.728,62.561
0.959,0.278,0.316,59.021,-8.057,66.711
0.974,0.259,0.304,65.552,-7.019,71.106
0.974,0.231,0.286,69.519,-8.240,75.073
0.967,0.201,0.273,70.679,-10.925,78.003
0.960,0.183,0.250,68.909,-14.160,79.407
0.944,0.192,0.241,65.857,-15.747,79.651
0.928,0.208,0.236,63.354,-16.724,78.857
0.909,0.221,0.233,61.523,-16.479,77.881
0.888,0.240,0.225,60.608,-13.977,76.660
0.877,0.259,0.213,61.218,-8.545,74.951
0.878,0.282,0.203,64.087,-0.854,73.425
0.904,0.298,0.212,69.031,7.324,72.632
0.948,0.304,0.237,75.378,13.611,71.838
0.995,0.302,0.256,81.482,15.747,71.167
1.016,0.291,0.267,87.158,13.062,70.801
1.024,0.284,0.275,92.651,7.446,70.251
1.019,0.273,0.271,98.694,-0.061,69.397
1.001,0.242,0.277,104.980,-7.751,69.458
0.976,0.223,0.284,109.253,-14.709,69.946
0.971,0.197,0.302,110.657,-19.836,70.496
0.961,0.177,0.324,109.192,-22.827,71.960
0.938,0.174,0.327,105.530,-24.292,74.158
0.922,0.177,0.322,101.990,-24.170,76.050
0.912,0.178,0.323,99.182,-21.851,77.820
0.887,0.179,0.317,97.351,-17.944,78.064
0.868,0.173,0.317,96.313,-12.024,77.637
0.857,0.159,0.323,95.764,-5.371,78.247
0.853,0.154,0.327,94.421,0.061,79.224
0.842,0.144,0.337,92.407,4.578,80.139
0.815,0.136,0.337,89.172,7.202,80.322
0.783,0.135,0.329,85.876,8.850,79.224
0.739,0.134,0.316,82.214,10.681,77.698
0.692,0.133,0.299,78.674,13.000,75.562
0.658,0.128,0.285,75.073,16.968,72.693
0.635,0.128,0.271,72.021,22.400,68.909
0.592,0.134,0.251,69.763,29.541,63.293
0.538,0.136,0.229,69.031,39.795,55.786
0.543,0.123,0.234,69.397,54.626,47.607
0.633,0.081,0.268,69.641,72.205,41.199
0.713,0.077,0.286,68.298,88.074,36.011
0.768,0.074,0.301,67.505,98.267,31.921
0.801,0.054,0.307,66.284,104.126,29.541
0.820,0.047,0.318,64.209,107.117,28.198
0.838,0.058,0.336,61.768,107.239,26.672
0.845,0.054,0.345,60.364,103.516,24.170
0.831,0.072,0.348,59.570,96.497,19.897
0.811,0.060,0.353,60.425,86.975,15.442
0.799,0.044,0.367,62.317,75.439,9.521
0.842,0.023,0.418,65.002,62.439,3.662
0.889,0.027,0.426,66.284,45.105,-0.854
0.957,-0.021,0.462,66.711,25.330,-0.854
1.027,-0.057,0.464,63.965,4.028,1.404
1.059,-0.063,0.463,59.998,-18.555,5.371
1.041,-0.059,0.447,57.556,-41.748,9.277
1.002,-0.060,0.415,55.908,-62.683,12.451
0.933,-0.061,0.402,56.213,-77.759,13.489
0.885,-0.069,0.408,56.702,-86.609,12.268
0.833,-0.082,0.416,55.542,-88.074,12.390
0.762,-0.097,0.412,53.467,-82.642,12.451
0.723,-0.114,0.419,52.307,-71.411,11.230
0.733,-0.130,0.452,51.758,-56.519,9.033

0.944,-1.015,0.668,-42.908,5.432,-13.184
0.924,-1.127,0.654,-53.650,7.263,-12.878
0.924,-1.264,0.633,-68.054,10.681,-11.536
0.940,-1.409,0.579,-87.524,15.747,-10.071
0.953,-1.540,0.524,-112.366,23.254,-8.362
0.891,-1.582,0.426,-141.113,33.264,-6.104
0.833,-1.576,0.280,-171.082,46.570,-4.211
0.818,-1.577,0.140,-198.303,65.063,-5.310
0.732,-1.567,0.017,-220.276,88.867,-9.033
0.761,-1.539,-0.078,-238.037,114.807,-14.221
0.978,-1.475,-0.109,-254.883,138.428,-21.729
1.168,-1.336,-0.139,-268.494,153.320,-27.405
1.292,-1.181,-0.201,-278.015,154.114,-31.372
1.315,-0.947,-0.250,-285.278,143.127,-35.889
1.227,-0.673,-0.339,-286.804,121.399,-36.926
1.045,-0.377,-0.446,-283.386,94.788,-38.818
0.916,-0.145,-0.533,-273.743,69.702,-44.067
0.848,0.040,-0.623,-261.292,48.096,-53.528
0.821,0.240,-0.746,-248.840,30.823,-69.519
0.833,0.464,-0.868,-234.375,21.545,-92.163
0.902,0.638,-0.923,-218.384,22.461,-114.868
1.028,0.756,-0.963,-204.102,30.518,-130.859
1.194,0.884,-0.983,-191.650,42.419,-138.733
1.275,1.048,-0.976,-179.260,55.237,-136.169
1.302,1.192,-0.939,-163.269,65.674,-124.756
1.348,1.279,-0.872,-142.334,72.021,-107.605
1.400,1.323,-0.763,-118.958,72.693,-88.135
1.405,1.333,-0.666,-93.994,65.002,-71.167
1.343,1.305,-0.569,-68.176,48.523,-57.495
1.168,1.203,-0.574,-43.701,27.344,-48.157
1.141,1.005,-0.418,-24.658,16.479,-50.049
1.038,1.160,-0.345,-17.212,2.563,-49.011
1.047,0.857,-0.377,-4.944,-19.531,-31.555
1.001,0.859,-0.314,-8.362,-30.518,-22.461
0.905,0.831,-0.365,-13.550,-38.147,-7.385
0.810,0.675,-0.437,-18.433,-37.354,5.798
0.798,0.850,-0.346,-26.245,-26.367,7.446
0.795,0.770,-0.334,-28.320,-16.846,15.381
0.808,0.712,-0.314,-27.344,-7.446,19.592
0.805,0.714,-0.266,-26.123,0.305,20.203
0.839,0.678,-0.263,-23.315,5.920,19.775
0.879,0.646,-0.248,-18.616,10.315,18.066
0.919,0.622,-0.225,-12.878,12.146,15.930
0.960,0.573,-0.205,-6.714,10.132,14.160
0.999,0.527,-0.193,-1.587,5.798,12.451
1.021,0.502,-0.191,2.686,1.160,10.437
1.021,0.444,-0.202,7.141,-2.075,8.789
1.033,0.409,-0.200,10.864,-2.747,7.019
1.079,0.365,-0.191,15.442,-2.563,6.958
1.136,0.313,-0.160,19.592,-1.465,7.996
1.175,0.272,-0.117,22.156,-0.366,11.108
1.205,0.257,-0.089,23.376,-1.465,18.433
1.234,0.214,-0.067,24.658,-6.165,27.954
1.229,0.190,-0.057,25.940,-11.780,36.804
1.193,0.172,-0.046,28.870,-17.151,43.457
1.170,0.155,-0.018,33.203,-21.240,47.058
1.146,0.143,0.011,39.124,-25.330,46.692
1.082,0.117,0.032,47.424,-29.175,43.457
1.022,0.075,0.063,57.556,-32.410,37.170
1.010,0.021,0.113,67.810,-35.583,28.137
1.018,-0.041,0.159,77.271,-40.771,18.921
1.021,-0.116,0.200,84.473,-47.546,10.986
1.003,-0.181,0.217,88.440,-56.458,4.395
1.002,-0.242,0.217,87.708,-65.125,0.061
1.000,-0.274,0.198,82.336,-72.449,-2.380
0.960,-0.282,0.154,72.693,-77.332,-3.479
0.902,-0.277,0.102,59.692,-77.271,-4.395
0.860,-0.241,0.060,44.922,-70.068,-5.310
0.828,-0.179,0.024,31.372,-56.885,-5.310
0.809,-0.108,-0.002,20.630,-40.588,-4.272
0.805,-0.032,-0.010,13.916,-22.888,-2.197
0.805,0.045,-0.010,12.024,-4.822,1.892
0.818,0.106,-0.003,14.771,13.184,6.714
0.856,0.150,0.014,19.897,29.480,11.047
0.887,0.193,0.026,26.733,42.480,15.442
0.912,0.220,0.035,34.607,50.903,18.982
0.944,0.234,0.035,43.091,55.115,21.179
0.968,0.248,0.035,51.208,56.213,21.179
0.984,0.251,0.037,57.556,54.932,20.264
1.011,0.238,0.045,61.707,51.208,19.592
1.044,0.244,0.057,63.965,45.837,19.409
1.058,0.262,0.060,64.941,39.063,19.897
1.050,0.273,0.053,65.674,31.189,20.691
1.052,0.279,0.041,66.223,23.926,21.973
1.052,0.298,0.030,66.223,17.883,23.254
1.026,0.314,0.017,67.566,12.817,24.292
1.010,0.323,0.004,69.214,9.644,25.146
1.010,0.324,-0.008,71.106,8.057,25.452
1.014,0.328,-0.008,74.036,7.935,25.940
1.028,0.335,-0.001,77.942,7.202,27.649
1.042,0.329,0.015,82.458,4.639,30.029
1.040,0.310,0.034,87.219,0.610,32.593
1.033,0.295,0.046,91.003,-4.578,34.546
1.027,0.283,0.052,94.055,-10.986,35.767
1.021,0.260,0.048,96.619,-17.944,36.438
1.028,0.248,0.049,97.656,-23.987,36.133
1.046,0.253,0.051,97.351,-30.029,36.133
1.036,0.272,0.045,96.680,-37.598,37.476
1.005,0.248,0.040,96.252,-44.800,40.466
0.976,0.278,0.043,95.337,-51.147,43.335
0.921,0.269,0.036,95.215,-56.702,48.950
0.876,0.250,0.057,95.154,-60.608,54.016
0.839,0.240,0.071,93.445,-63.232,60.181
0.825,0.203,0.094,90.393,-63.965,68.481
0.805,0.162,0.092,85.632,-64.941,77.332
0.820,0.111,0.095,79.468,-65.491,85.876
0.889,0.052,0.142,71.289,-62.195,94.116
0.992,0.073,0.174,60.242,-58.105,99.915
1.073,0.116,0.216,50.842,-58.472,103.394
1.093,0.156,0.233,44.250,-64.636,105.225
1.075,0.189,0.223,40.527,-72.144,106.445
1.027,0.225,0.226,40.344,-76.965,106.018
0.984,0.271,0.241,43.030,-79.407,103.455
0.899,0.275,0.228,48.584,-80.811,100.769
0.794,0.268,0.220,56.580,-80.688,96.741
0.704,0.238,0.218,64.941,-79.651,91.797
0.652,0.167,0.229,71.594,-77.698,85.144
0.656,0.086,0.263,73.181,-72.815,77.515
0.637,0.024,0.280,68.970,-64.758,70.618

1.207,-1.121,0.299,-89.294,159.851,-19.714
1.268,-1.259,0.199,-109.314,162.781,-18.921
1.261,-1.363,0.088,-132.690,158.569,-16.602
1.236,-1.417,-0.005,-155.151,146.484,-17.639
1.293,-1.366,-0.078,-175.415,132.202,-20.569
1.319,-1.202,-0.136,-192.444,118.408,-25.696
1.339,-0.991,-0.176,-202.942,102.661,-35.339
1.510,-0.894,-0.215,-207.275,85.632,-45.837
1.546,-0.811,-0.309,-213.745,70.435,-55.969
1.359,-0.588,-0.403,-224.915,58.472,-61.951
1.069,-0.275,-0.493,-237.549,46.936,-58.228
0.801,0.047,-0.624,-250.061,35.156,-49.072
0.565,0.331,-0.780,-261.230,29.419,-39.734
0.371,0.602,-0.905,-268.555,27.466,-38.269
0.227,0.881,-1.009,-268.494,24.170,-46.997
0.161,1.139,-1.058,-259.888,21.423,-61.218
0.163,1.355,-1.068,-242.676,19.470,-78.186
0.180,1.487,-1.023,-217.163,18.250,-95.703
0.212,1.572,-0.932,-187.256,15.686,-111.816
0.399,1.560,-0.749,-154.419,10.498,-121.277
0.517,1.556,-0.623,-118.347,1.648,-127.075
0.698,1.526,-0.401,-81.543,-3.540,-128.540
0.874,1.422,-0.224,-45.959,-10.925,-123.474
0.926,1.218,-0.207,-18.188,-18.555,-115.417
1.139,1.188,0.090,-5.249,-15.625,-110.962
1.246,1.112,0.024,-2.747,-25.696,-93.506
1.279,0.975,0.025,-2.686,-37.903,-70.190
1.264,0.968,0.016,-10.254,-42.053,-50.964
1.234,0.858,-0.088,-19.409,-43.518,-28.381
1.169,0.832,-0.105,-30.090,-35.278,-15.381
1.095,0.821,-0.093,-39.429,-22.888,-6.958
1.070,0.842,-0.102,-45.044,-9.766,0.610
1.033,0.818,-0.070,-45.410,2.014,6.531
1.016,0.794,-0.044,-40.955,13.977,9.277
1.003,0.736,-0.033,-31.860,22.827,10.620
1.051,0.651,0.014,-20.020,28.870,9.827
1.166,0.563,0.079,-8.850,29.602,7.507
1.300,0.456,0.126,-0.793,21.484,4.883
1.401,0.377,0.144,3.235,5.798,3.540
1.417,0.293,0.122,4.883,-12.451,5.859
1.420,0.235,0.093,5.615,-29.358,10.437
1.433,0.211,0.072,6.531,-42.419,16.724
1.375,0.187,0.062,8.545,-51.758,25.513
1.270,0.144,0.066,11.719,-57.068,33.508
1.208,0.118,0.088,13.611,-57.007,40.161
1.145,0.104,0.100,15.686,-52.124,44.189
1.108,0.085,0.108,17.883,-44.373,43.762
1.086,0.065,0.103,20.935,-34.973,41.199
1.063,0.056,0.109,24.170,-25.024,37.781
1.073,0.055,0.118,27.527,-16.846,34.302
1.117,0.036,0.147,31.372,-10.559,32.532
1.134,0.030,0.165,33.752,-6.897,33.752
1.145,0.009,0.173,35.400,-7.507,37.231
1.152,-0.015,0.169,35.645,-10.742,42.114
1.123,-0.010,0.158,34.668,-15.015,46.387
1.074,-0.001,0.146,34.363,-19.165,48.828
1.036,0.010,0.138,35.339,-22.339,49.683
0.999,0.033,0.132,37.903,-23.071,48.889
0.960,0.047,0.135,41.382,-22.034,46.875
0.927,0.066,0.135,44.495,-20.020,45.288
0.897,0.086,0.124,47.180,-17.273,43.701
0.871,0.102,0.113,50.293,-14.099,42.053
0.855,0.117,0.099,53.101,-10.498,39.917
0.848,0.130,0.090,55.237,-7.141,37.476
0.834,0.147,0.078,57.129,-3.235,35.767
0.818,0.161,0.073,58.289,0.977,34.424
0.833,0.176,0.078,58.533,5.676,33.569
0.855,0.198,0.078,58.044,9.888,32.532
0.878,0.215,0.075,57.617,12.939,31.372
0.900,0.244,0.068,57.312,14.832,30.579
0.911,0.264,0.054,58.533,16.479,29.724
0.946,0.276,0.047,60.486,17.883,28.381
0.978,0.290,0.046,63.293,19.226,26.794
0.990,0.310,0.045,67.017,19.592,25.330
1.001,0.322,0.048,71.472,17.822,24.597
1.010,0.325,0.048,75.745,13.794,25.085
1.022,0.322,0.047,80.017,7.996,26.550
1.023,0.314,0.039,83.252,1.160,28.259
1.011,0.307,0.030,86.121,-5.676,29.175
1.005,0.299,0.027,88.562,-11.292,29.602
0.993,0.294,0.015,90.637,-16.052,29.785
0.979,0.297,0.015,92.957,-19.714,30.518
0.967,0.298,0.016,95.703,-21.851,31.433
0.946,0.288,0.021,97.595,-23.193,32.410
0.926,0.288,0.035,99.609,-24.048,32.471
0.914,0.280,0.049,101.746,-24.902,31.738
0.895,0.276,0.067,103.821,-25.757,29.846
0.869,0.271,0.088,106.140,-27.405,27.344
0.830,0.264,0.106,107.849,-29.541,25.757
0.774,0.250,0.113,108.276,-31.982,25.757
0.711,0.231,0.120,107.849,-32.654,25.940
0.682,0.206,0.143,105.896,-31.372,26.367
0.712,0.186,0.181,100.647,-29.846,28.931
0.750,0.138,0.190,93.384,-31.250,32.959
0.772,0.147,0.200,86.121,-35.095,34.729
0.794,0.152,0.201,80.200,-39.307,36.011
0.788,0.144,0.194,76.111,-41.443,34.485
0.745,0.180,0.173,74.402,-39.124,29.602
0.699,0.181,0.164,75.745,-31.250,23.743
0.661,0.185,0.148,80.017,-17.944,16.663
0.642,0.175,0.139,86.670,-1.038,8.972
0.661,0.142,0.147,93.994,17.700,1.343
0.720,0.089,0.164,100.525,34.546,-6.409
0.794,0.056,0.191,105.957,45.776,-15.015
0.896,0.007,0.228,110.718,49.805,-22.339
1.006,-0.045,0.276,112.183,46.631,-27.832
1.082,-0.083,0.312,110.168,38.452,-30.029
1.119,-0.118,0.324,106.201,25.085,-30.334
1.139,-0.129,0.331,101.257,9.338,-30.029
1.142,-0.140,0.330,96.375,-5.737,-27.710
1.116,-0.158,0.331,90.698,-18.921,-23.987
1.071,-0.175,0.340,83.984,-28.381,-19.226
1.017,-0.188,0.350,76.416,-35.400,-13.184
0.974,-0.216,0.354,68.726,-39.612,-7.324
0.936,-0.246,0.369,61.707,-40.344,-3.296
0.904,-0.267,0.387,55.298,-39.185,-0.488
0.878,-0.287,0.417,50.232,-38.269,1.831
0.843,-0.299,0.428,46.082,-38.391,3.479
0.818,-0.305,0.438,42.847,-39.001,3.601

1.269,-0.944,0.579,-28.137,-21.240,7.141
1.298,-1.054,0.592,-30.029,-25.146,8.118
1.293,-1.167,0.594,-35.034,-26.062,12.085
1.240,-1.306,0.564,-43.884,-23.804,18.677
1.156,-1.479,0.523,-57.800,-14.465,28.503
1.077,-1.670,0.448,-79.041,2.258,40.344
1.003,-1.854,0.333,-107.727,25.024,51.453
0.961,-1.978,0.208,-138.916,51.941,60.608
0.889,-2.017,0.084,-171.082,81.604,67.139
0.785,-1.975,-0.087,-201.172,109.863,71.533
0.764,-1.882,-0.238,-223.145,135.803,71.411
0.931,-1.846,-0.291,-238.037,162.231,65.308
1.086,-1.839,-0.334,-254.639,182.129,57.678
1.081,-1.708,-0.427,-272.461,187.500,51.575
1.027,-1.494,-0.473,-288.269,181.824,46.204
1.021,-1.244,-0.523,-302.307,166.077,42.908
1.006,-0.950,-0.618,-314.453,140.137,42.297
0.919,-0.633,-0.798,-325.195,107.239,42.175
0.751,-0.309,-1.095,-335.083,71.716,39.368
0.582,0.052,-1.453,-346.863,40.771,33.997
0.443,0.483,-1.793,-364.502,21.545,28.564
0.320,0.878,-2.023,-376.648,18.555,26.489
0.243,1.157,-2.130,-369.446,28.259,23.743
0.266,1.376,-2.118,-338.196,49.011,10.132
0.273,1.539,-1.940,-288.147,77.332,-13.123
0.280,1.670,-1.619,-229.248,100.647,-41.321
0.366,1.460,-1.500,-167.969,110.107,-70.007
0.803,1.664,-1.000,-119.446,109.497,-115.173
1.005,1.550,-0.800,-75.623,75.500,-127.380
1.026,1.335,-0.698,-41.199,26.062,-128.174
0.985,1.317,-0.596,-22.522,-21.423,-130.493
0.980,1.227,-0.605,-9.644,-61.707,-115.723
0.916,1.174,-0.565,-5.920,-85.144,-101.440
0.754,1.184,-0.489,-10.193,-90.820,-85.510
0.653,1.195,-0.442,-19.592,-84.412,-67.139
0.564,1.214,-0.386,-31.860,-62.866,-50.598
0.526,1.233,-0.353,-42.419,-31.494,-39.368
0.554,1.234,-0.330,-48.462,3.540,-32.898
0.582,1.185,-0.306,-49.255,37.720,-28.748
0.652,1.148,-0.256,-46.875,66.772,-27.832
0.796,1.084,-0.206,-41.565,86.792,-27.771
0.932,1.006,-0.154,-34.485,96.375,-27.039
1.008,0.927,-0.104,-25.146,93.018,-25.085
1.089,0.870,-0.039,-14.282,78.979,-22.278
1.148,0.791,-0.010,-2.136,54.565,-16.174
1.152,0.712,-0.000,9.949,26.123,-9.521
1.126,0.642,0.006,20.935,-1.038,-3.662
1.094,0.568,0.002,30.273,-24.414,2.441
1.050,0.501,-0.008,37.720,-42.480,6.836
1.022,0.446,-0.002,43.762,-53.284,8.301
1.026,0.383,0.015,48.584,-57.922,8.362
1.039,0.322,0.039,52.185,-58.594,7.324
1.082,0.292,0.070,55.847,-57.617,5.066
1.123,0.254,0.083,59.631,-57.190,2.319
1.167,0.224,0.107,65.063,-56.702,-2.747
1.222,0.199,0.133,71.960,-57.556,-9.705
1.262,0.167,0.177,79.712,-60.913,-16.785
1.292,0.136,0.205,87.341,-68.054,-21.790
1.335,0.117,0.220,93.628,-77.698,-24.719
1.341,0.100,0.235,98.267,-87.952,-23.743
1.324,0.072,0.246,100.647,-98.694,-20.264
1.308,0.061,0.241,100.281,-109.375,-16.052
1.263,0.057,0.200,99.365,-117.920,-11.475
1.186,0.082,0.149,99.182,-122.803,-5.981
1.131,0.052,0.165,97.961,-122.925,2.014
1.075,0.069,0.185,93.445,-119.507,7.446
1.028,0.086,0.205,86.487,-113.525,12.695
0.999,0.091,0.212,77.759,-107.666,17.029
0.960,0.101,0.190,69.641,-102.051,20.264
0.924,0.124,0.175,63.660,-93.140,20.386
0.931,0.161,0.169,60.913,-81.482,19.226
0.924,0.177,0.151,62.317,-69.763,20.081
0.933,0.199,0.170,66.406,-58.044,21.606
0.978,0.226,0.182,71.655,-47.668,24.170
1.008,0.238,0.187,77.026,-39.612,28.015
1.031,0.231,0.195,82.642,-34.241,31.128
1.047,0.223,0.199,86.487,-32.593,34.119
1.044,0.215,0.206,88.135,-34.241,36.133
1.037,0.214,0.211,86.975,-37.781,37.415
1.027,0.224,0.207,83.801,-42.908,38.025
1.015,0.230,0.190,79.773,-49.683,38.086
1.016,0.228,0.180,75.928,-56.702,37.720
1.021,0.225,0.178,71.350,-63.049,38.330
1.021,0.222,0.176,65.918,-69.946,40.649
1.003,0.221,0.164,60.425,-76.355,44.373
0.965,0.230,0.145,55.908,-80.139,48.462
0.925,0.245,0.124,53.711,-79.895,52.490
0.934,0.244,0.125,54.321,-75.256,55.908
0.946,0.249,0.125,56.030,-68.970,57.800
0.920,0.255,0.117,59.875,-63.171,58.167
0.896,0.245,0.115,65.002,-57.800,57.312
0.915,0.230,0.123,70.740,-52.917,54.443
0.920,0.221,0.131,76.355,-50.293,49.744
0.882,0.207,0.133,81.055,-51.147,44.983
0.851,0.195,0.139,83.679,-53.833,40.405
0.831,0.182,0.151,84.106,-59.143,35.583
0.811,0.173,0.157,83.191,-66.589,31.006
0.805,0.154,0.164,80.750,-75.867,28.076
0.788,0.140,0.171,77.454,-85.571,27.100
0.756,0.125,0.164,73.486,-94.971,28.137
0.818,0.074,0.179,70.007,-101.929,29.480
0.924,0.023,0.207,68.420,-106.934,27.527
0.939,0.005,0.233,68.542,-112.854,23.926
0.913,0.011,0.252,70.068,-120.117,21.179
0.859,0.011,0.265,73.059,-128.113,18.921
0.833,0.003,0.309,76.904,-135.132,17.273
0.802,0.018,0.306,80.200,-144.958,15.320
0.696,0.014,0.278,83.679,-156.128,14.038
0.606,-0.006,0.278,85.510,-160.217,16.235
0.510,-0.021,0.268,84.412,-155.701,21.973
0.430,-0.137,0.250,81.116,-142.883,30.029
0.310,-0.058,0.264,74.402,-119.568,35.400
0.357,-0.201,0.264,68.481,-87.769,48.706
0.391,-0.231,0.374,61.462,-50.171,52.612
0.458,-0.266,0.394,53.040,-15.991,53.345
0.478,-0.260,0.430,47.546,8.911,55.969
0.594,-0.227,0.550,44.189,29.297,53.223
0.703,-0.258,0.612,42.908,29.663,50.049
0.704,-0.269,0.591,42.297,13.184,41.992

0.916,-0.899,0.773,-38.696,104.553,7.935
0.944,-1.030,0.749,-44.861,103.577,5.310
0.963,-1.214,0.722,-51.758,101.379,2.380
0.991,-1.458,0.682,-60.852,98.633,-0.732
0.982,-1.715,0.583,-73.853,96.191,-4.761
0.956,-1.991,0.429,-91.919,98.328,-10.498
0.885,-2.143,0.208,-119.690,109.497,-18.433
0.902,-2.083,0.019,-161.804,132.507,-22.583
0.991,-1.850,-0.118,-211.182,157.532,-20.264
1.053,-1.679,-0.281,-250.244,171.143,-15.869
1.095,-1.579,-0.412,-275.085,179.993,-11.230
1.117,-1.424,-0.517,-290.955,192.139,-6.409
1.167,-1.228,-0.570,-299.744,203.064,-1.770
1.149,-0.972,-0.575,-302.856,208.374,6.653
1.053,-0.651,-0.552,-296.204,207.153,15.747
0.940,-0.341,-0.509,-281.067,204.041,22.339
0.836,-0.085,-0.451,-262.207,201.233,26.550
0.733,0.117,-0.390,-243.896,195.435,28.137
0.661,0.281,-0.367,-228.149,186.157,26.367
0.634,0.449,-0.396,-217.102,171.997,20.569
0.623,0.619,-0.434,-208.801,151.855,14.709
0.586,0.798,-0.439,-201.782,124.878,8.423
0.551,0.997,-0.432,-194.214,91.064,0.671
0.545,1.172,-0.433,-182.312,53.040,-10.315
0.556,1.285,-0.464,-163.940,17.883,-27.832
0.571,1.322,-0.478,-141.907,-8.911,-49.133
0.641,1.239,-0.478,-120.117,-29.541,-69.153
0.692,1.174,-0.525,-104.858,-46.448,-86.975
0.738,1.078,-0.540,-96.313,-53.406,-95.337
0.760,1.006,-0.585,-93.201,-47.791,-95.581
0.731,0.970,-0.653,-94.177,-30.823,-89.233
0.678,0.836,-0.752,-95.215,-3.906,-77.271
0.846,1.011,-0.530,-97.290,27.100,-68.054
0.934,1.057,-0.525,-93.689,37.720,-44.067
0.954,0.966,-0.469,-82.397,39.490,-17.822
0.947,0.947,-0.422,-74.341,33.630,0.549
0.958,0.896,-0.408,-64.331,22.522,13.428
0.972,0.854,-0.389,-52.856,7.751,19.836
0.945,0.782,-0.374,-39.795,-8.789,23.315
0.909,0.677,-0.374,-29.114,-24.719,23.193
0.936,0.613,-0.374,-22.827,-35.278,18.982
0.946,0.542,-0.406,-19.897,-39.734,13.855
0.935,0.484,-0.416,-18.005,-37.415,9.888
0.961,0.435,-0.384,-17.822,-30.823,8.911
1.023,0.415,-0.347,-18.860,-22.827,9.827
1.077,0.394,-0.326,-20.386,-15.564,12.939
1.094,0.388,-0.293,-22.095,-9.888,17.151
1.086,0.365,-0.272,-22.644,-6.042,21.606
1.108,0.381,-0.240,-21.362,-2.625,24.719
1.098,0.355,-0.236,-16.235,-0.854,27.893
1.108,0.339,-0.176,-9.460,0.305,29.053
1.121,0.309,-0.157,-2.686,-1.892,29.175
1.131,0.287,-0.135,3.357,-4.578,29.053
1.117,0.280,-0.139,8.301,-7.568,28.076
