aX,aY,aZ,gX,gY,gZ
0.711,-0.845,1.109,-9.521,28.198,-21.179
0.730,-0.941,1.124,-12.939,19.470,-25.024
0.747,-1.036,1.124,-15.808,9.338,-31.128
0.736,-1.145,1.106,-19.470,-2.075,-38.879
0.692,-1.259,1.060,-24.963,-13.306,-48.401
0.632,-1.378,1.000,-32.654,-22.583,-59.692
0.560,-1.528,0.939,-41.992,-27.710,-73.120
0.501,-1.692,0.841,-54.382,-27.161,-89.355
0.501,-1.829,0.707,-71.472,-19.104,-110.474
0.560,-1.931,0.575,-93.811,-2.808,-135.681
0.696,-1.982,0.473,-120.056,19.775,-161.377
0.891,-1.957,0.388,-149.048,45.410,-182.800
1.103,-1.911,0.283,-176.453,68.848,-198.547
1.265,-1.856,0.157,-199.524,87.463,-209.167
1.381,-1.792,0.022,-219.238,102.783,-216.675
1.506,-1.689,-0.122,-236.816,116.882,-221.069
1.572,-1.564,-0.251,-252.441,126.648,-222.839
1.578,-1.431,-0.388,-266.052,131.958,-223.022
1.581,-1.262,-0.515,-279.053,135.254,-221.924
1.584,-1.080,-0.643,-288.513,135.193,-222.656
1.606,-0.924,-0.777,-295.532,132.385,-226.929
1.563,-0.734,-0.926,-301.758,127.625,-235.413
1.569,-0.522,-1.018,-305.725,125.183,-244.080
1.643,-0.291,-1.061,-305.908,124.084,-250.061
1.696,-0.065,-1.067,-301.147,119.873,-253.174
1.750,0.133,-1.017,-291.016,113.342,-252.808
1.802,0.300,-0.925,-275.269,105.713,-249.878
1.836,0.392,-0.820,-256.226,95.398,-244.507
1.792,0.446,-0.726,-239.075,83.130,-237.366
1.674,0.502,-0.666,-227.234,71.777,-229.675
1.515,0.558,-0.629,-220.703,65.552,-222.046
1.379,0.634,-0.592,-218.384,66.223,-215.881
1.305,0.738,-0.540,-219.543,72.266,-211.792
1.282,0.877,-0.477,-220.825,79.041,-210.083
1.333,1.038,-0.394,-220.032,82.153,-208.069
1.396,1.198,-0.303,-216.064,77.881,-201.965
1.380,1.330,-0.260,-207.275,65.063,-190.491
1.316,1.436,-0.224,-193.359,49.744,-174.072
1.293,1.501,-0.153,-175.781,36.987,-153.625
1.178,1.517,-0.097,-156.555,24.597,-132.385
1.058,1.475,-0.170,-138.611,16.357,-114.319
0.948,1.452,-0.020,-123.108,16.357,-100.891
1.013,1.352,0.012,-109.802,16.113,-89.539
1.011,1.305,0.075,-100.037,12.756,-82.275
1.015,1.272,0.155,-94.727,9.338,-71.899
1.046,1.247,0.205,-89.905,3.723,-58.228
1.033,1.208,0.236,-83.679,-2.258,-44.067
1.000,1.162,0.237,-76.477,-4.944,-30.090
1.007,1.133,0.296,-67.810,-4.578,-16.541
1.012,1.086,0.321,-58.105,-3.662,-3.906
1.011,1.035,0.317,-48.340,-2.869,6.714
0.979,0.989,0.348,-38.147,-0.671,15.625
0.997,0.958,0.373,-28.320,2.075,23.987
1.000,0.887,0.362,-18.250,2.808,32.288
1.025,0.831,0.390,-9.460,4.272,39.429
1.063,0.769,0.386,-0.732,2.197,45.776
1.081,0.705,0.384,8.240,-2.380,50.171
1.088,0.638,0.377,17.822,-7.629,54.077
1.084,0.566,0.369,26.733,-12.268,59.448
1.101,0.507,0.382,34.363,-14.587,66.589
1.120,0.440,0.383,40.894,-16.724,75.378
1.121,0.380,0.382,45.471,-18.738,84.229
1.094,0.341,0.373,48.401,-21.057,91.919
1.047,0.308,0.348,51.270,-22.095,97.595
1.011,0.285,0.336,54.077,-19.836,101.379
0.988,0.277,0.327,55.664,-14.771,104.370
0.998,0.236,0.317,56.946,-8.179,107.666
1.000,0.205,0.302,57.068,-2.441,110.596
0.987,0.192,0.276,57.617,2.930,112.000
1.022,0.190,0.285,59.753,9.766,112.732
1.084,0.200,0.266,63.965,13.916,114.319
1.114,0.165,0.294,69.885,15.137,116.577
1.162,0.185,0.280,76.721,13.245,118.286
1.149,0.168,0.286,83.679,6.531,122.803
1.126,0.154,0.273,90.454,-0.854,126.831
1.074,0.112,0.225,97.107,-8.972,131.104
1.001,0.094,0.200,102.661,-11.902,131.775
0.968,0.108,0.205,108.154,-10.559,131.042
0.981,0.075,0.190,112.976,-7.751,131.592
0.975,0.019,0.151,116.089,-3.784,132.751
1.008,0.061,0.206,118.530,2.747,132.324
1.032,0.082,0.184,120.972,4.517,133.972
1.044,0.052,0.179,123.169,4.517,137.756
1.030,0.055,0.181,125.793,5.005,139.832
1.004,0.062,0.169,129.517,5.432,140.381
0.982,0.044,0.158,133.362,6.714,140.320
0.978,0.034,0.163,137.207,9.216,138.794
0.966,0.028,0.162,140.686,11.536,136.780
0.956,0.020,0.172,143.494,13.855,134.583
0.963,0.012,0.186,145.691,16.052,132.507
0.985,-0.003,0.208,147.644,17.029,130.676
0.997,-0.024,0.225,148.621,17.029,128.662
0.987,-0.038,0.237,149.048,15.808,127.197
0.987,-0.045,0.251,148.743,14.771,127.197
0.988,-0.054,0.263,148.132,14.221,128.906
0.956,-0.065,0.268,147.339,14.587,130.798
0.903,-0.068,0.264,145.203,16.602,131.348
0.855,-0.065,0.263,143.066,21.545,130.432
0.833,-0.063,0.262,141.052,28.748,128.540
0.813,-0.058,0.265,138.611,36.743,125.305
0.809,-0.054,0.267,136.047,45.532,120.850
0.822,-0.045,0.272,133.301,54.077,116.150
0.843,-0.037,0.275,130.493,62.378,112.366
0.864,-0.028,0.276,126.465,69.397,110.352
0.888,-0.015,0.278,122.498,75.134,109.253
0.908,0.002,0.283,118.347,79.041,108.032
0.945,0.012,0.298,114.929,81.604,105.774
0.977,0.022,0.312,113.220,82.336,102.661
0.981,0.025,0.321,113.098,82.031,98.267
0.974,0.011,0.331,113.342,82.092,93.811
0.960,-0.002,0.342,113.647,83.435,90.637
0.964,-0.017,0.356,113.220,85.266,88.623
0.962,-0.042,0.369,111.511,87.097,86.670
0.966,-0.080,0.375,108.154,89.111,83.984
1.051,-0.109,0.397,104.065,90.149,79.773
1.127,-0.117,0.431,100.708,88.196,72.937
1.159,-0.123,0.454,97.900,81.482,66.345
1.178,-0.120,0.473,95.459,71.350,62.927
1.170,-0.115,0.484,93.445,59.082,62.500

1.437,-1.070,-0.307,-302.795,28.198,-153.992
1.582,-0.987,-0.415,-312.988,35.095,-159.607
1.721,-0.940,-0.463,-309.265,34.546,-158.569
1.789,-0.960,-0.479,-296.692,26.978,-152.771
1.783,-1.014,-0.498,-281.555,16.418,-146.729
1.720,-1.107,-0.549,-272.339,6.165,-141.541
1.607,-1.225,-0.607,-273.987,-2.441,-136.780
1.440,-1.320,-0.673,-285.950,-5.798,-133.301
1.268,-1.321,-0.772,-305.542,-1.282,-132.019
1.182,-1.224,-0.833,-328.369,10.559,-134.888
1.130,-1.089,-0.899,-348.145,24.902,-142.395
1.098,-0.969,-0.998,-362.305,35.339,-152.710
1.079,-0.807,-1.106,-372.864,41.016,-162.720
1.120,-0.608,-1.204,-378.174,41.199,-169.312
1.160,-0.415,-1.269,-376.953,34.912,-172.729
1.202,-0.255,-1.308,-368.225,25.330,-175.842
1.283,-0.134,-1.343,-355.286,14.465,-180.359
1.398,-0.047,-1.368,-343.018,3.296,-185.364
1.497,0.052,-1.376,-333.313,-6.042,-187.744
1.580,0.181,-1.383,-326.416,-12.390,-185.486
1.628,0.321,-1.397,-320.618,-15.137,-178.284
1.603,0.438,-1.404,-315.063,-13.184,-166.809
1.555,0.545,-1.394,-308.472,-5.676,-153.137
1.502,0.679,-1.347,-301.819,5.188,-137.329
1.463,0.793,-1.295,-293.274,14.038,-120.056
1.415,0.924,-1.246,-281.494,15.686,-102.051
1.349,1.045,-1.186,-263.184,7.019,-83.984
1.292,1.115,-1.116,-238.831,-9.399,-67.871
1.159,1.115,-1.101,-211.426,-29.236,-56.946
1.078,1.098,-1.043,-184.814,-40.344,-52.429
1.040,1.125,-0.966,-160.522,-40.161,-50.720
1.019,1.043,-0.866,-136.719,-38.757,-47.302
1.010,0.994,-0.823,-118.347,-33.203,-45.959
0.964,0.989,-0.697,-104.553,-21.057,-43.762
1.029,0.954,-0.586,-91.980,-9.827,-35.156
1.040,0.879,-0.506,-81.299,-0.305,-25.513
1.052,0.892,-0.361,-72.876,7.751,-17.029
1.070,0.853,-0.294,-64.392,7.874,-6.958
1.047,0.816,-0.223,-55.969,3.418,-0.854
1.015,0.822,-0.147,-47.852,-1.282,1.831
0.986,0.813,-0.092,-39.063,-5.554,5.066
0.974,0.783,-0.039,-28.992,-7.080,7.996
0.966,0.748,0.011,-19.531,-5.737,10.742
0.990,0.717,0.065,-11.353,-3.113,14.282
1.039,0.701,0.120,-3.479,-1.465,17.395
1.096,0.676,0.164,4.761,-2.258,19.714
1.166,0.651,0.204,13.062,-5.493,22.034
1.184,0.629,0.222,21.790,-10.986,26.428
1.193,0.606,0.226,30.457,-16.907,32.715
1.180,0.593,0.222,38.574,-20.386,39.917
1.153,0.592,0.206,46.753,-21.118,46.204
1.118,0.556,0.187,54.871,-19.592,49.927
1.082,0.522,0.175,62.683,-17.151,52.673
1.051,0.494,0.162,70.190,-14.343,55.359
1.017,0.465,0.141,76.477,-12.573,57.495
0.983,0.432,0.109,82.581,-11.597,57.617
0.943,0.406,0.074,88.257,-10.559,56.396
0.926,0.386,0.044,93.384,-9.033,54.688
0.929,0.375,0.022,98.267,-7.141,53.772
0.939,0.375,0.003,102.966,-5.493,54.382
0.957,0.382,-0.025,107.056,-4.517,57.312
0.976,0.393,-0.049,111.938,-3.784,60.852
0.984,0.409,-0.081,118.103,-2.991,64.392
1.000,0.394,-0.116,124.939,-2.075,69.336
1.019,0.394,-0.133,131.165,-0.916,74.524
1.037,0.392,-0.146,137.390,-0.488,78.491
1.056,0.371,-0.160,143.311,-1.038,80.811
1.064,0.350,-0.168,149.963,-2.563,81.543
1.054,0.345,-0.181,156.494,-4.150,80.750
1.051,0.334,-0.186,162.964,-4.028,79.712
1.059,0.314,-0.191,169.495,-2.380,78.308
1.067,0.293,-0.193,175.476,0.793,76.843
1.080,0.265,-0.202,179.871,5.188,76.721
1.085,0.250,-0.213,183.350,9.644,78.003
1.096,0.235,-0.227,186.279,14.343,80.017
1.105,0.215,-0.239,188.660,18.616,82.275
1.107,0.193,-0.249,190.857,22.400,83.984
1.113,0.167,-0.266,192.505,25.391,84.961
1.114,0.145,-0.270,194.214,28.259,85.022
1.138,0.130,-0.264,196.655,30.518,84.412
1.146,0.114,-0.261,199.036,31.555,84.290
1.154,0.098,-0.262,202.148,31.860,85.205
1.168,0.077,-0.255,205.994,32.043,86.182
1.196,0.061,-0.242,210.205,31.799,87.646
1.213,0.050,-0.226,214.783,30.212,89.355
1.223,0.026,-0.214,219.421,27.283,90.820
1.218,0.004,-0.201,222.839,23.437,93.140
1.196,-0.013,-0.198,225.281,20.020,96.252
1.160,-0.039,-0.200,226.013,17.822,99.243
1.138,-0.053,-0.193,224.915,17.944,101.624
1.127,-0.063,-0.177,223.328,19.104,102.539
1.113,-0.070,-0.165,221.436,20.447,101.990
1.094,-0.064,-0.154,218.933,22.034,100.830
1.083,-0.069,-0.137,216.431,23.987,100.220
1.075,-0.078,-0.128,214.661,26.184,100.525
1.076,-0.075,-0.112,212.952,29.053,101.379
1.084,-0.072,-0.094,211.609,31.067,102.417
1.100,-0.070,-0.070,210.449,31.982,102.478
1.094,-0.071,-0.043,210.327,31.372,102.112
1.072,-0.071,-0.023,210.510,29.541,101.318
1.051,-0.087,0.002,210.205,27.649,99.915
1.048,-0.118,0.040,208.618,26.611,98.633
1.028,-0.138,0.078,204.590,24.841,98.267
0.987,-0.156,0.103,198.608,21.912,98.511
0.951,-0.172,0.120,191.162,19.226,98.206
0.926,-0.173,0.131,182.983,17.273,94.727
0.906,-0.178,0.138,174.988,16.663,87.341
0.925,-0.202,0.151,166.992,18.433,77.759
0.944,-0.216,0.175,158.447,20.508,69.092
0.972,-0.234,0.191,149.231,20.691,65.247
0.982,-0.243,0.193,139.160,19.714,65.552
0.973,-0.242,0.192,128.662,18.677,67.139
0.946,-0.236,0.183,118.286,18.738,67.444
0.909,-0.222,0.171,108.765,21.301,65.247
0.887,-0.217,0.169,101.501,26.184,60.669
0.884,-0.217,0.179,95.947,32.898,55.542
0.919,-0.209,0.207,90.881,40.222,50.903
0.966,-0.187,0.245,86.670,45.471,46.753
0.996,-0.177,0.280,83.374,46.631,43.335

1.162,-0.701,-0.755,-276.306,2.563,1.343
1.126,-0.760,-0.825,-278.687,-11.353,4.333
1.053,-0.840,-0.932,-283.020,-22.034,7.263
0.999,-0.910,-1.050,-291.748,-27.222,9.460
0.952,-0.953,-1.161,-304.626,-26.428,10.132
0.910,-0.940,-1.262,-319.580,-22.644,10.559
0.900,-0.862,-1.320,-333.191,-19.409,11.169
0.872,-0.765,-1.349,-340.942,-18.982,9.827
0.820,-0.690,-1.389,-342.102,-20.996,5.920
0.779,-0.632,-1.442,-338.623,-23.621,0.366
0.749,-0.587,-1.496,-334.656,-24.658,-5.188
0.756,-0.523,-1.526,-331.421,-24.719,-11.108
0.770,-0.427,-1.533,-328.796,-24.902,-15.747
0.806,-0.309,-1.515,-325.073,-25.940,-19.836
0.853,-0.189,-1.470,-319.092,-28.259,-23.743
0.894,-0.117,-1.459,-309.937,-32.532,-27.405
0.896,-0.056,-1.479,-301.514,-37.659,-30.640
0.902,0.036,-1.478,-295.044,-40.588,-33.081
0.926,0.139,-1.459,-288.269,-41.748,-34.912
0.966,0.245,-1.427,-280.090,-42.236,-35.950
0.975,0.361,-1.388,-270.935,-44.434,-36.438
0.964,0.471,-1.351,-260.315,-46.936,-36.926
0.972,0.558,-1.302,-248.474,-47.913,-37.964
0.976,0.635,-1.242,-235.413,-47.302,-40.100
0.979,0.697,-1.165,-221.924,-45.044,-42.664
0.964,0.708,-1.115,-208.923,-42.175,-44.067
1.015,0.743,-1.042,-197.815,-37.781,-45.044
1.126,0.778,-0.938,-187.439,-33.752,-44.250
1.130,0.788,-0.911,-177.185,-35.217,-41.687
1.158,0.810,-0.848,-169.189,-35.706,-37.537
1.158,0.839,-0.822,-160.828,-35.034,-31.311
1.139,0.855,-0.787,-151.367,-31.067,-23.987
1.123,0.873,-0.737,-141.907,-23.682,-18.066
1.084,0.900,-0.690,-131.897,-15.564,-12.878
1.060,0.920,-0.638,-120.789,-7.324,-7.751
1.019,0.928,-0.590,-108.276,0.061,-3.540
1.003,0.935,-0.547,-94.971,7.324,0.061
1.026,0.918,-0.506,-81.421,14.282,3.479
1.056,0.902,-0.458,-67.566,18.311,6.714
1.103,0.881,-0.407,-54.260,18.921,10.132
1.128,0.859,-0.370,-41.321,14.404,14.221
1.132,0.825,-0.347,-28.931,6.592,19.226
1.129,0.786,-0.334,-16.785,-1.892,23.987
1.091,0.740,-0.332,-5.066,-9.033,27.710
1.057,0.690,-0.335,6.165,-13.184,30.457
1.030,0.639,-0.340,17.090,-12.451,31.921
1.028,0.587,-0.332,28.015,-6.836,32.349
1.063,0.539,-0.312,37.903,1.465,32.898
1.127,0.497,-0.285,46.265,10.193,34.058
1.190,0.461,-0.258,53.162,15.442,35.706
1.229,0.439,-0.240,60.181,15.747,38.269
1.245,0.428,-0.231,67.383,11.719,41.626
1.221,0.415,-0.229,75.500,4.761,45.166
1.182,0.380,-0.238,83.801,-2.686,48.523
1.120,0.339,-0.252,91.919,-9.583,50.720
1.046,0.308,-0.264,99.304,-14.526,51.941
0.980,0.285,-0.281,105.713,-16.907,52.551
0.927,0.266,-0.299,110.657,-16.724,52.185
0.872,0.256,-0.318,115.051,-14.221,50.110
0.848,0.256,-0.330,118.958,-9.705,47.241
0.866,0.259,-0.334,122.803,-4.883,44.861
0.884,0.250,-0.344,126.282,-2.075,42.969
0.920,0.260,-0.350,129.333,-1.587,40.833
0.961,0.267,-0.353,132.690,-3.845,38.635
1.001,0.266,-0.358,136.292,-8.423,37.659
1.029,0.264,-0.373,140.076,-14.648,37.964
1.051,0.270,-0.390,144.531,-21.484,39.246
1.064,0.271,-0.406,150.269,-27.954,41.504
1.072,0.265,-0.425,156.128,-33.691,44.495
1.061,0.262,-0.441,162.354,-38.635,46.692
1.036,0.250,-0.452,169.067,-41.931,48.523
0.996,0.215,-0.473,175.720,-43.091,49.866
0.960,0.170,-0.490,181.274,-40.710,50.476
0.920,0.136,-0.498,185.120,-34.363,49.866
0.892,0.109,-0.500,187.500,-24.292,48.889
0.900,0.072,-0.503,188.904,-12.207,47.119
0.931,0.044,-0.493,188.660,-0.244,44.922
0.974,0.037,-0.479,187.134,9.888,43.762
1.030,0.041,-0.467,186.340,16.418,44.250
1.088,0.046,-0.454,187.866,19.104,44.312
1.124,0.034,-0.445,190.857,18.677,44.067
1.141,0.026,-0.434,195.618,15.808,43.762
1.158,0.011,-0.412,201.843,11.902,43.701
1.174,-0.025,-0.386,208.374,6.836,44.128
1.181,-0.054,-0.357,213.318,1.343,45.471
1.153,-0.078,-0.336,216.919,-5.188,47.424
1.116,-0.107,-0.319,218.811,-10.071,49.377
1.094,-0.138,-0.297,220.154,-12.207,49.988
1.064,-0.152,-0.261,220.093,-11.597,49.744
1.043,-0.168,-0.222,219.238,-9.583,49.561
1.029,-0.192,-0.190,217.346,-6.897,49.866
1.018,-0.207,-0.159,213.806,-3.357,49.683
1.018,-0.219,-0.125,209.290,0.793,48.706
1.031,-0.237,-0.088,203.796,4.700,47.546
1.047,-0.240,-0.049,197.998,7.324,46.326
1.058,-0.234,-0.008,192.871,8.789,45.532
1.059,-0.232,0.023,188.538,9.094,45.044
1.051,-0.235,0.051,184.387,8.484,44.922
1.038,-0.237,0.072,179.504,7.996,44.739
1.025,-0.232,0.090,174.194,7.507,44.128
1.020,-0.229,0.108,168.640,6.958,43.152
1.008,-0.225,0.121,163.147,5.737,42.236
0.995,-0.221,0.129,158.142,4.578,41.077
0.994,-0.218,0.138,153.381,4.700,39.917
1.000,-0.215,0.155,148.560,4.883,39.124
0.995,-0.206,0.172,144.104,4.761,38.208
0.992,-0.199,0.190,139.038,3.967,38.025
0.996,-0.191,0.206,134.033,2.136,38.147
0.992,-0.183,0.218,129.150,-0.732,38.330
0.983,-0.178,0.223,123.718,-3.845,37.781
0.975,-0.169,0.229,118.408,-7.080,37.048
0.972,-0.157,0.240,113.525,-10.315,36.438
0.961,-0.142,0.252,108.948,-13.916,36.255
0.938,-0.128,0.257,104.797,-17.334,35.706
0.920,-0.118,0.260,101.685,-19.226,34.729
0.903,-0.109,0.270,98.145,-19.165,33.630
0.886,-0.106,0.281,94.910,-18.188,32.471
0.870,-0.106,0.290,91.248,-16.541,31.738
0.843,-0.104,0.294,86.975,-13.428,30.884

1.220,-0.833,-0.528,-274.780,-72.510,-103.638
1.188,-0.843,-0.582,-285.400,-59.509,-108.032
1.176,-0.866,-0.645,-294.189,-45.471,-111.328
1.170,-0.855,-0.696,-303.040,-32.349,-114.868
1.177,-0.851,-0.753,-310.303,-21.912,-118.225
1.210,-0.859,-0.831,-317.139,-15.198,-122.559
1.247,-0.838,-0.901,-325.684,-12.573,-128.357
1.263,-0.799,-0.951,-333.313,-13.916,-134.521
1.234,-0.739,-1.004,-340.271,-19.104,-139.587
1.187,-0.679,-1.060,-345.886,-24.902,-143.005
1.150,-0.598,-1.113,-348.694,-28.564,-144.348
1.119,-0.491,-1.165,-348.389,-29.297,-144.958
1.101,-0.429,-1.249,-346.008,-27.771,-146.790
1.108,-0.352,-1.331,-343.628,-23.315,-151.123
1.144,-0.253,-1.386,-340.759,-15.625,-157.043
1.174,-0.125,-1.424,-336.548,-6.531,-162.415
1.217,0.047,-1.418,-329.285,2.502,-166.565
1.282,0.213,-1.361,-317.017,10.864,-170.776
1.371,0.366,-1.270,-301.575,16.113,-173.523
1.445,0.527,-1.162,-283.325,15.625,-173.645
1.502,0.662,-1.070,-262.512,8.850,-170.959
1.541,0.675,-1.073,-240.967,-3.113,-166.382
1.513,0.693,-1.117,-226.562,-16.907,-160.767
1.456,0.801,-1.117,-218.567,-26.794,-153.992
1.161,0.840,-1.254,-210.266,-28.625,-147.888
1.349,0.979,-1.123,-202.271,-14.282,-143.372
1.376,1.045,-1.113,-187.866,-0.610,-142.273
1.308,1.129,-0.915,-172.729,16.174,-142.334
1.623,1.195,-0.893,-154.236,27.405,-136.597
1.530,1.331,-0.732,-132.874,29.724,-129.822
1.588,1.354,-0.545,-112.366,23.621,-108.643
1.615,1.272,-0.539,-89.355,8.972,-86.304
1.538,1.262,-0.395,-68.848,-3.296,-68.054
1.397,1.214,-0.443,-52.856,-16.113,-50.720
1.286,1.170,-0.327,-38.208,-18.982,-36.926
1.229,1.166,-0.289,-24.109,-17.395,-29.175
1.208,1.094,-0.230,-10.010,-14.038,-22.583
1.211,1.026,-0.161,1.587,-10.254,-18.494
1.173,0.989,-0.105,12.573,-7.690,-15.808
1.198,0.929,-0.047,23.193,-6.104,-10.742
1.186,0.857,-0.013,34.180,-5.798,-5.066
1.187,0.780,0.036,44.067,-4.700,2.197
1.210,0.704,0.071,53.223,-4.333,11.597
1.227,0.636,0.099,61.279,-5.615,20.691
1.245,0.560,0.106,67.444,-8.728,29.785
1.218,0.509,0.096,72.083,-13.489,38.879
1.179,0.470,0.085,76.416,-18.188,48.035
1.130,0.437,0.058,80.444,-21.729,55.542
1.078,0.406,0.028,85.510,-22.400,60.364
1.048,0.376,0.015,90.820,-20.447,63.660
1.028,0.341,0.000,96.375,-18.311,66.284
1.023,0.307,-0.018,102.356,-16.174,67.932
1.024,0.273,-0.035,108.582,-14.282,68.909
1.033,0.257,-0.045,114.258,-13.367,70.984
1.044,0.244,-0.061,120.972,-14.160,74.036
1.028,0.228,-0.090,127.991,-16.357,76.660
1.002,0.221,-0.124,134.277,-18.250,78.186
0.989,0.208,-0.156,139.526,-19.165,79.773
0.998,0.199,-0.184,144.348,-19.653,81.360
0.997,0.210,-0.204,147.217,-20.142,83.252
0.998,0.223,-0.223,150.513,-20.752,85.327
1.012,0.230,-0.233,154.541,-21.484,86.914
1.035,0.246,-0.235,159.241,-22.827,88.074
1.063,0.224,-0.231,164.673,-25.391,89.539
1.036,0.213,-0.258,170.410,-29.602,90.881
1.018,0.195,-0.295,175.171,-31.189,91.980
1.005,0.170,-0.335,179.016,-28.198,93.323
1.008,0.153,-0.370,181.030,-21.667,94.177
1.024,0.144,-0.386,181.458,-13.123,94.543
1.050,0.136,-0.400,182.556,-4.944,94.910
1.091,0.129,-0.405,184.509,2.319,95.032
1.130,0.129,-0.401,187.622,7.935,95.276
1.141,0.123,-0.403,192.383,11.169,95.398
1.145,0.106,-0.403,198.608,13.000,95.886
1.160,0.087,-0.394,205.017,14.282,96.680
1.177,0.063,-0.381,210.999,15.503,96.802
1.203,0.031,-0.363,215.271,15.869,96.863
1.226,0.013,-0.340,217.712,15.564,97.656
1.252,-0.005,-0.328,218.811,14.221,99.243
1.246,-0.022,-0.328,218.689,11.841,101.257
1.216,-0.029,-0.337,217.712,10.193,102.844
1.187,-0.035,-0.349,217.041,10.742,104.065
1.165,-0.039,-0.358,215.698,13.916,104.980
1.154,-0.040,-0.359,214.600,18.494,105.469
1.159,-0.036,-0.357,214.355,23.499,104.858
1.173,-0.024,-0.349,214.905,28.015,103.455
1.202,-0.021,-0.330,215.759,30.823,101.990
1.233,-0.013,-0.308,217.041,30.579,101.440
1.285,-0.000,-0.282,218.079,27.527,101.013
1.324,-0.000,-0.257,219.238,21.423,99.976
1.345,-0.018,-0.243,219.910,12.634,99.792
1.344,-0.036,-0.245,218.262,3.052,102.234
1.324,-0.045,-0.250,213.989,-4.883,106.628
1.282,-0.049,-0.258,208.618,-9.583,110.962
1.229,-0.053,-0.265,202.393,-10.315,114.624
1.163,-0.058,-0.271,196.838,-7.080,116.943
1.090,-0.067,-0.277,192.139,0.488,117.676
1.028,-0.082,-0.273,188.416,11.902,116.333
1.001,-0.102,-0.254,185.913,25.269,113.159
0.991,-0.122,-0.221,184.692,37.292,107.483
1.012,-0.146,-0.175,184.448,46.509,99.548
1.078,-0.179,-0.108,185.974,51.514,90.271
1.131,-0.213,-0.019,187.378,51.453,83.862
1.166,-0.246,0.073,188.538,44.922,83.313
1.175,-0.283,0.145,188.782,33.997,87.402
1.174,-0.337,0.198,187.500,20.264,91.858
1.119,-0.379,0.235,185.059,6.775,94.360
1.025,-0.398,0.257,181.580,-3.601,93.506
0.943,-0.412,0.271,176.697,-8.789,90.332
0.866,-0.425,0.286,169.861,-9.094,85.022
0.819,-0.454,0.310,161.621,-5.615,78.003
0.805,-0.483,0.328,151.489,0.000,69.946
0.805,-0.487,0.338,139.709,6.592,60.364
0.816,-0.473,0.342,128.784,13.489,49.438
0.831,-0.448,0.345,119.263,20.264,39.124
0.885,-0.428,0.347,110.901,26.550,30.945
0.964,-0.397,0.351,103.943,31.860,24.719
1.008,-0.369,0.359,98.816,34.363,19.897
1.057,-0.349,0.367,94.788,34.119,18.372

1.143,-0.865,-0.653,-287.903,23.804,-118.896
1.217,-0.846,-0.724,-301.392,35.339,-123.230
1.315,-0.817,-0.792,-315.918,43.945,-123.901
1.402,-0.744,-0.851,-330.078,47.058,-121.948
1.447,-0.663,-0.912,-341.003,43.518,-119.202
1.460,-0.584,-0.980,-347.839,34.607,-116.272
1.458,-0.500,-1.029,-350.281,22.217,-113.403
1.475,-0.429,-1.075,-348.389,8.057,-111.572
1.469,-0.345,-1.108,-343.628,-6.958,-109.436
1.434,-0.263,-1.134,-335.632,-21.912,-107.361
1.412,-0.199,-1.156,-325.562,-34.485,-104.919
1.387,-0.139,-1.176,-315.430,-43.884,-102.783
1.327,-0.085,-1.200,-306.946,-50.049,-101.440
1.253,-0.029,-1.223,-300.171,-52.063,-100.464
1.205,0.026,-1.234,-296.082,-49.255,-100.769
1.171,0.100,-1.230,-293.213,-42.358,-101.196
1.127,0.199,-1.212,-290.466,-33.569,-101.013
1.112,0.298,-1.185,-286.011,-24.475,-100.037
1.126,0.383,-1.143,-279.236,-16.602,-98.511
1.130,0.469,-1.112,-270.630,-12.268,-96.802
1.131,0.555,-1.074,-260.986,-10.742,-96.008
0.912,0.574,-1.144,-250.244,-9.949,-95.581
1.139,0.722,-0.981,-239.624,-2.136,-95.398
1.068,0.726,-0.992,-226.501,2.563,-93.018
0.967,0.766,-0.934,-215.393,7.996,-92.590
1.193,0.796,-0.879,-206.238,13.672,-90.576
1.050,0.813,-0.940,-196.045,13.184,-89.905
1.108,0.919,-0.822,-188.782,15.930,-83.862
1.078,0.888,-0.877,-177.063,12.451,-75.195
1.170,0.942,-0.714,-163.818,12.939,-72.266
1.161,1.008,-0.708,-148.132,5.310,-71.350
1.102,0.997,-0.675,-132.080,-2.625,-68.665
1.117,1.030,-0.594,-115.784,-5.615,-67.810
1.099,1.033,-0.544,-98.938,-6.226,-65.125
1.081,1.005,-0.497,-84.167,-4.272,-60.120
1.075,0.988,-0.441,-72.754,1.770,-54.260
1.068,0.985,-0.388,-62.866,10.437,-48.401
1.093,0.962,-0.339,-53.894,19.775,-42.053
1.137,0.953,-0.278,-45.654,27.771,-35.522
1.200,0.957,-0.207,-37.415,31.128,-28.503
1.240,0.945,-0.158,-27.771,27.893,-21.057
1.266,0.927,-0.115,-17.334,18.982,-13.977
1.253,0.922,-0.098,-5.493,6.348,-7.812
1.209,0.899,-0.087,8.057,-6.592,-1.831
1.184,0.861,-0.084,23.132,-16.541,4.089
1.131,0.818,-0.089,38.330,-22.034,8.362
1.088,0.767,-0.086,53.101,-22.095,11.841
1.063,0.714,-0.086,66.589,-18.127,15.076
1.044,0.660,-0.093,77.515,-11.292,18.616
1.028,0.613,-0.097,86.182,-3.601,22.278
1.029,0.569,-0.099,93.811,4.517,25.696
1.045,0.525,-0.101,100.830,11.292,28.320
1.083,0.482,-0.102,107.239,14.771,30.029
1.118,0.448,-0.102,113.220,13.916,31.616
1.152,0.428,-0.107,119.629,9.094,33.997
1.183,0.409,-0.117,127.075,0.671,36.743
1.193,0.393,-0.132,136.353,-9.705,39.307
1.182,0.379,-0.154,146.362,-21.301,41.565
1.160,0.354,-0.179,156.982,-32.471,44.067
1.122,0.326,-0.205,167.114,-41.138,47.302
1.079,0.292,-0.229,175.293,-46.387,51.331
1.041,0.251,-0.254,181.946,-48.340,54.504
1.009,0.213,-0.274,186.951,-46.936,56.213
0.994,0.183,-0.282,190.369,-42.969,57.129
1.005,0.161,-0.280,192.688,-37.659,58.044
1.027,0.140,-0.281,194.763,-32.593,59.204
1.042,0.134,-0.280,196.655,-28.748,59.875
1.058,0.127,-0.277,199.524,-26.001,60.425
1.076,0.111,-0.274,202.698,-24.780,60.852
1.096,0.091,-0.267,205.750,-25.330,61.768
1.104,0.061,-0.267,208.679,-27.710,63.232
1.104,0.045,-0.265,211.426,-30.823,63.843
1.104,0.030,-0.260,214.172,-33.325,63.416
1.099,0.007,-0.255,216.919,-35.522,62.744
1.099,-0.016,-0.244,219.360,-36.926,62.683
1.090,-0.037,-0.233,220.703,-38.452,62.866
1.070,-0.059,-0.221,220.520,-39.551,63.171
1.050,-0.092,-0.209,219.788,-39.856,63.416
1.033,-0.124,-0.195,217.285,-38.818,63.354
1.011,-0.140,-0.178,214.111,-36.682,62.439
0.986,-0.150,-0.164,210.815,-32.043,60.608
0.980,-0.170,-0.142,207.031,-24.536,58.533
1.010,-0.184,-0.106,202.576,-15.747,57.068
1.074,-0.188,-0.062,197.388,-9.705,56.396
1.119,-0.184,-0.036,191.101,-9.033,55.847
1.132,-0.171,-0.027,185.486,-13.672,55.054
1.130,-0.157,-0.026,180.969,-20.935,53.894
1.109,-0.142,-0.027,177.002,-28.015,52.612
1.074,-0.139,-0.033,173.828,-33.386,51.392
1.061,-0.153,-0.039,170.044,-35.522,51.392
1.042,-0.156,-0.045,164.551,-34.485,52.185
1.029,-0.159,-0.052,158.997,-30.945,52.673
1.020,-0.155,-0.055,152.405,-25.330,53.162
1.012,-0.142,-0.052,145.813,-18.372,53.040
1.007,-0.145,-0.050,140.015,-11.353,52.795
1.006,-0.150,-0.054,133.545,-4.395,53.040
1.002,-0.150,-0.055,127.014,1.892,53.467
0.993,-0.149,-0.058,120.728,8.057,53.772
0.980,-0.144,-0.064,114.929,14.343,54.016
0.984,-0.146,-0.062,109.985,20.752,53.833
1.000,-0.144,-0.054,104.919,25.757,54.016
1.016,-0.144,-0.046,100.281,28.748,54.504
1.024,-0.154,-0.043,96.252,28.748,55.664
1.005,-0.154,-0.045,92.468,27.771,56.885
0.975,-0.144,-0.049,89.172,27.527,57.556
0.945,-0.138,-0.060,86.548,28.442,57.861
0.889,-0.126,-0.075,85.022,31.311,57.617
0.839,-0.128,-0.089,83.191,36.926,57.190
0.792,-0.129,-0.098,81.787,44.922,57.007
0.748,-0.127,-0.101,80.505,55.054,55.786
0.727,-0.115,-0.093,79.895,66.284,54.077
0.745,-0.098,-0.062,79.895,76.355,52.917
0.790,-0.095,-0.030,80.261,82.275,52.185
0.821,-0.080,-0.009,80.139,83.069,51.453
0.863,-0.066,0.016,79.407,79.895,49.866
0.909,-0.060,0.040,78.491,72.327,48.767
0.942,-0.055,0.060,77.515,61.707,47.607
0.971,-0.050,0.073,76.111,49.072,45.410
1.021,-0.073,0.082,74.951,36.438,42.297

1.003,-0.873,-0.673,-243.835,-49.194,-64.209
0.999,-0.891,-0.745,-254.089,-37.170,-68.970
1.022,-0.909,-0.790,-264.771,-22.339,-74.402
1.097,-0.939,-0.818,-276.184,-8.606,-80.444
1.185,-0.960,-0.852,-289.368,0.122,-85.388
1.235,-0.969,-0.901,-304.382,1.526,-89.600
1.253,-0.948,-0.961,-320.557,-2.991,-92.834
1.269,-0.909,-1.037,-335.510,-10.132,-96.497
1.264,-0.857,-1.122,-347.595,-17.944,-101.746
1.228,-0.796,-1.187,-356.445,-22.949,-108.398
1.195,-0.750,-1.222,-361.450,-22.339,-114.319
1.185,-0.736,-1.274,-363.892,-15.930,-119.568
1.165,-0.701,-1.313,-366.516,-5.249,-123.840
1.182,-0.644,-1.334,-369.751,8.240,-126.953
1.230,-0.547,-1.322,-372.314,21.423,-127.991
1.265,-0.417,-1.302,-372.192,29.175,-126.648
1.298,-0.319,-1.345,-368.652,31.189,-124.756
1.265,-0.243,-1.452,-365.540,28.076,-121.887
1.208,-0.096,-1.503,-364.746,24.902,-118.225
1.203,0.052,-1.534,-360.779,23.560,-114.502
1.224,0.203,-1.545,-354.309,21.606,-110.107
1.241,0.375,-1.522,-345.825,18.677,-105.530
1.250,0.539,-1.477,-333.252,15.137,-101.746
1.248,0.670,-1.420,-316.162,11.230,-98.450
1.014,0.727,-1.475,-297.424,7.996,-95.825
1.188,0.855,-1.336,-280.273,14.526,-94.543
1.210,0.903,-1.316,-260.010,23.376,-93.140
1.075,0.962,-1.242,-239.929,32.227,-94.543
1.498,1.028,-1.173,-221.863,37.415,-93.567
1.229,1.154,-1.107,-202.026,32.410,-90.881
1.421,1.137,-1.000,-185.669,26.489,-70.190
1.555,1.076,-0.978,-165.039,10.010,-57.617
1.481,1.060,-0.966,-148.743,-1.709,-54.077
1.520,1.194,-0.840,-137.268,-8.301,-48.035
1.514,1.147,-0.839,-123.352,-23.621,-35.706
1.421,1.167,-0.837,-111.633,-34.180,-26.062
1.275,1.198,-0.848,-98.694,-39.124,-18.921
1.204,1.188,-0.843,-82.947,-35.156,-13.672
1.144,1.199,-0.812,-63.416,-25.635,-11.047
1.131,1.161,-0.774,-41.931,-15.320,-6.592
1.131,1.116,-0.733,-18.311,-7.263,-2.869
1.085,1.073,-0.695,5.554,-1.770,1.038
1.086,0.987,-0.645,30.640,0.916,5.676
1.093,0.894,-0.588,55.664,1.343,8.301
1.094,0.810,-0.526,78.003,-1.343,9.644
1.100,0.723,-0.474,96.497,-8.118,11.841
1.118,0.644,-0.426,111.877,-17.944,15.259
1.121,0.565,-0.400,124.268,-30.396,20.020
1.093,0.509,-0.382,134.399,-42.969,24.658
1.052,0.455,-0.376,143.677,-53.528,28.259
1.026,0.400,-0.375,151.428,-59.509,31.555
1.011,0.354,-0.368,157.776,-60.974,34.180
1.000,0.306,-0.366,163.147,-59.265,36.926
1.001,0.254,-0.362,167.297,-54.688,39.368
1.012,0.198,-0.368,170.593,-48.035,40.833
1.026,0.165,-0.362,173.035,-41.016,41.931
1.042,0.140,-0.362,174.988,-34.485,43.396
1.059,0.112,-0.364,177.368,-28.320,44.800
1.081,0.100,-0.359,180.542,-23.682,45.410
1.094,0.081,-0.352,184.692,-20.935,45.898
1.106,0.058,-0.349,189.148,-20.691,46.509
1.098,0.040,-0.352,193.665,-22.888,46.753
1.086,0.020,-0.352,197.754,-25.330,46.997
1.081,-0.000,-0.352,201.538,-27.954,48.157
1.057,-0.010,-0.353,204.773,-30.762,50.537
1.017,-0.024,-0.365,206.848,-32.776,53.162
0.991,-0.043,-0.378,208.435,-32.654,54.871
0.964,-0.054,-0.390,209.839,-30.579,55.237
0.937,-0.062,-0.400,210.693,-26.550,55.115
0.923,-0.064,-0.410,211.731,-20.813,54.626
0.927,-0.069,-0.419,212.952,-14.404,53.833
0.947,-0.069,-0.423,214.905,-7.996,52.734
0.986,-0.069,-0.420,217.529,-2.991,51.392
1.038,-0.078,-0.414,220.398,-0.854,50.354
1.088,-0.093,-0.405,222.046,-1.892,50.354
1.124,-0.117,-0.402,223.022,-6.775,50.659
1.148,-0.115,-0.397,222.961,-13.794,50.659
1.153,-0.121,-0.402,222.595,-21.790,51.208
1.150,-0.132,-0.408,222.229,-28.381,52.673
1.145,-0.147,-0.408,221.863,-33.020,55.481
1.131,-0.151,-0.413,220.825,-34.851,58.533
1.130,-0.154,-0.411,220.276,-33.630,61.646
1.151,-0.163,-0.404,219.543,-30.762,64.514
1.168,-0.169,-0.391,218.323,-27.222,67.139
1.182,-0.176,-0.375,217.285,-23.743,69.641
1.197,-0.179,-0.361,215.820,-20.325,72.266
1.195,-0.187,-0.346,214.233,-17.456,75.256
1.182,-0.198,-0.329,212.524,-14.771,78.064
1.170,-0.218,-0.311,210.205,-12.146,80.322
1.158,-0.231,-0.293,207.031,-9.583,81.543
1.153,-0.238,-0.275,203.125,-7.690,82.275
1.157,-0.241,-0.254,198.242,-5.615,82.703
1.171,-0.233,-0.237,191.895,-4.333,83.862
1.183,-0.211,-0.219,185.791,-4.272,85.632
1.187,-0.188,-0.202,179.932,-5.005,88.196
1.190,-0.193,-0.182,175.049,-6.226,92.224
1.169,-0.215,-0.168,171.448,-8.545,96.863
1.126,-0.210,-0.153,167.725,-9.827,99.609
1.098,-0.217,-0.135,164.001,-9.277,99.243
1.084,-0.239,-0.122,160.156,-7.263,97.046
1.072,-0.245,-0.105,155.518,-4.517,94.299
1.076,-0.227,-0.090,149.536,-0.732,92.224
1.091,-0.204,-0.074,143.372,3.052,90.576
1.103,-0.182,-0.059,137.268,6.775,89.783
1.105,-0.160,-0.045,131.836,9.583,89.783
1.109,-0.177,-0.041,127.625,11.414,90.027
1.099,-0.213,-0.035,123.901,13.306,89.539
1.076,-0.220,-0.017,120.483,15.869,88.135
1.048,-0.212,0.007,119.019,18.738,86.731
1.033,-0.214,0.031,118.103,21.667,85.205
1.026,-0.216,0.056,116.699,23.193,83.191
1.020,-0.205,0.086,115.295,22.888,80.688
1.020,-0.186,0.120,113.953,20.325,78.430
1.024,-0.205,0.152,112.488,15.625,76.660
0.998,-0.248,0.162,110.413,9.094,75.012
0.940,-0.248,0.174,106.812,3.235,72.266
0.894,-0.239,0.189,103.455,0.122,68.176
0.876,-0.244,0.194,100.464,-0.671,63.782
0.863,-0.242,0.203,96.680,0.427,58.533

1.312,-0.912,-0.489,-280.579,-15.930,-70.129
1.333,-0.945,-0.586,-287.231,-20.264,-71.716
1.338,-0.979,-0.684,-293.823,-23.254,-72.632
1.349,-1.027,-0.796,-301.025,-23.865,-72.998
1.367,-1.071,-0.917,-310.120,-23.254,-73.303
1.375,-1.090,-1.016,-320.984,-22.888,-73.364
1.355,-1.080,-1.124,-331.909,-24.353,-71.960
1.363,-1.078,-1.243,-342.407,-28.015,-70.374
1.408,-1.054,-1.376,-352.051,-33.508,-68.970
1.403,-0.987,-1.506,-359.497,-42.175,-68.848
1.358,-0.887,-1.624,-362.122,-51.453,-70.923
1.316,-0.778,-1.731,-359.619,-57.800,-74.219
1.307,-0.676,-1.808,-354.431,-60.059,-78.369
1.324,-0.556,-1.841,-346.985,-59.509,-83.374
1.337,-0.445,-1.864,-336.853,-59.448,-87.646
1.317,-0.356,-1.873,-325.806,-62.378,-91.309
1.284,-0.271,-1.860,-314.941,-65.552,-95.154
1.253,-0.188,-1.851,-304.382,-67.200,-99.426
1.223,-0.094,-1.831,-295.532,-66.528,-104.370
1.212,0.002,-1.791,-287.476,-62.073,-110.229
1.210,0.108,-1.744,-279.907,-54.871,-115.723
1.206,0.217,-1.687,-273.499,-45.288,-119.629
1.219,0.313,-1.608,-267.700,-34.607,-121.643
1.239,0.403,-1.525,-263.000,-24.048,-121.887
1.230,0.514,-1.463,-258.545,-15.320,-119.995
1.159,0.657,-1.386,-251.038,-7.568,-116.333
1.196,0.769,-1.286,-239.685,2.258,-111.572
1.200,0.818,-1.197,-225.525,10.437,-108.459
1.182,0.942,-1.104,-210.937,15.747,-108.704
1.290,0.987,-0.969,-195.740,17.883,-108.093
1.273,1.093,-0.927,-181.519,14.771,-111.633
1.250,1.147,-0.852,-166.016,13.367,-106.873
1.314,1.162,-0.786,-152.771,14.526,-99.121
1.290,1.234,-0.761,-141.235,15.198,-90.942
1.232,1.268,-0.715,-129.822,16.785,-80.933
1.301,1.327,-0.636,-117.981,19.653,-71.411
1.276,1.360,-0.591,-103.882,16.541,-61.951
1.217,1.358,-0.587,-89.355,11.841,-51.636
1.130,1.361,-0.594,-74.402,11.353,-44.373
1.083,1.403,-0.553,-58.411,16.663,-39.551
1.116,1.367,-0.530,-39.307,23.315,-34.302
1.165,1.309,-0.474,-19.409,29.541,-29.968
1.207,1.233,-0.435,-0.488,30.884,-26.001
1.218,1.173,-0.396,16.357,27.466,-21.057
1.238,1.095,-0.368,32.043,20.813,-13.245
1.241,1.016,-0.342,46.204,12.878,-3.845
1.208,0.953,-0.328,59.082,4.517,5.066
1.171,0.875,-0.327,70.984,-1.831,12.817
1.159,0.803,-0.324,82.397,-5.554,18.066
1.160,0.734,-0.314,93.384,-8.057,21.851
1.174,0.657,-0.311,103.516,-10.498,25.574
1.185,0.588,-0.309,112.671,-13.428,29.114
1.210,0.523,-0.312,121.277,-17.212,32.776
1.220,0.470,-0.319,129.456,-22.278,36.560
1.228,0.416,-0.328,138.611,-28.381,40.161
1.245,0.360,-0.340,147.827,-35.278,43.823
1.254,0.306,-0.349,157.410,-42.053,47.852
1.235,0.265,-0.361,166.870,-48.706,51.880
1.202,0.216,-0.377,176.025,-53.467,56.274
1.165,0.166,-0.393,184.204,-56.152,60.791
1.129,0.130,-0.410,191.528,-56.458,64.636
1.091,0.095,-0.429,197.998,-54.749,67.566
1.063,0.068,-0.446,204.163,-51.453,69.641
1.039,0.055,-0.456,209.900,-47.913,70.923
1.048,0.038,-0.454,215.210,-44.678,71.716
1.073,0.023,-0.451,219.543,-43.640,72.815
1.087,-0.003,-0.455,222.961,-45.837,74.768
1.076,-0.047,-0.476,225.403,-50.659,77.332
1.035,-0.069,-0.504,226.807,-54.749,79.285
1.004,-0.081,-0.526,227.783,-55.481,79.529
0.995,-0.097,-0.559,227.295,-51.819,79.102
0.992,-0.103,-0.585,226.318,-45.044,77.942
0.999,-0.080,-0.596,225.708,-35.583,76.782
1.031,-0.069,-0.599,226.562,-25.085,76.477
1.071,-0.069,-0.595,227.905,-14.954,77.209
1.093,-0.094,-0.592,229.248,-7.019,78.674
1.092,-0.131,-0.593,229.187,-0.305,80.872
1.065,-0.162,-0.599,228.516,6.104,82.214
1.051,-0.176,-0.598,227.356,13.245,82.153
1.050,-0.182,-0.591,226.440,19.592,80.994
1.068,-0.186,-0.571,226.257,23.987,79.590
1.086,-0.180,-0.549,226.929,24.780,78.369
1.099,-0.188,-0.534,228.027,22.278,79.041
1.102,-0.188,-0.522,229.187,18.066,81.482
1.080,-0.175,-0.520,230.225,13.245,85.144
1.064,-0.161,-0.511,231.262,9.460,88.013
1.061,-0.172,-0.505,232.605,6.592,89.722
1.041,-0.166,-0.497,233.398,4.761,89.722
1.040,-0.155,-0.479,233.032,5.737,89.966
1.062,-0.140,-0.450,231.201,8.240,91.370
1.086,-0.133,-0.422,227.966,11.719,93.384
1.120,-0.134,-0.395,223.877,15.137,94.727
1.188,-0.145,-0.365,218.994,17.517,93.628
1.279,-0.158,-0.336,213.379,17.334,90.881
1.347,-0.159,-0.309,206.909,13.794,86.792
1.388,-0.153,-0.284,200.928,8.728,82.642
1.404,-0.151,-0.261,195.374,3.357,80.505
1.378,-0.140,-0.244,189.209,-0.793,81.726
1.365,-0.131,-0.226,183.960,-2.258,85.876
1.379,-0.123,-0.200,178.833,-1.160,90.820
1.374,-0.132,-0.166,174.866,0.732,95.093
1.353,-0.161,-0.132,172.058,1.282,98.999
1.318,-0.198,-0.101,169.006,0.427,102.173
1.289,-0.234,-0.067,165.710,-1.038,102.905
1.282,-0.257,-0.025,162.720,-3.235,100.708
1.266,-0.262,0.013,158.508,-6.836,97.351
1.214,-0.271,0.038,154.541,-11.108,93.628
1.181,-0.284,0.062,150.757,-14.099,90.576
1.166,-0.285,0.097,145.752,-15.259,88.928
1.146,-0.284,0.131,140.503,-15.686,88.562
1.111,-0.288,0.168,135.803,-16.357,87.952
1.064,-0.281,0.199,130.615,-17.151,86.060
1.017,-0.283,0.218,125.610,-17.578,82.886
0.966,-0.291,0.228,120.911,-16.602,78.064
0.926,-0.285,0.241,115.173,-13.794,72.266
0.902,-0.266,0.254,109.070,-9.949,66.223
0.894,-0.250,0.269,103.271,-6.287,60.608
0.906,-0.246,0.291,96.313,-3.052,55.969
0.925,-0.238,0.311,88.562,-2.319,53.833

1.427,-0.678,-0.600,-231.201,13.000,-75.684
1.407,-0.636,-0.656,-243.652,-0.244,-74.219
1.344,-0.621,-0.731,-253.723,-16.968,-71.350
1.263,-0.601,-0.828,-263.123,-33.508,-68.909
1.154,-0.574,-0.920,-271.606,-46.936,-69.336
1.056,-0.557,-1.004,-279.358,-54.626,-72.998
0.980,-0.527,-1.091,-288.391,-55.908,-77.698
0.920,-0.480,-1.171,-297.729,-51.392,-84.045
0.918,-0.419,-1.228,-307.312,-42.175,-91.553
0.955,-0.358,-1.276,-316.711,-31.189,-99.121
1.034,-0.277,-1.298,-324.341,-21.118,-105.286
1.125,-0.191,-1.301,-328.674,-14.099,-110.046
1.215,-0.138,-1.320,-330.139,-11.841,-112.122
1.289,-0.078,-1.333,-329.285,-14.343,-111.572
1.323,-0.015,-1.334,-326.477,-19.836,-108.887
1.341,0.041,-1.335,-321.472,-26.611,-105.164
1.340,0.092,-1.329,-315.430,-33.020,-101.868
1.324,0.144,-1.327,-308.289,-37.048,-99.670
1.292,0.194,-1.327,-301.025,-37.964,-98.816
1.245,0.259,-1.302,-293.640,-35.583,-98.022
1.230,0.310,-1.268,-286.255,-31.555,-96.436
1.234,0.356,-1.238,-278.625,-28.381,-93.994
1.197,0.415,-1.204,-270.935,-27.100,-91.553
1.157,0.470,-1.175,-262.024,-26.184,-90.210
1.142,0.512,-1.143,-253.113,-24.658,-89.661
1.197,0.559,-1.086,-243.652,-22.278,-89.478
1.091,0.621,-1.084,-234.558,-20.447,-89.355
1.132,0.672,-1.044,-225.464,-17.090,-88.928
1.147,0.762,-0.987,-214.233,-13.428,-91.614
1.175,0.803,-0.889,-201.477,-10.620,-94.360
1.245,0.871,-0.828,-188.599,-10.559,-96.558
1.250,0.937,-0.758,-174.927,-12.207,-95.581
1.260,0.962,-0.697,-161.621,-13.245,-89.294
1.215,0.990,-0.661,-149.780,-13.000,-82.275
1.160,1.049,-0.614,-138.062,-8.362,-76.355
1.140,1.110,-0.542,-125.183,0.549,-70.374
1.126,1.143,-0.477,-110.291,10.681,-64.758
1.113,1.171,-0.410,-94.543,19.226,-59.631
1.104,1.184,-0.342,-78.613,24.597,-54.260
1.105,1.176,-0.286,-62.195,26.611,-49.561
1.119,1.139,-0.238,-45.898,26.062,-44.861
1.148,1.095,-0.198,-31.860,23.682,-39.490
1.171,1.060,-0.162,-19.531,19.958,-33.325
1.200,1.020,-0.127,-8.240,15.015,-26.428
1.219,0.978,-0.103,2.991,8.850,-19.043
1.209,0.939,-0.091,15.198,2.686,-12.390
1.194,0.893,-0.086,29.419,-1.770,-5.920
1.182,0.838,-0.082,44.556,-4.150,-0.427
1.173,0.764,-0.078,60.425,-4.578,4.517
1.155,0.699,-0.075,74.951,-4.578,8.423
1.134,0.648,-0.069,88.013,-4.333,12.756
1.126,0.588,-0.066,99.915,-5.127,17.639
1.127,0.530,-0.072,111.145,-6.531,23.560
1.140,0.492,-0.065,120.178,-8.911,30.945
1.157,0.446,-0.072,128.296,-13.000,38.330
1.157,0.402,-0.093,135.010,-18.494,44.006
1.156,0.376,-0.113,140.381,-24.414,48.584
1.145,0.352,-0.148,145.508,-30.701,52.673
1.133,0.340,-0.189,150.940,-36.621,56.396
1.112,0.324,-0.232,156.860,-40.466,59.875
1.110,0.300,-0.266,163.452,-42.236,62.439
1.116,0.287,-0.294,169.678,-42.603,65.247
1.114,0.266,-0.322,176.453,-42.358,68.054
1.115,0.243,-0.351,183.594,-41.626,70.374
1.095,0.218,-0.378,191.223,-40.222,71.777
1.070,0.184,-0.405,198.242,-37.170,72.815
1.052,0.148,-0.427,204.041,-32.593,73.730
1.052,0.104,-0.443,208.191,-26.733,74.219
1.054,0.074,-0.450,210.876,-20.325,74.768
1.077,0.041,-0.459,212.036,-14.587,75.684
1.107,0.020,-0.471,211.548,-10.010,76.355
1.106,0.010,-0.484,210.388,-6.165,76.538
1.107,0.002,-0.496,209.534,-2.197,76.782
1.106,-0.003,-0.505,209.473,1.892,77.698
1.105,-0.001,-0.511,210.083,6.775,78.430
1.103,-0.001,-0.514,211.426,11.658,78.796
1.114,-0.004,-0.511,213.318,16.357,78.796
1.125,-0.016,-0.506,215.759,19.958,78.552
1.138,-0.021,-0.500,218.140,22.400,78.125
1.152,-0.028,-0.490,219.666,23.987,78.125
1.164,-0.042,-0.490,220.520,23.926,78.796
1.155,-0.044,-0.490,220.886,23.193,79.346
1.145,-0.032,-0.500,219.849,22.827,80.505
1.140,-0.020,-0.506,218.079,23.682,81.482
1.145,-0.007,-0.505,216.492,25.452,82.153
1.172,0.011,-0.496,215.271,28.015,82.397
1.227,0.022,-0.489,214.966,30.029,82.458
1.285,0.025,-0.478,214.600,29.907,82.336
1.343,0.030,-0.461,213.928,27.222,82.153
1.395,0.031,-0.445,214.417,21.912,82.581
1.436,0.027,-0.434,215.759,14.160,83.740
1.438,0.017,-0.420,217.163,5.005,86.304
1.399,-0.003,-0.402,218.750,-3.967,89.783
1.307,-0.032,-0.400,220.520,-10.742,93.445
1.211,-0.063,-0.398,220.703,-12.085,96.313
1.129,-0.094,-0.390,219.666,-8.545,97.351
1.076,-0.139,-0.373,216.553,-0.916,96.375
1.076,-0.185,-0.342,210.937,8.728,95.459
1.101,-0.208,-0.301,202.759,17.212,96.802
1.127,-0.228,-0.262,193.726,21.851,100.159
1.117,-0.240,-0.228,185.242,22.400,103.210
1.075,-0.243,-0.190,178.467,20.020,103.699
1.010,-0.243,-0.161,174.866,17.273,101.440
0.941,-0.240,-0.137,173.096,15.686,96.924
0.881,-0.247,-0.110,172.058,15.625,91.003
0.863,-0.277,-0.086,170.044,16.785,83.923
0.860,-0.294,-0.055,165.222,17.334,77.454
0.867,-0.313,-0.022,157.532,15.564,72.693
0.894,-0.335,0.001,147.705,12.878,68.481
0.922,-0.341,0.029,137.024,10.376,63.354
0.937,-0.328,0.062,127.136,8.362,57.251
0.956,-0.310,0.095,118.896,6.836,51.697
0.985,-0.295,0.125,112.122,4.822,47.668
1.002,-0.282,0.159,106.262,2.747,45.044
1.012,-0.271,0.194,100.891,-0.305,44.556
1.000,-0.264,0.218,96.130,-3.906,45.898
0.976,-0.267,0.231,91.919,-7.751,47.546
0.946,-0.279,0.239,87.280,-10.437,48.462
0.927,-0.291,0.247,82.275,-11.841,47.241

1.237,-1.108,-0.407,-182.739,-1.343,-65.002
1.291,-1.112,-0.521,-202.942,10.864,-70.801
1.333,-1.092,-0.620,-223.267,21.484,-72.571
1.332,-1.039,-0.717,-243.652,27.100,-69.580
1.275,-0.968,-0.835,-261.963,29.602,-64.270
1.196,-0.895,-0.945,-276.062,32.837,-59.021
1.144,-0.853,-1.033,-288.208,38.208,-53.467
1.107,-0.811,-1.144,-301.270,42.969,-49.438
1.057,-0.774,-1.273,-315.979,45.410,-48.889
1.029,-0.742,-1.411,-332.947,46.875,-50.110
1.011,-0.671,-1.571,-351.562,46.936,-52.612
0.962,-0.563,-1.701,-370.300,48.157,-55.054
0.904,-0.422,-1.773,-387.695,51.270,-55.359
0.852,-0.271,-1.797,-398.743,55.664,-51.636
0.801,-0.144,-1.777,-401.733,59.875,-46.143
0.795,-0.052,-1.716,-397.034,63.660,-41.321
0.838,0.013,-1.648,-388.977,63.721,-36.987
0.866,0.064,-1.601,-380.615,55.542,-33.020
0.860,0.108,-1.585,-371.887,39.917,-30.701
0.813,0.147,-1.620,-365.173,20.264,-30.823
0.775,0.227,-1.642,-361.633,1.526,-30.945
0.736,0.342,-1.663,-357.666,-14.282,-30.273
0.680,0.461,-1.644,-349.487,-24.780,-30.701
0.626,0.571,-1.588,-337.708,-28.503,-31.799
0.609,0.659,-1.530,-322.998,-27.161,-33.997
0.661,0.730,-1.465,-306.091,-22.949,-38.391
0.744,0.794,-1.396,-288.269,-20.447,-45.166
0.849,0.843,-1.331,-269.714,-21.912,-53.162
0.979,0.882,-1.278,-252.563,-28.503,-59.570
0.910,0.908,-1.256,-237.427,-39.124,-62.073
1.139,0.908,-1.257,-225.769,-49.011,-59.021
1.131,1.011,-1.234,-215.393,-54.504,-55.908
1.039,1.006,-1.204,-202.026,-56.091,-51.636
1.182,1.036,-1.246,-187.439,-52.795,-49.438
1.137,1.167,-1.177,-172.485,-41.687,-49.011
1.057,1.164,-1.179,-152.710,-28.503,-40.588
1.162,1.175,-1.077,-132.080,-11.536,-32.593
1.159,1.166,-1.031,-113.281,5.737,-26.733
1.126,1.144,-0.954,-94.177,19.531,-22.888
1.096,1.139,-0.856,-76.294,30.884,-19.836
1.146,1.125,-0.756,-59.326,37.903,-15.503
1.173,1.106,-0.659,-44.189,36.926,-11.963
1.154,1.097,-0.570,-29.846,28.564,-9.155
1.120,1.056,-0.526,-16.113,15.198,-5.432
1.107,1.004,-0.513,-3.723,1.770,-3.357
1.088,0.975,-0.498,7.019,-8.240,-2.258
1.069,0.947,-0.496,17.029,-15.686,0.671
1.065,0.914,-0.500,27.161,-19.897,4.395
1.054,0.880,-0.507,37.964,-20.874,7.874
1.048,0.835,-0.513,49.377,-19.348,10.742
1.047,0.789,-0.521,61.340,-15.320,13.672
1.039,0.740,-0.529,74.524,-10.193,16.296
1.031,0.691,-0.543,88.196,-4.639,17.822
1.037,0.640,-0.551,102.478,0.610,18.738
1.047,0.593,-0.544,117.493,4.272,17.761
1.069,0.544,-0.539,132.751,5.432,16.235
1.100,0.501,-0.529,148.071,2.075,14.587
1.116,0.454,-0.528,163.025,-5.249,14.465
1.117,0.409,-0.529,175.598,-16.174,16.846
1.100,0.362,-0.550,186.096,-29.419,21.484
1.054,0.317,-0.578,194.458,-42.358,26.306
1.003,0.278,-0.613,201.416,-51.636,30.518
0.960,0.241,-0.655,207.520,-56.213,33.752
0.908,0.206,-0.701,213.135,-55.603,34.912
0.872,0.176,-0.742,218.201,-49.438,34.973
0.862,0.146,-0.769,223.083,-39.307,34.668
0.878,0.111,-0.782,228.333,-26.794,34.729
0.917,0.073,-0.783,233.643,-13.611,34.729
0.958,0.026,-0.780,238.586,-2.136,33.142
1.012,-0.004,-0.760,243.469,7.019,29.968
1.083,-0.031,-0.728,247.009,12.268,27.100
1.158,-0.061,-0.698,249.573,10.559,24.231
1.205,-0.084,-0.674,250.671,2.563,21.912
1.234,-0.094,-0.658,250.122,-9.460,21.179
1.223,-0.094,-0.651,248.840,-23.071,21.973
1.174,-0.088,-0.657,247.375,-35.400,23.865
1.120,-0.087,-0.665,246.094,-42.358,27.527
1.083,-0.085,-0.660,246.033,-43.396,31.738
1.055,-0.082,-0.639,246.643,-39.673,35.278
1.021,-0.095,-0.621,247.375,-32.532,39.124
0.999,-0.119,-0.602,247.437,-23.254,42.480
0.990,-0.131,-0.574,246.155,-12.817,44.861
0.974,-0.142,-0.545,243.225,-2.930,46.143
0.965,-0.147,-0.508,238.770,5.859,46.448
0.986,-0.146,-0.472,233.582,13.245,45.898
1.003,-0.138,-0.441,228.577,17.883,44.250
1.035,-0.122,-0.408,224.060,19.043,42.664
1.077,-0.107,-0.381,219.788,16.357,42.053
1.095,-0.101,-0.362,215.759,10.071,42.603
1.102,-0.102,-0.345,212.097,1.526,44.312
1.091,-0.099,-0.333,208.252,-7.751,47.363
1.059,-0.106,-0.331,203.003,-16.907,51.331
1.013,-0.109,-0.322,197.693,-23.682,55.054
0.962,-0.115,-0.315,192.017,-26.855,57.861
0.919,-0.141,-0.297,185.852,-26.855,59.753
0.894,-0.167,-0.268,179.321,-24.048,60.364
0.883,-0.183,-0.234,171.936,-20.081,59.265
0.892,-0.193,-0.193,164.551,-16.357,56.946
0.933,-0.208,-0.152,157.959,-14.038,54.077
0.997,-0.220,-0.110,150.757,-13.428,50.659
1.070,-0.216,-0.056,144.470,-15.991,46.265
1.138,-0.206,-0.001,139.648,-22.949,42.358
1.181,-0.201,0.046,136.719,-34.485,40.894
1.198,-0.194,0.084,134.338,-48.279,42.114
1.159,-0.185,0.104,132.690,-61.462,45.044
1.081,-0.181,0.122,130.798,-70.374,48.828
0.998,-0.186,0.145,129.333,-73.730,52.551
0.909,-0.200,0.167,127.563,-70.618,54.993
0.840,-0.230,0.188,125.183,-61.951,55.664
0.801,-0.253,0.217,121.826,-49.194,53.650
0.771,-0.279,0.251,116.760,-34.180,48.950
0.788,-0.313,0.282,109.375,-18.250,43.823
0.837,-0.334,0.311,99.426,-3.662,38.025
0.873,-0.324,0.340,87.952,8.118,30.884
0.914,-0.309,0.369,76.233,16.907,24.231
0.976,-0.296,0.391,64.758,21.484,19.897
1.040,-0.273,0.413,54.382,22.583,17.395
1.064,-0.240,0.423,45.105,20.203,16.602
1.064,-0.206,0.420,38.208,15.686,16.846

1.003,-1.247,-0.438,-207.092,26.489,-4.639
0.987,-1.245,-0.504,-228.516,25.208,-12.024
1.035,-1.244,-0.597,-253.052,24.109,-24.719
1.104,-1.244,-0.762,-279.602,22.461,-40.039
1.106,-1.225,-0.967,-307.556,21.057,-54.688
1.077,-1.101,-1.210,-337.585,23.560,-64.514
1.046,-0.874,-1.413,-363.525,31.189,-70.496
1.045,-0.639,-1.551,-378.113,43.396,-74.524
1.090,-0.440,-1.622,-380.249,57.068,-77.271
1.156,-0.264,-1.636,-372.131,64.941,-79.895
1.214,-0.125,-1.612,-357.849,62.988,-83.374
1.276,0.001,-1.619,-342.957,50.171,-85.754
1.297,0.122,-1.635,-329.895,28.809,-86.426
1.274,0.238,-1.649,-318.604,5.615,-87.097
1.246,0.373,-1.654,-308.411,-11.292,-89.233
1.223,0.495,-1.614,-298.279,-20.752,-91.553
1.214,0.592,-1.539,-287.842,-24.597,-90.820
1.209,0.671,-1.473,-277.527,-25.635,-86.060
1.169,0.752,-1.390,-267.700,-25.818,-78.552
1.133,0.823,-1.296,-257.263,-24.597,-70.923
1.110,0.876,-1.189,-246.765,-22.888,-63.538
1.084,0.906,-1.075,-235.840,-24.292,-56.091
1.051,0.907,-0.987,-225.952,-30.090,-48.645
0.832,0.879,-0.974,-217.529,-38.818,-41.504
0.842,0.879,-0.897,-210.876,-44.617,-36.316
0.816,0.878,-0.919,-205.078,-54.077,-32.349
0.718,0.778,-0.907,-203.064,-59.753,-27.588
0.699,0.752,-0.948,-202.637,-62.317,-25.574
0.638,0.755,-1.015,-200.256,-58.105,-30.029
0.662,0.780,-1.005,-194.580,-44.617,-37.659
0.674,0.792,-1.038,-185.425,-25.818,-43.091
0.786,0.793,-0.987,-174.194,-3.601,-45.288
0.877,0.812,-0.977,-161.621,13.184,-45.044
0.946,0.785,-0.916,-149.536,26.489,-40.283
1.088,0.812,-0.828,-138.367,34.363,-35.522
1.122,0.795,-0.775,-126.831,32.715,-30.579
1.136,0.782,-0.701,-116.333,26.367,-26.428
1.121,0.786,-0.643,-105.896,17.883,-23.865
1.090,0.776,-0.600,-95.642,10.193,-22.705
1.083,0.754,-0.549,-84.595,6.531,-23.621
1.093,0.757,-0.491,-73.120,6.653,-24.597
1.110,0.766,-0.438,-60.852,8.972,-22.888
1.137,0.777,-0.384,-46.448,12.512,-18.799
1.178,0.767,-0.331,-30.212,16.113,-13.245
1.220,0.736,-0.284,-14.160,18.616,-8.057
1.237,0.719,-0.247,-0.122,18.616,-4.272
1.219,0.684,-0.232,13.489,16.052,-2.136
1.206,0.648,-0.224,25.635,13.184,-0.122
1.198,0.623,-0.219,36.560,10.132,2.136
1.173,0.594,-0.226,47.852,6.653,4.028
1.146,0.567,-0.228,59.875,3.906,4.089
1.116,0.534,-0.237,72.632,1.892,3.540
1.103,0.512,-0.240,85.754,0.305,2.930
1.098,0.477,-0.250,98.877,-1.892,3.479
1.091,0.455,-0.249,112.427,-5.676,4.333
1.061,0.431,-0.262,125.488,-10.986,6.653
1.057,0.397,-0.277,137.634,-16.724,10.559
1.059,0.359,-0.298,148.621,-23.193,15.747
1.035,0.337,-0.324,158.630,-30.212,20.020
0.982,0.321,-0.353,167.175,-35.461,23.010
0.937,0.294,-0.385,176.331,-37.781,24.902
0.870,0.257,-0.437,185.669,-36.499,25.330
0.792,0.235,-0.489,194.580,-28.687,24.170
0.770,0.203,-0.521,202.759,-14.465,22.827
0.801,0.134,-0.543,210.388,2.808,20.752
0.865,0.078,-0.561,214.966,19.958,17.761
0.937,0.050,-0.566,217.896,33.203,14.526
1.076,0.004,-0.562,220.276,40.283,11.658
1.166,-0.011,-0.564,221.680,39.612,10.071
1.241,-0.004,-0.552,223.816,31.860,11.047
1.206,0.003,-0.570,227.295,19.043,13.428
1.143,-0.008,-0.589,230.957,6.592,17.090
1.086,-0.025,-0.609,234.131,-2.014,18.311
1.012,-0.043,-0.620,237.000,-5.554,15.625
0.973,-0.072,-0.620,239.197,-4.089,11.536
0.970,-0.106,-0.610,239.319,0.854,8.179
0.983,-0.139,-0.605,236.267,7.507,6.104
1.005,-0.153,-0.586,229.980,14.221,6.531
1.056,-0.158,-0.570,222.351,18.921,9.277
1.096,-0.148,-0.555,214.417,20.386,11.536
1.116,-0.126,-0.542,208.496,18.982,13.550
1.115,-0.103,-0.525,205.017,14.832,15.930
1.116,-0.076,-0.508,203.247,9.644,19.165
1.102,-0.059,-0.497,203.735,2.808,23.132
1.055,-0.050,-0.489,205.750,-4.089,26.550
1.000,-0.047,-0.480,208.679,-9.216,29.480
0.958,-0.055,-0.474,210.327,-12.146,31.189
0.909,-0.064,-0.461,209.595,-12.939,31.311
0.881,-0.073,-0.448,205.933,-11.353,30.212
0.874,-0.068,-0.431,200.256,-9.277,29.114
0.877,-0.059,-0.417,193.542,-7.507,28.870
0.885,-0.051,-0.406,186.462,-6.531,29.114
0.901,-0.030,-0.390,179.810,-5.981,28.931
0.914,-0.004,-0.376,174.133,-5.249,28.503
0.928,0.010,-0.364,168.823,-5.066,28.809
0.953,0.027,-0.357,164.490,-5.615,28.992
0.963,0.040,-0.351,161.499,-6.958,28.564
0.964,0.039,-0.339,159.363,-9.155,28.198
0.941,0.041,-0.330,157.104,-12.939,27.954
0.900,0.041,-0.326,154.724,-16.357,27.649
0.875,0.028,-0.323,151.733,-18.372,27.283
0.854,0.022,-0.307,148.499,-18.616,25.696
0.834,0.014,-0.276,144.958,-17.944,23.437
0.876,-0.026,-0.239,141.724,-17.273,20.630
0.967,-0.076,-0.204,137.512,-17.700,15.625
1.029,-0.088,-0.167,132.690,-19.653,7.446
1.065,-0.085,-0.127,128.967,-23.621,-0.977
1.124,-0.092,-0.085,127.319,-29.663,-6.897
1.179,-0.093,-0.043,126.953,-37.354,-9.460
1.238,-0.098,0.004,127.441,-46.875,-7.629
1.294,-0.108,0.049,126.953,-58.228,-0.244
1.321,-0.129,0.087,124.390,-73.120,12.024
1.261,-0.149,0.081,120.361,-89.233,22.583
1.149,-0.179,0.043,115.784,-100.281,26.978
1.023,-0.202,0.032,110.229,-100.342,26.550
0.903,-0.214,0.014,104.187,-89.783,22.888
0.840,-0.234,0.000,98.511,-68.848,16.113
0.811,-0.255,0.011,93.201,-40.710,6.958
0.815,-0.285,0.034,88.501,-11.841,-3.052

1.064,-0.825,-0.840,-246.399,15.442,-81.177
1.168,-0.826,-0.901,-265.198,40.466,-80.872
1.297,-0.787,-0.965,-284.424,59.631,-78.186
1.378,-0.727,-1.025,-300.964,68.176,-73.120
1.392,-0.668,-1.094,-313.354,66.528,-67.017
1.341,-0.617,-1.168,-321.350,58.960,-61.890
1.257,-0.569,-1.251,-325.806,50.537,-58.472
1.165,-0.522,-1.357,-328.735,45.288,-55.847
1.079,-0.462,-1.482,-330.933,44.678,-54.626
1.021,-0.389,-1.587,-332.275,48.706,-53.345
0.994,-0.295,-1.665,-332.703,54.443,-51.147
0.969,-0.194,-1.718,-331.116,58.228,-49.255
0.943,-0.080,-1.761,-327.332,58.899,-48.523
0.914,0.047,-1.771,-319.885,56.335,-49.927
0.903,0.172,-1.750,-308.228,50.476,-53.833
0.914,0.274,-1.712,-293.823,41.199,-59.937
0.926,0.368,-1.688,-278.503,29.907,-68.176
0.938,0.459,-1.657,-262.756,18.127,-77.271
0.995,0.569,-1.597,-248.230,8.179,-86.487
1.051,0.696,-1.507,-234.009,-1.648,-94.421
1.065,0.794,-1.404,-218.323,-11.597,-100.464
1.065,0.865,-1.299,-203.125,-20.203,-104.370
1.070,0.911,-1.200,-188.599,-25.818,-106.750
1.086,0.947,-1.105,-175.720,-26.978,-107.849
1.124,0.979,-1.005,-165.833,-23.621,-107.300
1.155,1.015,-0.917,-158.081,-18.005,-103.882
1.173,1.047,-0.836,-151.367,-11.108,-98.328
1.083,1.079,-0.787,-145.142,-1.709,-91.553
1.226,1.084,-0.701,-138.184,13.123,-83.374
1.323,1.091,-0.602,-131.226,26.306,-75.500
1.304,1.135,-0.514,-124.207,31.555,-67.017
1.302,1.105,-0.402,-115.051,30.823,-56.519
1.375,1.116,-0.350,-105.286,25.635,-50.049
1.358,1.121,-0.274,-94.543,18.921,-44.189
1.294,1.108,-0.254,-81.909,9.521,-37.537
1.274,1.076,-0.229,-68.176,2.869,-31.616
1.237,1.060,-0.219,-55.542,-0.427,-27.283
1.202,1.019,-0.204,-42.908,-0.305,-23.499
1.200,0.994,-0.196,-31.189,2.441,-20.142
1.181,0.962,-0.183,-20.081,6.775,-15.442
1.159,0.921,-0.188,-10.010,10.986,-8.362
1.146,0.876,-0.194,-1.160,15.747,-1.038
1.163,0.830,-0.197,7.629,20.142,6.897
1.190,0.792,-0.205,16.785,22.034,13.611
1.204,0.756,-0.211,27.466,20.874,18.921
1.214,0.719,-0.215,40.466,16.724,23.132
1.234,0.671,-0.226,54.749,9.827,26.367
1.244,0.623,-0.238,69.641,1.221,28.381
1.248,0.580,-0.249,84.473,-7.812,29.236
1.233,0.533,-0.259,98.999,-16.785,29.968
1.222,0.487,-0.271,112.488,-25.635,31.189
1.206,0.423,-0.285,124.634,-33.325,32.532
1.166,0.367,-0.307,135.071,-39.856,34.180
1.114,0.320,-0.324,143.127,-44.373,36.804
1.078,0.274,-0.341,149.719,-46.692,40.710
1.058,0.229,-0.357,154.663,-47.424,45.227
1.035,0.191,-0.373,158.203,-46.936,49.500
1.026,0.151,-0.395,160.889,-46.448,52.673
1.024,0.108,-0.415,163.696,-45.959,53.833
1.019,0.089,-0.432,166.687,-45.166,53.650
1.032,0.077,-0.438,171.387,-44.250,52.795
1.056,0.070,-0.455,177.002,-44.067,51.880
1.050,0.063,-0.481,182.800,-45.105,51.208
1.015,0.053,-0.512,188.721,-46.936,51.270
0.979,0.043,-0.555,194.397,-46.997,51.758
0.955,0.021,-0.585,198.120,-43.701,52.490
0.943,0.005,-0.600,201.172,-37.781,52.795
0.933,-0.006,-0.606,203.674,-30.334,52.368
0.946,-0.026,-0.606,204.956,-22.217,51.453
0.972,-0.040,-0.597,206.238,-14.099,50.232
0.989,-0.054,-0.586,206.848,-7.935,48.828
1.010,-0.064,-0.571,206.543,-3.296,47.729
1.034,-0.075,-0.559,205.811,-0.488,46.387
1.061,-0.082,-0.545,204.834,0.366,45.715
1.082,-0.082,-0.535,203.735,-0.366,45.532
1.096,-0.084,-0.523,204.041,-1.953,46.021
1.121,-0.081,-0.502,205.505,-4.456,47.180
1.115,-0.074,-0.483,207.581,-7.263,48.767
1.115,-0.068,-0.458,210.999,-9.583,50.964
1.106,-0.071,-0.439,214.478,-11.597,54.077
1.077,-0.076,-0.411,216.919,-13.062,57.251
1.056,-0.084,-0.391,217.773,-13.367,59.814
1.051,-0.095,-0.353,215.576,-12.634,61.829
1.062,-0.100,-0.321,210.510,-13.367,62.805
1.080,-0.100,-0.299,203.369,-16.174,62.195
1.108,-0.096,-0.281,195.007,-20.874,60.242
1.143,-0.080,-0.265,186.584,-26.550,57.495
1.162,-0.057,-0.253,179.382,-33.875,55.481
1.171,-0.038,-0.245,173.828,-41.565,55.237
1.151,-0.023,-0.241,170.288,-47.913,56.213
1.112,-0.024,-0.243,168.091,-51.880,58.533
1.074,-0.043,-0.239,166.016,-52.368,61.462
1.038,-0.062,-0.231,162.292,-50.171,64.209
1.001,-0.077,-0.216,158.081,-45.715,66.101
0.988,-0.087,-0.196,152.466,-39.429,67.322
0.991,-0.090,-0.175,146.667,-32.471,66.528
0.991,-0.096,-0.149,142.334,-25.940,64.331
1.010,-0.104,-0.115,138.550,-21.057,62.622
1.049,-0.113,-0.079,135.681,-18.738,61.218
1.059,-0.116,-0.041,134.338,-19.287,58.777
1.050,-0.118,-0.005,133.606,-22.461,56.519
1.038,-0.124,0.033,133.362,-27.466,55.969
1.002,-0.130,0.064,132.568,-33.630,56.702
0.950,-0.144,0.081,130.127,-39.551,57.495
0.906,-0.153,0.099,125.305,-43.823,57.556
0.871,-0.155,0.121,118.713,-46.570,56.702
0.854,-0.146,0.135,109.619,-48.401,55.115
0.867,-0.142,0.155,100.037,-49.805,52.429
0.887,-0.125,0.167,91.309,-52.246,49.255
0.908,-0.113,0.186,83.862,-56.213,46.326
0.939,-0.113,0.207,78.552,-62.073,44.922
0.954,-0.101,0.217,75.439,-69.763,43.701
0.907,-0.100,0.204,75.134,-77.332,42.175
0.838,-0.114,0.185,76.721,-80.078,39.795
0.774,-0.120,0.178,78.674,-72.205,36.377
0.734,-0.130,0.170,80.688,-53.467,32.898
0.712,-0.149,0.178,82.397,-27.283,30.640
0.751,-0.183,0.199,82.520,0.671,28.809
0.844,-0.219,0.238,80.322,26.611,25.757

1.101,0.155,-1.415,-295.410,8.179,-76.172
1.109,0.229,-1.405,-295.410,4.028,-73.486
1.081,0.302,-1.391,-293.335,-0.977,-70.557
1.047,0.365,-1.363,-288.269,-5.432,-68.420
1.015,0.423,-1.322,-281.372,-9.399,-67.505
0.971,0.477,-1.274,-273.315,-13.306,-67.688
0.942,0.512,-1.220,-265.442,-16.418,-69.275
0.946,0.548,-1.166,-259.033,-19.165,-71.533
0.931,0.597,-1.105,-253.784,-22.278,-73.547
0.902,0.643,-1.045,-248.474,-25.574,-74.524
0.882,0.686,-0.998,-242.310,-28.625,-75.562
0.863,0.726,-0.959,-235.413,-30.151,-77.942
0.829,0.754,-0.917,-226.196,-29.907,-82.153
0.821,0.775,-0.876,-215.698,-26.917,-86.731
0.854,0.782,-0.834,-205.505,-21.423,-90.576
0.924,0.793,-0.788,-196.533,-14.343,-92.896
1.009,0.804,-0.737,-189.148,-7.751,-93.567
1.038,0.815,-0.703,-183.044,-2.502,-91.675
1.176,0.862,-0.646,-177.795,1.831,-87.402
1.256,0.901,-0.619,-171.692,2.502,-82.092
1.366,0.975,-0.533,-162.109,0.122,-78.125
1.314,1.050,-0.520,-149.353,-7.202,-72.632
1.330,1.030,-0.456,-134.399,-11.597,-65.125
1.399,1.113,-0.447,-119.995,-16.235,-62.073
1.283,1.132,-0.404,-104.126,-17.700,-55.725
1.225,1.120,-0.387,-88.196,-15.564,-46.387
1.220,1.132,-0.352,-73.486,-9.644,-39.429
1.172,1.112,-0.340,-60.059,-2.930,-33.447
1.146,1.100,-0.320,-46.997,5.249,-28.870
1.143,1.082,-0.305,-34.424,14.038,-23.987
1.145,1.060,-0.305,-22.644,20.630,-19.104
1.159,1.032,-0.302,-11.841,25.696,-14.099
1.178,1.001,-0.314,-1.587,28.198,-8.911
1.197,0.969,-0.330,7.996,28.259,-3.601
1.228,0.943,-0.344,18.616,25.391,1.343
1.255,0.916,-0.357,30.212,19.592,6.531
1.257,0.881,-0.366,42.603,11.475,12.024
1.249,0.845,-0.385,56.580,1.831,17.151
1.231,0.799,-0.404,71.960,-6.775,21.362
1.200,0.748,-0.421,87.769,-13.245,24.841
1.177,0.682,-0.426,104.004,-17.822,27.832
1.151,0.618,-0.431,119.141,-20.264,29.480
1.122,0.550,-0.424,133.240,-20.813,30.945
1.112,0.479,-0.411,145.630,-20.508,32.593
1.105,0.407,-0.397,155.640,-20.386,34.363
1.104,0.342,-0.380,162.720,-21.240,35.950
1.103,0.286,-0.373,166.870,-23.987,37.537
1.088,0.230,-0.384,169.006,-28.992,40.222
1.076,0.175,-0.405,170.593,-35.156,43.396
1.071,0.125,-0.432,172.424,-40.344,45.959
1.069,0.099,-0.452,174.438,-43.579,47.180
1.064,0.075,-0.475,178.284,-45.288,47.791
1.082,0.043,-0.499,184.387,-45.532,48.401
1.103,0.023,-0.501,191.284,-44.495,49.255
1.113,0.015,-0.502,198.975,-43.274,50.659
1.107,-0.003,-0.499,207.275,-41.870,52.734
1.105,-0.024,-0.487,214.233,-39.856,55.054
1.096,-0.039,-0.484,218.872,-38.391,57.861
1.076,-0.058,-0.485,221.252,-38.269,60.364
1.058,-0.103,-0.496,221.741,-38.025,61.584
1.036,-0.135,-0.504,219.849,-37.354,60.730
1.021,-0.134,-0.499,217.224,-34.729,58.960
1.024,-0.126,-0.494,214.478,-30.334,58.044
1.054,-0.129,-0.495,211.914,-24.963,58.411
1.093,-0.126,-0.488,209.473,-19.226,60.120
1.129,-0.114,-0.476,207.703,-13.733,62.744
1.155,-0.113,-0.462,207.275,-10.193,65.613
1.175,-0.105,-0.445,207.458,-8.606,68.481
1.174,-0.094,-0.426,207.642,-8.057,70.801
1.155,-0.086,-0.412,208.435,-8.972,71.777
1.132,-0.086,-0.406,209.351,-9.644,71.533
1.121,-0.089,-0.391,210.022,-9.766,70.251
1.120,-0.096,-0.375,208.923,-9.888,68.237
1.128,-0.105,-0.356,206.238,-10.620,66.650
1.149,-0.115,-0.337,200.684,-12.024,66.284
1.169,-0.121,-0.320,193.298,-15.198,66.772
1.167,-0.128,-0.312,185.791,-20.142,68.604
1.148,-0.120,-0.307,178.223,-25.391,71.838
1.114,-0.104,-0.312,172.363,-29.602,75.439
1.086,-0.086,-0.313,168.640,-31.189,79.224
1.069,-0.082,-0.312,166.077,-29.846,82.214
1.069,-0.085,-0.307,164.429,-26.306,83.862
1.084,-0.087,-0.297,163.086,-22.278,84.167
1.086,-0.086,-0.284,161.926,-19.043,84.106
1.085,-0.087,-0.267,161.194,-17.090,84.534
1.082,-0.092,-0.255,160.095,-15.869,85.693
1.074,-0.093,-0.239,159.424,-15.564,87.402
1.047,-0.091,-0.217,158.875,-15.564,89.600
1.014,-0.100,-0.200,158.447,-15.381,90.637
0.987,-0.113,-0.183,158.081,-14.038,90.149
0.960,-0.125,-0.151,157.837,-11.414,88.196
0.923,-0.122,-0.130,156.372,-8.301,86.060
0.872,-0.133,-0.107,154.968,-4.150,83.618
0.818,-0.145,-0.082,152.771,1.648,80.688
0.765,-0.156,-0.063,150.085,10.071,76.782
0.738,-0.187,-0.043,146.606,21.362,71.411
0.759,-0.227,-0.013,141.479,35.889,64.758
0.803,-0.249,0.026,134.155,51.941,57.678
0.833,-0.259,0.074,125.977,65.735,52.124
0.847,-0.277,0.108,117.798,75.928,48.401
0.876,-0.306,0.134,109.192,83.496,45.654
0.894,-0.332,0.154,99.548,88.501,42.114
0.906,-0.349,0.166,90.759,91.248,36.438
0.966,-0.363,0.170,83.008,92.407,28.320
1.062,-0.367,0.177,77.454,91.492,17.212
1.151,-0.366,0.185,73.608,87.036,4.700
1.229,-0.351,0.197,71.228,77.759,-5.493
1.283,-0.319,0.207,69.519,65.063,-11.841
1.305,-0.283,0.214,69.885,49.622,-13.428
1.307,-0.254,0.210,71.472,33.936,-10.559
1.281,-0.235,0.201,74.524,19.287,-6.470
1.232,-0.217,0.191,77.759,7.263,-3.357
1.176,-0.213,0.184,80.994,-0.549,-1.892
1.125,-0.213,0.183,83.008,-5.371,-1.160
1.081,-0.218,0.185,83.313,-8.484,-1.343
1.053,-0.222,0.189,81.238,-9.705,-1.831
1.031,-0.222,0.196,77.209,-9.888,-2.808
1.004,-0.209,0.207,71.228,-9.338,-3.174
0.982,-0.195,0.215,64.819,-8.850,-3.296

1.377,-0.138,-1.000,-281.250,-25.696,-127.502
1.359,-0.076,-1.053,-275.818,-32.227,-126.587
1.326,-0.026,-1.118,-268.005,-36.133,-127.075
1.284,0.029,-1.186,-258.545,-35.950,-129.517
1.259,0.088,-1.237,-247.681,-30.212,-133.118
1.260,0.143,-1.269,-235.535,-19.470,-136.658
1.273,0.184,-1.284,-222.778,-5.798,-140.015
1.290,0.234,-1.268,-209.717,9.216,-143.127
1.331,0.274,-1.231,-197.144,23.621,-145.203
1.400,0.307,-1.176,-185.852,34.241,-145.020
1.435,0.357,-1.114,-176.941,39.185,-142.456
1.418,0.409,-1.056,-169.434,39.551,-137.817
1.383,0.449,-0.999,-162.048,38.208,-132.202
1.324,0.495,-0.942,-154.968,37.598,-127.136
1.247,0.538,-0.878,-147.278,39.490,-122.986
1.193,0.557,-0.814,-139.526,44.434,-120.117
1.166,0.565,-0.754,-132.690,51.758,-116.882
1.135,0.577,-0.710,-128.113,60.425,-112.427
1.094,0.575,-0.684,-126.343,69.641,-106.934
1.099,0.588,-0.667,-127.075,79.895,-99.731
1.065,0.623,-0.660,-128.723,89.600,-92.468
1.111,0.669,-0.604,-129.272,99.670,-85.693
1.143,0.771,-0.559,-127.625,106.140,-79.529
1.175,0.837,-0.493,-122.498,108.398,-72.266
1.244,0.880,-0.423,-113.770,105.408,-66.101
1.326,0.931,-0.364,-103.149,97.839,-62.012
1.345,0.993,-0.315,-91.492,86.365,-58.716
1.348,1.031,-0.272,-78.003,73.730,-55.176
1.383,1.066,-0.238,-64.453,61.584,-52.795
1.401,1.098,-0.207,-50.903,49.255,-50.781
1.399,1.109,-0.182,-37.842,37.598,-48.218
1.404,1.115,-0.168,-26.978,27.954,-44.128
1.406,1.117,-0.164,-17.761,19.470,-38.269
1.398,1.107,-0.167,-9.399,12.573,-31.799
1.380,1.094,-0.175,-1.221,7.324,-24.963
1.350,1.073,-0.188,7.629,3.845,-18.127
1.337,1.046,-0.207,17.822,1.831,-10.986
1.319,1.014,-0.234,29.602,0.732,-4.822
1.306,0.981,-0.257,43.030,0.549,0.671
1.295,0.941,-0.277,58.655,0.977,7.141
1.285,0.887,-0.291,74.402,0.793,14.282
1.278,0.826,-0.307,89.661,-0.916,20.996
1.265,0.767,-0.325,104.248,-3.906,26.917
1.250,0.699,-0.345,117.798,-8.179,32.166
1.232,0.626,-0.372,129.883,-13.916,36.194
1.204,0.563,-0.398,140.259,-20.691,38.940
1.176,0.501,-0.425,149.353,-27.832,41.565
1.148,0.445,-0.454,158.325,-35.095,44.128
1.118,0.395,-0.478,166.687,-42.358,45.654
1.096,0.344,-0.502,175.781,-48.828,47.241
1.089,0.297,-0.531,184.998,-54.810,47.791
1.078,0.256,-0.555,194.031,-60.059,47.607
1.068,0.219,-0.575,202.148,-64.575,48.096
1.063,0.180,-0.609,210.388,-68.787,48.645
1.060,0.140,-0.642,218.506,-71.228,48.889
1.061,0.099,-0.669,225.525,-71.533,49.988
1.065,0.063,-0.696,231.201,-70.496,51.880
1.080,0.021,-0.722,234.985,-68.054,53.711
1.116,-0.023,-0.743,237.122,-63.843,55.603
1.172,-0.062,-0.750,238.525,-59.387,57.068
1.239,-0.104,-0.751,239.563,-56.152,57.983
1.290,-0.141,-0.746,240.417,-55.359,58.716
1.315,-0.171,-0.734,240.906,-57.007,60.486
1.331,-0.204,-0.720,239.868,-60.425,62.500
1.326,-0.224,-0.709,238.159,-65.125,65.369
1.288,-0.240,-0.697,236.267,-69.702,68.359
1.251,-0.254,-0.688,233.887,-72.083,72.388
1.212,-0.267,-0.677,230.469,-71.838,77.209
1.162,-0.277,-0.657,226.257,-68.359,82.275
1.112,-0.286,-0.635,221.436,-61.646,87.463
1.070,-0.285,-0.617,216.431,-52.429,92.285
1.030,-0.286,-0.597,211.060,-41.260,96.680
1.011,-0.286,-0.573,206.177,-28.381,99.915
1.023,-0.280,-0.549,201.782,-15.442,102.051
1.037,-0.263,-0.521,198.181,-5.554,102.295
1.066,-0.257,-0.493,195.435,1.343,101.074
1.107,-0.255,-0.476,193.726,4.639,98.450
1.140,-0.240,-0.450,193.542,4.150,93.384
1.155,-0.220,-0.422,195.190,0.061,87.463
1.152,-0.204,-0.400,197.205,-6.958,82.031
1.136,-0.192,-0.381,198.425,-15.259,77.332
1.112,-0.197,-0.360,197.266,-23.865,74.402
1.084,-0.200,-0.337,193.359,-31.433,72.632
1.064,-0.212,-0.313,186.829,-37.292,71.716
1.034,-0.229,-0.294,177.490,-41.199,71.411
1.035,-0.252,-0.275,165.833,-43.152,71.289
1.048,-0.261,-0.255,153.015,-43.091,70.251
1.041,-0.261,-0.231,139.282,-41.870,69.031
1.032,-0.259,-0.202,126.709,-40.771,68.176
1.048,-0.264,-0.170,114.685,-40.161,67.200
1.057,-0.262,-0.125,103.210,-41.016,65.491
1.055,-0.261,-0.074,93.018,-44.678,63.293
1.046,-0.256,-0.015,83.923,-51.636,61.462
1.018,-0.255,0.021,76.111,-62.256,60.303
0.960,-0.252,0.040,70.618,-75.134,60.303
0.860,-0.259,0.031,67.078,-86.792,62.134
0.776,-0.269,0.018,65.857,-91.187,65.002
0.711,-0.293,0.013,65.186,-85.449,66.589
0.711,-0.332,0.016,64.087,-69.824,64.758
0.747,-0.356,0.047,63.477,-46.143,58.777
0.777,-0.356,0.094,63.538,-18.799,51.270
0.823,-0.349,0.149,64.758,5.798,44.678
0.895,-0.344,0.208,67.444,25.330,39.001
0.958,-0.344,0.264,70.068,37.659,34.363
0.991,-0.345,0.321,72.388,42.480,30.884
1.022,-0.358,0.373,74.646,39.917,27.527
1.055,-0.382,0.409,75.439,30.945,23.621
1.066,-0.396,0.431,74.829,18.005,18.799
1.101,-0.417,0.456,73.914,3.235,14.404
1.128,-0.419,0.481,71.167,-12.085,11.780
1.104,-0.394,0.482,66.467,-28.809,11.658
1.034,-0.367,0.475,62.317,-44.067,13.306
0.983,-0.345,0.468,58.716,-53.101,16.724
0.929,-0.308,0.479,55.603,-56.152,20.203
0.876,-0.276,0.493,54.199,-54.504,22.461
0.833,-0.256,0.502,53.711,-49.133,23.193
0.795,-0.240,0.508,52.551,-40.649,22.949
0.772,-0.234,0.508,51.147,-31.006,21.423
0.768,-0.230,0.509,48.645,-20.813,18.860

1.258,-0.341,-0.938,-254.211,46.692,-63.477
1.233,-0.253,-1.017,-261.597,37.415,-65.979
1.213,-0.175,-1.072,-264.954,31.799,-69.458
1.197,-0.105,-1.105,-266.174,30.090,-72.083
1.185,-0.060,-1.149,-265.991,31.738,-73.914
1.162,-0.006,-1.166,-267.517,35.645,-74.768
1.151,0.056,-1.169,-270.447,40.649,-73.669
1.150,0.100,-1.168,-272.644,44.800,-70.435
1.138,0.140,-1.160,-275.452,47.913,-66.895
1.118,0.190,-1.133,-278.076,49.438,-63.965
1.100,0.239,-1.101,-280.029,48.279,-61.035
1.085,0.270,-1.066,-281.555,44.189,-59.509
1.065,0.322,-1.040,-283.203,38.513,-59.265
1.031,0.382,-1.014,-283.142,31.677,-59.082
1.012,0.435,-0.989,-281.128,25.085,-59.387
1.010,0.484,-0.962,-277.710,18.677,-60.486
1.025,0.532,-0.946,-273.926,12.573,-60.669
1.005,0.591,-0.942,-269.287,6.348,-60.059
0.988,0.653,-0.917,-262.573,2.625,-59.998
0.976,0.716,-0.884,-255.310,1.221,-60.608
0.979,0.773,-0.848,-247.192,0.977,-61.951
0.934,0.830,-0.824,-238.525,1.892,-64.636
0.953,0.886,-0.792,-229.431,5.188,-67.566
0.968,0.938,-0.762,-218.994,10.620,-70.190
1.059,0.961,-0.678,-208.069,16.602,-70.435
1.159,1.027,-0.618,-198.120,17.761,-70.557
1.181,1.104,-0.556,-187.805,14.648,-67.505
1.224,1.145,-0.503,-175.476,9.155,-60.974
1.245,1.200,-0.463,-161.072,1.648,-56.030
1.237,1.256,-0.412,-144.043,-4.578,-50.781
1.216,1.297,-0.366,-125.793,-9.766,-45.471
1.211,1.312,-0.334,-106.812,-12.695,-40.344
1.210,1.308,-0.309,-88.013,-13.794,-36.865
1.201,1.298,-0.281,-69.641,-13.550,-33.691
1.192,1.276,-0.265,-52.368,-13.000,-28.503
1.173,1.243,-0.254,-36.499,-12.024,-22.400
1.158,1.203,-0.251,-20.691,-10.193,-16.296
1.146,1.159,-0.254,-5.676,-7.751,-10.681
1.144,1.111,-0.255,8.728,-4.761,-5.676
1.152,1.053,-0.259,23.254,-3.113,-1.526
1.182,0.991,-0.263,36.499,-2.808,3.235
1.208,0.925,-0.269,49.438,-4.211,8.728
1.234,0.872,-0.268,61.340,-7.507,15.381
1.242,0.821,-0.274,72.998,-13.062,23.132
1.225,0.769,-0.283,84.961,-19.836,30.151
1.201,0.725,-0.306,96.497,-26.062,36.682
1.154,0.665,-0.324,108.398,-31.067,41.992
1.114,0.616,-0.333,119.507,-34.485,45.654
1.067,0.577,-0.352,130.066,-36.926,47.974
1.021,0.514,-0.376,140.442,-37.415,49.866
1.007,0.454,-0.393,150.330,-36.072,51.086
1.002,0.403,-0.398,158.508,-32.776,52.124
1.006,0.360,-0.409,165.039,-30.090,52.917
1.029,0.315,-0.422,169.983,-27.161,53.467
1.061,0.275,-0.435,174.316,-24.841,53.162
1.114,0.228,-0.449,177.307,-23.804,53.345
1.157,0.199,-0.461,179.382,-24.475,54.565
1.185,0.168,-0.485,180.725,-26.855,56.519
1.201,0.147,-0.503,182.556,-30.151,59.082
1.191,0.131,-0.535,186.218,-33.203,61.829
1.157,0.112,-0.563,192.261,-34.790,64.697
1.121,0.084,-0.588,198.914,-33.508,66.956
1.097,0.047,-0.605,206.055,-28.748,67.688
1.092,0.010,-0.609,212.891,-21.484,66.528
1.109,-0.027,-0.602,219.421,-13.672,64.453
1.152,-0.058,-0.584,224.121,-8.057,62.439
1.214,-0.075,-0.571,226.135,-5.981,61.401
1.256,-0.097,-0.550,226.868,-8.301,60.852
1.266,-0.113,-0.527,226.868,-14.954,60.852
1.256,-0.116,-0.512,226.135,-24.902,62.012
1.241,-0.118,-0.511,224.548,-35.583,63.904
1.212,-0.123,-0.516,223.267,-44.922,66.345
1.173,-0.132,-0.517,222.107,-51.208,68.604
1.128,-0.141,-0.515,221.375,-53.345,71.045
1.083,-0.146,-0.505,221.436,-51.941,73.608
1.055,-0.154,-0.492,221.924,-47.485,76.599
1.043,-0.167,-0.475,222.961,-41.687,78.369
1.030,-0.177,-0.454,222.839,-35.156,79.468
1.019,-0.175,-0.439,222.717,-28.809,80.139
1.019,-0.179,-0.425,222.717,-22.827,80.505
1.030,-0.190,-0.410,222.107,-17.700,79.895
1.065,-0.202,-0.385,220.276,-14.099,79.285
1.131,-0.213,-0.352,217.346,-13.123,78.247
1.189,-0.209,-0.317,213.074,-15.686,77.881
1.220,-0.202,-0.299,208.740,-22.705,78.796
1.222,-0.199,-0.283,205.383,-32.166,80.811
1.198,-0.197,-0.263,202.820,-41.504,83.618
1.149,-0.186,-0.240,200.134,-49.377,86.609
1.088,-0.180,-0.221,198.059,-55.115,89.478
1.019,-0.192,-0.205,196.533,-56.946,91.553
0.962,-0.203,-0.189,195.007,-54.810,92.834
0.915,-0.220,-0.168,192.505,-49.072,93.201
0.918,-0.256,-0.148,187.805,-40.649,93.018
0.935,-0.294,-0.123,180.908,-31.433,91.858
0.951,-0.326,-0.089,172.180,-22.827,90.027
0.996,-0.343,-0.045,163.635,-16.296,87.585
1.025,-0.339,0.004,155.823,-13.672,84.961
1.013,-0.331,0.054,150.330,-14.954,82.581
0.997,-0.341,0.102,145.996,-19.165,81.360
0.969,-0.358,0.139,142.883,-25.818,80.566
0.918,-0.373,0.165,140.747,-32.898,78.186
0.863,-0.390,0.197,139.709,-38.086,73.242
0.830,-0.420,0.223,139.038,-39.734,65.491
0.818,-0.463,0.246,137.451,-37.109,55.359
0.831,-0.494,0.280,132.324,-29.541,45.715
0.857,-0.509,0.322,124.451,-20.142,36.865
0.881,-0.512,0.351,115.479,-12.024,27.893
0.920,-0.506,0.386,106.445,-4.883,19.592
0.974,-0.493,0.423,97.229,0.916,13.672
0.996,-0.473,0.460,88.684,2.258,9.888
0.989,-0.454,0.483,81.360,0.122,7.202
0.983,-0.450,0.484,75.806,-4.639,4.822
0.981,-0.464,0.498,70.435,-8.423,4.456
0.947,-0.467,0.512,63.416,-10.010,7.324
0.918,-0.462,0.511,56.030,-11.108,11.780
0.914,-0.458,0.509,49.255,-10.193,15.747
0.920,-0.452,0.513,41.992,-6.653,18.188
0.912,-0.435,0.512,36.255,-1.160,17.944
0.898,-0.417,0.517,32.166,5.676,16.174

1.080,-0.815,-0.713,-256.531,-8.850,-88.623
1.091,-0.815,-0.786,-270.752,-2.380,-93.750
1.120,-0.814,-0.864,-285.950,5.920,-98.694
1.128,-0.795,-0.934,-301.086,16.052,-103.638
1.150,-0.787,-1.018,-316.345,27.283,-108.459
1.202,-0.775,-1.116,-331.909,38.879,-113.403
1.239,-0.745,-1.193,-346.069,49.927,-117.920
1.275,-0.719,-1.272,-357.361,59.387,-120.544
1.328,-0.690,-1.367,-367.187,65.918,-122.437
1.395,-0.663,-1.441,-376.099,70.496,-123.901
1.460,-0.629,-1.499,-383.850,73.853,-125.122
1.489,-0.571,-1.563,-388.245,75.134,-126.160
1.494,-0.500,-1.605,-389.221,74.646,-125.671
1.472,-0.431,-1.634,-388.733,73.853,-122.559
1.420,-0.356,-1.662,-386.841,73.486,-117.920
1.364,-0.258,-1.662,-383.301,74.280,-111.389
1.339,-0.153,-1.644,-378.113,75.012,-103.271
1.333,-0.048,-1.593,-369.934,73.547,-94.116
1.293,0.059,-1.528,-358.521,67.871,-83.801
1.248,0.163,-1.464,-345.459,57.800,-74.463
1.211,0.255,-1.385,-330.627,44.067,-67.566
1.164,0.341,-1.326,-315.369,28.625,-64.331
1.108,0.431,-1.288,-300.232,13.611,-65.430
1.060,0.524,-1.249,-285.950,1.831,-67.932
1.021,0.621,-1.213,-271.851,-5.310,-70.068
1.002,0.710,-1.182,-257.690,-7.263,-73.242
0.951,0.791,-1.161,-244.019,-3.418,-76.843
0.787,0.872,-1.173,-230.896,8.118,-78.674
1.068,0.874,-1.110,-218.445,28.992,-77.637
1.135,0.935,-1.049,-206.665,45.349,-80.750
1.091,1.002,-0.935,-195.862,55.542,-82.336
1.181,1.063,-0.811,-184.326,56.885,-77.454
1.268,1.142,-0.791,-170.837,46.570,-70.374
1.245,1.113,-0.732,-155.029,36.194,-58.838
1.182,1.164,-0.720,-140.991,27.771,-50.476
1.178,1.191,-0.614,-125.854,23.132,-40.344
1.211,1.154,-0.551,-107.849,13.062,-33.081
1.193,1.218,-0.586,-89.661,-2.075,-35.156
1.132,1.225,-0.572,-71.655,-8.179,-33.020
1.158,1.235,-0.548,-53.040,-8.911,-29.602
1.189,1.214,-0.540,-32.776,-9.094,-27.344
1.169,1.203,-0.514,-12.146,-8.484,-25.696
1.180,1.174,-0.482,7.446,-6.958,-20.813
1.225,1.119,-0.473,26.489,-6.775,-13.611
1.260,1.053,-0.456,44.312,-8.240,-5.676
1.285,0.992,-0.437,61.157,-11.658,2.991
1.317,0.919,-0.427,77.026,-17.639,11.780
1.325,0.836,-0.424,92.163,-25.513,18.860
1.312,0.770,-0.423,106.934,-33.691,23.621
1.259,0.706,-0.429,121.948,-41.748,27.039
1.223,0.641,-0.431,137.024,-48.157,29.602
1.203,0.566,-0.422,152.222,-52.673,32.166
1.174,0.498,-0.421,167.114,-56.152,34.424
1.157,0.428,-0.419,180.908,-58.655,37.109
1.138,0.359,-0.410,192.566,-60.486,42.419
1.135,0.296,-0.410,201.904,-62.622,48.340
1.139,0.223,-0.427,208.191,-63.965,53.528
1.130,0.162,-0.447,212.097,-64.636,57.922
1.124,0.110,-0.466,214.539,-64.697,61.707
1.118,0.077,-0.484,216.064,-63.965,65.430
1.109,0.048,-0.503,216.980,-62.317,69.336
1.096,0.020,-0.522,218.384,-59.387,72.449
1.091,-0.012,-0.539,220.154,-54.871,74.585
1.107,-0.054,-0.562,222.595,-49.316,76.477
1.127,-0.097,-0.578,225.403,-43.640,78.003
1.150,-0.128,-0.587,229.065,-39.429,78.796
1.151,-0.154,-0.593,232.910,-36.743,80.200
1.146,-0.188,-0.602,236.938,-35.645,82.092
1.164,-0.223,-0.612,239.746,-35.217,82.642
1.168,-0.253,-0.621,242.249,-34.912,81.055
1.156,-0.282,-0.622,245.239,-33.997,78.430
1.138,-0.303,-0.618,247.681,-32.166,76.294
1.139,-0.329,-0.609,249.390,-29.541,75.378
1.157,-0.354,-0.591,249.451,-26.550,75.500
1.154,-0.369,-0.574,248.352,-24.597,76.843
1.132,-0.376,-0.557,246.704,-24.292,79.529
1.099,-0.375,-0.543,244.324,-25.330,83.191
1.053,-0.372,-0.532,241.272,-26.001,87.097
1.002,-0.366,-0.523,237.915,-24.963,90.820
0.962,-0.353,-0.522,234.924,-21.973,93.323
0.930,-0.346,-0.520,232.239,-16.479,94.238
0.917,-0.335,-0.514,229.614,-9.338,93.933
0.931,-0.312,-0.507,227.539,-2.136,92.224
0.970,-0.292,-0.495,225.647,3.601,89.661
0.992,-0.271,-0.482,225.159,8.179,86.853
1.027,-0.254,-0.460,225.830,10.681,84.045
1.080,-0.232,-0.428,226.624,10.620,81.604
1.138,-0.218,-0.399,226.746,8.057,78.308
1.205,-0.212,-0.367,227.051,2.869,73.730
1.253,-0.207,-0.333,225.769,-4.150,68.787
1.261,-0.203,-0.292,224.060,-13.794,65.002
1.253,-0.213,-0.264,221.436,-25.330,63.599
1.233,-0.244,-0.240,217.651,-36.255,63.660
1.186,-0.281,-0.211,211.914,-43.762,64.331
1.108,-0.303,-0.190,205.261,-46.692,65.063
1.040,-0.332,-0.161,197.388,-44.067,66.162
1.027,-0.361,-0.136,189.209,-38.025,65.979
1.050,-0.389,-0.105,181.213,-28.870,62.561
1.096,-0.415,-0.049,173.279,-19.409,57.190
1.172,-0.418,0.007,165.161,-14.954,52.246
1.238,-0.411,0.055,158.142,-17.700,48.950
1.265,-0.403,0.116,151.672,-26.428,48.645
1.248,-0.398,0.164,146.362,-41.687,51.758
1.216,-0.400,0.189,142.700,-61.707,56.702
1.173,-0.411,0.205,140.259,-81.299,62.195
1.096,-0.422,0.208,137.695,-97.412,67.871
1.005,-0.424,0.203,134.155,-108.398,72.632
0.902,-0.415,0.211,130.432,-112.366,74.951
0.802,-0.404,0.218,126.648,-109.070,74.768
0.718,-0.406,0.228,121.948,-99.915,72.815
0.655,-0.419,0.246,116.089,-85.754,69.031
0.612,-0.433,0.272,109.558,-67.444,63.293
0.610,-0.446,0.306,102.051,-47.363,55.847
0.656,-0.459,0.350,93.750,-27.710,47.485
0.724,-0.469,0.393,84.900,-11.230,38.696
0.803,-0.470,0.425,76.050,0.061,30.212
0.886,-0.475,0.453,67.505,6.226,23.560
0.948,-0.474,0.467,59.326,6.836,19.531
0.999,-0.458,0.471,50.537,2.747,17.944

1.123,-0.856,-0.668,-246.765,52.551,-90.454
1.210,-0.844,-0.756,-254.089,50.720,-92.102
1.260,-0.804,-0.849,-262.024,45.532,-93.872
1.266,-0.764,-0.941,-269.287,38.452,-95.398
1.279,-0.710,-1.033,-276.611,31.799,-96.802
1.295,-0.640,-1.119,-282.471,26.489,-99.426
1.315,-0.571,-1.197,-286.072,22.339,-102.112
1.328,-0.508,-1.269,-287.781,19.104,-103.638
1.330,-0.455,-1.338,-287.231,17.151,-104.736
1.327,-0.390,-1.390,-285.583,17.090,-105.530
1.317,-0.329,-1.431,-283.508,18.494,-105.530
1.304,-0.273,-1.472,-280.823,20.874,-105.774
1.285,-0.204,-1.497,-278.809,24.658,-106.079
1.259,-0.126,-1.501,-276.306,30.579,-106.384
1.238,-0.053,-1.489,-273.437,37.170,-106.445
1.234,0.013,-1.460,-270.264,43.762,-106.323
1.235,0.085,-1.431,-267.395,49.255,-104.980
1.231,0.175,-1.391,-263.977,52.002,-103.027
1.217,0.262,-1.339,-258.911,52.368,-100.098
1.206,0.337,-1.283,-252.625,50.781,-97.046
1.183,0.411,-1.227,-245.361,48.096,-94.421
1.151,0.484,-1.168,-237.366,44.983,-93.140
1.120,0.563,-1.107,-227.783,42.480,-93.323
1.093,0.627,-1.028,-216.370,40.710,-93.994
1.087,0.677,-0.961,-205.139,39.856,-94.910
1.092,0.723,-0.888,-194.641,39.734,-96.069
1.102,0.757,-0.806,-183.899,40.161,-96.863
1.110,0.767,-0.735,-174.255,40.588,-95.947
1.105,0.777,-0.684,-167.236,41.931,-92.163
1.147,0.806,-0.634,-161.316,44.678,-86.304
1.251,0.819,-0.569,-156.128,47.729,-79.163
1.280,0.812,-0.533,-151.917,47.974,-72.205
1.285,0.878,-0.480,-148.499,46.753,-65.369
1.356,0.855,-0.440,-143.311,45.349,-57.922
1.431,0.913,-0.424,-136.780,40.955,-54.688
1.433,0.951,-0.378,-125.671,36.682,-47.546
1.417,0.952,-0.351,-112.915,31.067,-39.856
1.387,0.958,-0.333,-99.365,25.940,-33.569
1.351,0.961,-0.307,-84.656,23.987,-27.466
1.315,0.946,-0.293,-70.374,23.987,-21.790
1.287,0.917,-0.276,-56.519,25.391,-15.991
1.258,0.891,-0.266,-43.701,27.649,-10.620
1.234,0.855,-0.263,-32.043,30.273,-5.066
1.225,0.817,-0.261,-21.729,32.654,-0.732
1.220,0.774,-0.262,-12.207,34.363,3.967
1.208,0.730,-0.264,-2.808,34.851,8.789
1.214,0.685,-0.263,7.202,33.752,13.367
1.230,0.643,-0.264,18.188,30.518,17.822
1.251,0.600,-0.260,30.762,24.353,22.156
1.258,0.558,-0.257,45.105,14.954,26.367
1.270,0.524,-0.258,60.730,3.601,29.602
1.271,0.482,-0.258,77.209,-8.728,32.043
1.253,0.420,-0.262,93.933,-22.156,34.485
1.227,0.345,-0.276,109.009,-35.217,36.560
1.216,0.280,-0.283,121.338,-45.715,37.964
1.200,0.234,-0.288,132.080,-53.833,38.208
1.178,0.194,-0.294,141.602,-60.181,38.879
1.153,0.156,-0.302,149.841,-65.063,40.527
1.126,0.122,-0.313,156.555,-68.359,42.725
1.093,0.091,-0.324,161.255,-69.702,45.593
1.055,0.061,-0.341,165.161,-69.580,48.767
1.030,0.015,-0.363,168.396,-67.322,52.063
1.029,-0.043,-0.386,171.082,-63.049,55.115
1.033,-0.073,-0.402,173.218,-57.190,56.274
1.033,-0.077,-0.412,176.147,-51.025,56.580
1.048,-0.076,-0.424,180.786,-45.044,57.373
1.066,-0.076,-0.435,187.073,-39.978,58.167
1.079,-0.075,-0.447,194.580,-36.011,59.326
1.091,-0.085,-0.460,202.637,-33.447,60.425
1.111,-0.115,-0.469,209.961,-31.921,61.401
1.119,-0.146,-0.471,216.248,-31.616,61.768
1.127,-0.169,-0.470,220.459,-32.654,61.951
1.158,-0.198,-0.468,223.022,-35.522,61.890
1.163,-0.227,-0.478,223.450,-39.978,61.279
1.166,-0.248,-0.476,222.473,-44.067,60.425
1.183,-0.256,-0.466,220.337,-47.546,59.082
1.189,-0.259,-0.457,217.529,-50.903,58.167
1.200,-0.259,-0.454,213.928,-53.711,58.655
1.207,-0.259,-0.452,210.754,-55.908,60.303
1.198,-0.260,-0.449,208.374,-56.641,62.805
1.180,-0.263,-0.447,206.360,-56.030,66.040
1.163,-0.260,-0.438,205.017,-53.772,69.763
1.132,-0.255,-0.431,204.346,-49.927,73.853
1.090,-0.251,-0.420,204.102,-44.739,77.881
1.051,-0.250,-0.410,204.102,-38.696,81.299
1.020,-0.248,-0.397,204.102,-31.372,83.862
1.000,-0.250,-0.380,203.979,-23.437,84.961
1.002,-0.253,-0.359,203.735,-15.930,84.961
1.017,-0.255,-0.334,203.064,-10.376,84.167
1.026,-0.253,-0.307,201.233,-7.019,82.886
1.032,-0.252,-0.285,199.707,-6.714,81.360
1.033,-0.248,-0.267,197.754,-8.545,79.651
1.041,-0.241,-0.248,195.496,-10.925,78.186
1.040,-0.235,-0.225,193.542,-14.709,77.087
1.029,-0.220,-0.211,191.895,-19.653,77.393
1.014,-0.205,-0.204,191.772,-25.574,78.613
1.015,-0.188,-0.195,192.932,-30.823,80.261
1.031,-0.170,-0.182,194.336,-34.973,81.116
1.053,-0.171,-0.166,195.862,-38.574,81.055
1.075,-0.179,-0.142,196.289,-41.992,79.529
1.088,-0.182,-0.120,194.885,-45.410,77.576
1.085,-0.191,-0.102,192.078,-49.133,75.867
1.056,-0.200,-0.088,188.171,-52.612,74.585
1.011,-0.208,-0.075,182.556,-54.260,73.608
0.986,-0.226,-0.065,176.025,-53.467,72.083
0.975,-0.256,-0.052,168.579,-50.171,69.153
0.954,-0.278,-0.041,159.668,-45.410,65.186
0.938,-0.296,-0.031,150.635,-39.734,60.608
0.958,-0.325,-0.020,141.479,-33.081,56.091
0.990,-0.348,-0.000,132.202,-25.818,52.429
1.014,-0.364,0.018,123.169,-19.836,49.561
1.020,-0.366,0.042,116.516,-16.235,47.729
1.039,-0.371,0.064,111.877,-14.221,46.570
1.062,-0.374,0.091,110.107,-14.771,44.617
1.053,-0.362,0.120,110.352,-18.066,41.321
1.033,-0.358,0.138,112.976,-23.865,37.720
1.013,-0.365,0.155,116.638,-30.273,33.997
0.990,-0.372,0.176,119.507,-36.316,30.151
0.950,-0.380,0.199,121.277,-41.443,27.161

1.160,-0.776,-0.788,-264.038,37.781,-52.979
1.181,-0.767,-0.878,-274.719,32.959,-57.373
1.209,-0.750,-0.971,-284.729,28.748,-60.486
1.261,-0.729,-1.043,-293.396,25.452,-62.805
1.311,-0.689,-1.095,-300.659,20.508,-63.965
1.340,-0.649,-1.136,-304.932,11.108,-65.063
1.355,-0.615,-1.196,-307.373,-0.549,-67.932
1.349,-0.581,-1.266,-308.411,-11.780,-73.120
1.325,-0.538,-1.331,-308.472,-20.752,-79.712
1.270,-0.484,-1.403,-307.068,-25.269,-85.938
1.201,-0.419,-1.456,-303.833,-24.231,-91.492
1.144,-0.358,-1.499,-299.194,-16.479,-95.520
1.119,-0.292,-1.537,-295.044,-3.906,-97.290
1.124,-0.209,-1.548,-290.100,10.803,-97.290
1.149,-0.137,-1.530,-283.569,24.780,-96.008
1.172,-0.064,-1.511,-278.015,35.400,-93.933
1.182,0.012,-1.482,-272.705,42.358,-91.980
1.181,0.090,-1.441,-266.296,45.532,-89.966
1.160,0.165,-1.409,-259.705,46.021,-88.379
1.135,0.245,-1.371,-252.869,44.922,-87.036
1.104,0.322,-1.332,-245.117,43.640,-85.510
1.080,0.388,-1.283,-236.145,43.274,-84.839
1.067,0.442,-1.228,-226.929,43.945,-84.839
1.066,0.493,-1.174,-218.018,45.288,-84.839
1.079,0.547,-1.124,-210.510,46.326,-85.083
1.090,0.606,-1.069,-203.552,46.814,-84.717
1.095,0.666,-1.013,-195.496,46.387,-83.435
1.099,0.722,-0.952,-186.829,45.532,-81.360
1.116,0.773,-0.889,-178.223,44.556,-79.041
1.134,0.818,-0.830,-169.800,43.640,-76.355
1.137,0.861,-0.773,-161.255,43.030,-72.998
1.140,0.897,-0.712,-153.198,42.847,-68.420
1.140,0.936,-0.670,-145.569,43.396,-62.012
1.160,0.966,-0.625,-137.756,44.495,-55.481
1.179,0.984,-0.585,-130.127,46.509,-48.645
1.208,1.021,-0.544,-122.070,48.584,-42.114
1.184,1.060,-0.534,-113.037,49.011,-35.339
1.212,1.056,-0.503,-102.295,50.354,-28.137
1.259,1.067,-0.477,-91.309,51.086,-22.827
1.255,1.097,-0.487,-79.834,49.927,-17.517
1.237,1.086,-0.463,-66.467,50.232,-10.681
1.277,1.077,-0.437,-53.345,49.988,-4.517
1.290,1.060,-0.431,-40.161,46.265,0.061
1.282,1.030,-0.425,-26.917,41.443,4.700
1.286,1.000,-0.421,-14.282,36.072,8.179
1.286,0.972,-0.422,-1.953,29.541,11.169
1.267,0.919,-0.426,10.315,21.912,14.038
1.282,0.892,-0.426,21.973,14.648,16.296
1.284,0.820,-0.431,34.546,5.798,19.226
1.265,0.782,-0.448,47.791,-3.906,20.386
1.264,0.733,-0.457,62.805,-12.207,22.217
1.256,0.670,-0.458,78.735,-20.325,23.926
1.252,0.615,-0.455,94.482,-27.954,25.146
1.230,0.545,-0.461,109.436,-35.706,26.733
1.205,0.483,-0.472,122.620,-42.847,28.809
1.174,0.419,-0.485,134.460,-49.194,31.738
1.146,0.352,-0.504,144.531,-53.894,34.973
1.113,0.284,-0.527,152.527,-56.702,38.330
1.085,0.224,-0.550,159.668,-57.861,40.894
1.070,0.163,-0.574,165.527,-57.495,43.213
1.068,0.103,-0.598,170.715,-55.847,44.739
1.079,0.060,-0.613,176.147,-52.917,45.288
1.095,0.018,-0.626,182.556,-49.927,45.715
1.102,-0.016,-0.634,190.430,-47.668,46.326
1.103,-0.058,-0.635,199.158,-46.143,47.302
1.106,-0.099,-0.633,207.764,-45.593,48.340
1.091,-0.136,-0.630,216.370,-45.654,49.255
1.054,-0.177,-0.634,224.731,-45.715,50.781
1.002,-0.217,-0.645,231.812,-44.006,52.185
0.934,-0.258,-0.663,237.549,-38.818,52.795
0.889,-0.298,-0.682,240.906,-29.114,53.040
0.898,-0.348,-0.681,241.760,-15.625,52.185
0.950,-0.379,-0.643,241.272,-3.296,49.377
1.000,-0.393,-0.616,239.075,3.723,46.082
1.036,-0.396,-0.605,236.145,5.066,43.396
1.077,-0.400,-0.593,233.398,2.808,42.053
1.120,-0.409,-0.587,230.652,-2.258,41.016
1.130,-0.408,-0.582,228.638,-9.460,38.940
1.118,-0.407,-0.572,228.333,-17.822,36.926
1.114,-0.407,-0.557,229.431,-26.184,35.461
1.108,-0.403,-0.538,230.774,-34.363,34.058
1.079,-0.389,-0.520,232.788,-42.175,33.813
1.045,-0.384,-0.505,234.314,-48.889,34.668
1.016,-0.385,-0.487,235.107,-53.528,36.194
0.986,-0.384,-0.466,234.558,-56.152,37.903
0.952,-0.380,-0.442,232.971,-56.519,39.917
0.920,-0.380,-0.415,229.736,-54.443,42.358
0.896,-0.376,-0.394,225.464,-50.720,44.250
0.877,-0.370,-0.367,219.849,-44.495,45.288
0.869,-0.360,-0.339,214.355,-37.109,45.471
0.880,-0.349,-0.310,208.313,-28.931,44.495
0.891,-0.334,-0.283,202.454,-20.935,43.457
0.912,-0.314,-0.266,197.876,-14.343,42.664
0.945,-0.290,-0.256,195.068,-9.949,42.297
0.977,-0.280,-0.245,193.237,-7.263,42.297
0.987,-0.263,-0.234,191.589,-6.409,42.603
0.962,-0.249,-0.232,189.819,-6.775,43.701
0.918,-0.242,-0.236,187.134,-7.080,44.922
0.853,-0.233,-0.244,183.472,-5.676,45.959
0.770,-0.225,-0.249,178.223,-0.854,46.997
0.690,-0.216,-0.251,171.204,7.812,47.913
0.658,-0.215,-0.233,162.537,19.226,48.401
0.664,-0.226,-0.198,153.564,31.006,47.363
0.690,-0.259,-0.174,143.005,39.856,45.227
0.771,-0.282,-0.154,131.104,44.067,42.603
0.843,-0.289,-0.114,119.507,42.053,39.307
0.897,-0.278,-0.095,109.497,34.302,36.804
0.966,-0.282,-0.070,103.333,21.851,36.072
1.047,-0.301,-0.048,98.511,5.554,36.316
1.123,-0.322,-0.058,95.093,-13.245,34.180
1.149,-0.319,-0.064,93.384,-29.114,27.466
1.137,-0.297,-0.043,92.834,-37.842,19.592
1.140,-0.294,-0.009,93.262,-42.236,14.465
1.160,-0.304,0.021,94.543,-44.861,11.597
1.196,-0.322,0.058,96.252,-44.922,9.766
1.239,-0.339,0.099,97.046,-42.908,8.545
1.253,-0.344,0.132,96.924,-41.016,8.423
1.264,-0.354,0.165,96.130,-39.795,11.292
1.307,-0.368,0.189,95.093,-40.405,15.137

0.255,0.927,-1.431,-114.868,9.888,93.018
0.270,0.950,-1.429,-103.882,11.902,86.548
0.291,0.950,-1.464,-92.773,12.329,79.712
0.296,0.943,-1.489,-81.421,13.794,71.960
0.293,0.966,-1.494,-69.153,15.320,64.636
0.309,0.975,-1.495,-54.932,15.198,58.105
0.324,0.959,-1.496,-38.391,14.038,51.025
0.302,0.927,-1.499,-21.790,12.878,42.358
0.281,0.900,-1.481,-5.737,12.634,32.288
0.280,0.864,-1.451,10.620,12.695,21.545
0.279,0.804,-1.426,27.100,11.963,10.254
0.268,0.738,-1.399,42.175,9.827,-1.404
0.261,0.682,-1.359,55.664,6.714,-13.000
0.262,0.624,-1.322,68.176,1.709,-24.658
0.264,0.552,-1.289,80.078,-4.089,-36.621
0.270,0.491,-1.250,90.637,-10.498,-49.011
0.292,0.442,-1.216,100.220,-18.799,-60.791
0.300,0.392,-1.182,110.107,-28.931,-72.021
0.315,0.342,-1.162,119.324,-40.527,-81.909
0.322,0.290,-1.154,128.479,-53.284,-90.088
0.325,0.243,-1.132,137.451,-65.918,-97.290
0.297,0.193,-1.130,146.057,-78.369,-103.271
0.281,0.146,-1.144,154.053,-88.745,-108.521
0.240,0.079,-1.154,161.560,-95.093,-113.953
0.245,0.048,-1.167,167.297,-97.107,-120.667
0.274,0.007,-1.180,173.828,-95.032,-125.793
0.295,-0.044,-1.189,180.603,-90.576,-129.517
0.330,-0.085,-1.176,186.218,-84.412,-132.690
0.344,-0.143,-1.139,190.674,-80.200,-134.644
0.388,-0.170,-1.146,194.458,-80.933,-137.451
0.434,-0.200,-1.136,198.792,-81.055,-138.367
0.456,-0.223,-1.108,203.308,-81.177,-138.855
0.464,-0.257,-1.081,208.557,-82.153,-139.160
0.490,-0.293,-1.057,213.013,-83.191,-139.709
0.514,-0.321,-1.037,215.881,-84.473,-139.893
0.533,-0.341,-1.007,217.712,-85.266,-139.160
0.542,-0.358,-0.984,217.529,-85.938,-136.841
0.537,-0.373,-0.976,216.431,-86.121,-134.216
0.526,-0.392,-0.967,214.966,-83.252,-130.493
0.531,-0.406,-0.947,212.708,-77.148,-126.343
0.547,-0.407,-0.927,209.900,-69.641,-121.643
0.565,-0.410,-0.908,207.581,-61.890,-117.493
0.603,-0.432,-0.905,204.468,-53.650,-113.770
0.664,-0.441,-0.899,200.806,-45.959,-110.901
0.732,-0.423,-0.877,197.510,-40.649,-108.276
0.807,-0.400,-0.858,196.045,-39.734,-104.309
0.863,-0.382,-0.837,197.388,-43.213,-100.220
0.891,-0.362,-0.810,200.073,-49.561,-96.619
0.901,-0.345,-0.779,203.491,-57.495,-93.079
0.897,-0.330,-0.753,206.787,-66.711,-89.905
0.874,-0.322,-0.732,209.229,-75.806,-86.670
0.841,-0.315,-0.706,210.144,-83.130,-83.801
0.814,-0.308,-0.673,210.083,-88.318,-81.299
0.807,-0.307,-0.640,208.069,-91.980,-78.979
0.811,-0.303,-0.607,204.529,-95.154,-77.087
0.806,-0.299,-0.574,200.623,-98.267,-75.317
0.805,-0.286,-0.542,196.289,-100.647,-73.059
0.825,-0.285,-0.511,191.101,-102.966,-69.763
0.865,-0.300,-0.493,184.204,-105.774,-65.613
0.901,-0.304,-0.485,175.720,-109.802,-61.157
0.912,-0.297,-0.476,167.664,-114.136,-57.251
0.906,-0.294,-0.470,161.194,-117.554,-54.016
0.899,-0.292,-0.450,156.311,-118.713,-50.781
0.899,-0.283,-0.415,153.320,-117.310,-47.180
0.893,-0.266,-0.365,152.466,-114.929,-42.908
0.885,-0.255,-0.313,152.588,-112.366,-36.987
0.868,-0.265,-0.270,154.053,-110.596,-30.640
0.842,-0.296,-0.234,155.273,-108.337,-25.146
0.836,-0.334,-0.203,154.724,-104.614,-21.240
0.849,-0.367,-0.163,151.855,-99.670,-19.043
0.859,-0.386,-0.120,146.973,-95.520,-17.700
0.850,-0.390,-0.093,140.198,-92.346,-16.113
0.819,-0.397,-0.075,133.179,-89.539,-15.015
0.787,-0.406,-0.064,125.427,-84.473,-13.794
0.781,-0.421,-0.056,117.004,-76.599,-12.451
0.766,-0.419,-0.062,108.643,-66.833,-11.658
0.709,-0.411,-0.068,101.196,-53.040,-11.597
0.693,-0.401,-0.057,93.933,-33.203,-10.498
0.741,-0.399,-0.042,86.365,-11.353,-7.263
0.803,-0.403,-0.020,77.637,8.545,-2.502
0.874,-0.418,-0.002,68.909,24.353,3.113
0.954,-0.443,0.011,58.167,35.889,9.644
1.030,-0.449,0.011,46.021,43.091,15.808
1.085,-0.427,-0.006,34.058,45.532,20.813
1.100,-0.401,-0.044,24.475,45.654,22.278
1.108,-0.386,-0.079,17.334,48.218,19.897
1.127,-0.357,-0.099,11.353,53.406,15.564
1.139,-0.313,-0.114,7.629,57.983,10.193
1.151,-0.274,-0.123,6.714,60.547,5.371
1.176,-0.244,-0.125,7.568,61.279,2.441
1.202,-0.224,-0.119,9.521,58.044,0.977
1.211,-0.207,-0.110,12.146,51.575,-0.061
1.211,-0.198,-0.102,14.282,42.297,-0.671
1.211,-0.201,-0.089,16.296,30.823,-1.099
1.202,-0.207,-0.084,17.578,17.883,-0.793
1.178,-0.212,-0.085,17.517,3.784,-0.610
1.160,-0.226,-0.078,16.968,-8.850,-0.671
1.150,-0.229,-0.068,15.381,-20.630,0.061
1.128,-0.219,-0.055,13.000,-32.776,1.587
1.093,-0.223,-0.048,10.803,-44.006,3.357
1.054,-0.230,-0.047,8.423,-52.917,4.700
1.018,-0.226,-0.042,6.409,-58.105,5.127
0.998,-0.224,-0.030,5.005,-60.425,5.554
0.995,-0.235,-0.012,4.150,-60.425,6.592
0.998,-0.245,0.001,3.723,-59.631,7.874
0.989,-0.247,0.018,3.540,-58.411,8.728
0.987,-0.257,0.041,3.418,-56.396,8.667
0.985,-0.270,0.058,3.479,-53.833,7.507
0.974,-0.284,0.076,3.540,-50.232,5.737
0.956,-0.295,0.092,2.625,-44.800,4.456
0.953,-0.312,0.112,1.038,-37.903,3.723
0.972,-0.329,0.136,-0.793,-30.212,3.540
0.984,-0.344,0.155,-4.639,-22.644,3.906
0.988,-0.352,0.169,-9.033,-15.869,4.517
1.000,-0.357,0.180,-13.794,-10.010,5.371
1.003,-0.362,0.189,-18.433,-5.249,5.859
1.004,-0.364,0.196,-22.400,-1.648,5.676
1.000,-0.367,0.200,-25.085,0.977,4.578
0.995,-0.378,0.203,-27.405,4.700,2.686

0.619,-0.916,-1.083,-218.811,102.600,52.490
0.634,-0.897,-1.167,-227.417,106.018,59.143
0.642,-0.875,-1.250,-235.901,106.079,65.918
0.627,-0.835,-1.340,-243.286,103.699,71.472
0.587,-0.779,-1.394,-247.864,100.708,75.806
0.534,-0.732,-1.432,-251.282,97.595,79.163
0.487,-0.704,-1.485,-254.456,94.360,82.458
0.443,-0.681,-1.556,-259.460,91.614,86.304
0.398,-0.641,-1.640,-266.418,89.233,90.576
0.337,-0.582,-1.713,-273.865,87.097,95.703
0.260,-0.507,-1.767,-280.457,86.060,100.098
0.177,-0.431,-1.810,-285.950,86.731,104.248
0.113,-0.357,-1.841,-290.039,89.600,107.117
0.065,-0.278,-1.860,-292.542,94.604,108.582
0.036,-0.193,-1.867,-293.335,100.830,108.887
0.000,-0.112,-1.890,-292.847,106.873,108.948
-0.030,-0.022,-1.885,-291.565,112.183,109.863
-0.033,0.055,-1.851,-289.490,116.455,111.389
-0.010,0.114,-1.818,-287.231,118.652,113.525
0.025,0.164,-1.786,-284.973,117.981,114.868
0.062,0.222,-1.751,-282.715,114.685,114.197
0.098,0.269,-1.710,-278.503,109.070,111.694
0.167,0.307,-1.660,-273.132,102.295,107.605
0.253,0.348,-1.617,-268.677,93.750,103.760
0.312,0.396,-1.590,-264.343,82.581,101.196
0.335,0.458,-1.581,-259.705,71.228,99.854
0.342,0.537,-1.563,-254.700,61.279,99.854
0.358,0.614,-1.531,-247.620,53.406,100.098
0.383,0.674,-1.500,-238.342,47.852,99.548
0.405,0.733,-1.470,-228.149,44.006,98.022
0.433,0.798,-1.440,-217.102,41.626,96.313
0.358,0.924,-1.356,-204.712,40.161,95.276
0.439,0.910,-1.365,-189.636,38.269,95.947
0.599,1.004,-1.337,-177.002,40.771,91.614
0.573,0.930,-1.332,-164.246,42.419,88.196
0.599,1.160,-1.244,-155.212,42.542,79.346
0.600,1.122,-1.260,-137.756,44.922,82.458
0.692,1.141,-1.199,-123.474,41.077,78.796
0.740,1.139,-1.171,-110.229,33.691,71.533
0.785,1.182,-1.133,-96.985,21.545,61.646
0.789,1.175,-1.132,-82.703,5.737,53.345
0.756,1.175,-1.141,-68.054,-10.254,45.654
0.719,1.161,-1.158,-52.185,-24.292,39.673
0.700,1.143,-1.185,-35.583,-35.400,33.508
0.654,1.135,-1.195,-18.738,-42.175,26.611
0.608,1.103,-1.204,-1.160,-45.227,19.958
0.580,1.054,-1.221,16.052,-45.105,13.306
0.539,1.024,-1.224,32.715,-42.236,6.226
0.499,0.976,-1.220,49.805,-38.025,0.671
0.496,0.894,-1.228,67.200,-34.119,-4.089
0.503,0.816,-1.228,82.581,-30.457,-9.888
0.509,0.754,-1.215,97.229,-28.381,-16.907
0.514,0.674,-1.197,111.450,-28.442,-24.780
0.529,0.600,-1.175,125.610,-31.799,-34.058
0.543,0.523,-1.148,139.526,-38.025,-43.335
0.547,0.447,-1.137,152.954,-47.058,-52.246
0.536,0.372,-1.136,164.734,-58.472,-60.608
0.512,0.304,-1.134,174.561,-69.946,-68.298
0.486,0.241,-1.135,182.312,-80.383,-74.768
0.466,0.178,-1.141,188.660,-89.233,-79.895
0.462,0.105,-1.147,192.322,-96.313,-83.130
0.451,0.051,-1.159,192.627,-101.624,-84.412
0.437,0.003,-1.166,191.772,-103.943,-84.045
0.464,-0.043,-1.171,192.505,-103.760,-82.825
0.510,-0.076,-1.169,196.106,-101.501,-81.177
0.520,-0.105,-1.159,203.125,-99.060,-80.505
0.519,-0.155,-1.152,212.769,-95.947,-81.543
0.562,-0.211,-1.145,222.717,-91.736,-84.656
0.608,-0.254,-1.122,231.873,-87.402,-89.050
0.630,-0.277,-1.100,239.014,-84.900,-92.346
0.652,-0.308,-1.077,244.202,-83.557,-93.323
0.677,-0.342,-1.057,247.253,-83.313,-92.102
0.699,-0.374,-1.044,247.009,-83.801,-88.928
0.708,-0.389,-1.031,243.896,-84.351,-84.839
0.693,-0.396,-1.019,240.295,-83.191,-79.834
0.677,-0.411,-1.010,236.877,-79.224,-74.280
0.698,-0.420,-1.010,233.948,-72.266,-69.580
0.732,-0.429,-1.011,230.896,-62.805,-66.711
0.768,-0.425,-0.995,228.516,-52.368,-65.552
0.802,-0.414,-0.975,227.905,-42.725,-64.636
0.839,-0.402,-0.953,228.638,-34.729,-62.927
0.898,-0.395,-0.923,229.248,-28.320,-60.181
0.941,-0.380,-0.881,229.736,-25.208,-56.030
0.951,-0.368,-0.835,230.225,-25.635,-51.208
0.940,-0.357,-0.789,230.957,-27.771,-46.814
0.918,-0.348,-0.740,231.018,-30.273,-43.091
0.885,-0.337,-0.689,230.835,-32.166,-40.588
0.842,-0.327,-0.644,229.248,-33.142,-38.818
0.797,-0.323,-0.606,226.562,-32.776,-37.720
0.759,-0.325,-0.576,222.595,-30.273,-37.354
0.729,-0.330,-0.540,216.919,-25.146,-37.537
0.714,-0.327,-0.502,209.229,-18.616,-38.025
0.717,-0.328,-0.465,200.928,-12.573,-38.696
0.736,-0.330,-0.443,190.857,-7.812,-39.612
0.753,-0.333,-0.431,180.603,-5.127,-40.588
0.782,-0.329,-0.426,170.837,-3.784,-40.405
0.822,-0.330,-0.432,163.147,-5.005,-39.978
0.853,-0.332,-0.434,156.738,-7.324,-40.344
0.871,-0.329,-0.429,151.367,-9.827,-40.649
0.889,-0.338,-0.430,145.081,-12.207,-40.100
0.906,-0.358,-0.440,138.489,-13.794,-38.818
0.932,-0.372,-0.445,131.653,-14.587,-37.476
0.933,-0.368,-0.436,126.282,-15.381,-36.560
0.912,-0.365,-0.413,123.962,-16.785,-36.438
0.888,-0.362,-0.386,123.657,-18.311,-36.743
0.890,-0.366,-0.349,124.756,-20.691,-36.987
0.904,-0.372,-0.305,126.465,-25.391,-37.292
0.895,-0.380,-0.271,128.052,-33.081,-37.476
0.869,-0.401,-0.255,128.662,-42.542,-38.574
0.828,-0.443,-0.273,128.113,-50.598,-41.260
0.791,-0.487,-0.294,124.451,-51.880,-45.044
0.772,-0.503,-0.296,117.554,-45.349,-48.157
0.797,-0.517,-0.287,108.887,-34.790,-48.279
0.853,-0.527,-0.277,97.656,-23.193,-44.373
0.908,-0.524,-0.279,85.449,-14.465,-39.001
0.958,-0.495,-0.251,74.463,-8.545,-33.264
1.010,-0.444,-0.215,66.345,-6.775,-29.114
1.068,-0.403,-0.177,63.843,-11.230,-26.611
1.114,-0.395,-0.165,64.880,-22.278,-25.208

0.569,-0.942,-1.119,-245.178,111.145,61.218
0.551,-0.919,-1.222,-263.245,116.638,70.557
0.493,-0.864,-1.333,-281.250,118.591,80.261
0.432,-0.791,-1.438,-296.570,120.117,88.806
0.372,-0.701,-1.519,-308.472,122.314,94.971
0.308,-0.595,-1.572,-314.697,124.695,98.145
0.271,-0.511,-1.612,-314.880,126.343,98.755
0.269,-0.451,-1.640,-311.157,125.916,97.351
0.308,-0.404,-1.656,-306.458,121.887,95.032
0.340,-0.338,-1.678,-303.833,111.084,93.323
0.343,-0.250,-1.690,-301.086,92.834,90.820
0.332,-0.168,-1.697,-297.241,70.557,87.769
0.318,-0.099,-1.710,-293.091,47.791,84.106
0.306,-0.024,-1.728,-288.696,28.198,77.881
0.291,0.070,-1.732,-283.936,12.329,68.909
0.255,0.165,-1.723,-277.161,0.549,59.204
0.224,0.252,-1.708,-268.616,-6.165,49.500
0.218,0.329,-1.682,-259.583,-8.301,40.771
0.234,0.399,-1.651,-250.854,-7.202,34.668
0.260,0.469,-1.619,-243.286,-5.432,29.846
0.288,0.526,-1.590,-236.572,-3.113,25.391
0.330,0.578,-1.552,-230.896,-0.183,20.813
0.373,0.629,-1.535,-225.952,3.479,16.907
0.415,0.673,-1.555,-221.375,7.568,13.184
0.417,0.726,-1.582,-217.285,13.916,9.644
0.453,0.778,-1.605,-212.097,23.499,8.240
0.547,0.813,-1.621,-205.566,37.720,9.277
0.580,0.920,-1.523,-197.205,54.565,10.254
0.628,0.897,-1.548,-184.692,64.758,15.198
0.732,1.042,-1.462,-173.096,75.867,15.930
0.675,1.050,-1.351,-155.090,88.440,26.245
0.750,1.008,-1.337,-140.442,91.858,34.851
0.832,1.017,-1.268,-129.211,96.680,39.551
0.853,1.040,-1.211,-117.859,96.558,41.992
0.875,1.040,-1.154,-106.018,93.933,43.091
0.924,1.025,-1.105,-93.750,89.539,43.091
0.971,1.025,-1.063,-82.275,82.520,40.710
0.993,1.035,-1.031,-70.007,72.510,37.781
0.994,1.033,-1.007,-56.091,59.998,34.790
0.993,1.012,-0.998,-40.588,45.776,31.433
0.993,0.994,-0.997,-25.024,31.982,27.710
0.978,0.960,-1.000,-10.010,18.494,24.170
0.949,0.911,-1.015,4.822,6.409,20.569
0.917,0.865,-1.027,19.043,-2.563,15.747
0.891,0.817,-1.034,32.410,-8.362,10.437
0.870,0.768,-1.035,45.532,-12.512,5.066
0.854,0.721,-1.033,58.899,-15.442,-0.122
0.844,0.676,-1.028,72.449,-18.250,-4.395
0.835,0.632,-1.014,86.487,-21.118,-8.850
0.821,0.582,-0.997,100.281,-24.658,-12.939
0.797,0.527,-0.993,113.220,-29.236,-16.907
0.761,0.479,-0.992,125.244,-33.997,-20.996
0.733,0.435,-0.987,135.925,-38.208,-25.208
0.707,0.388,-0.984,145.630,-41.870,-29.419
0.679,0.344,-0.982,154.236,-45.532,-33.813
0.656,0.303,-0.989,160.278,-48.645,-37.964
0.631,0.267,-1.006,164.978,-51.636,-41.870
0.604,0.229,-1.041,169.128,-53.894,-45.044
0.587,0.195,-1.082,172.668,-54.688,-47.424
0.578,0.164,-1.120,176.147,-53.101,-49.744
0.544,0.130,-1.149,180.420,-49.988,-52.063
0.519,0.090,-1.178,184.509,-44.739,-54.443
0.514,0.050,-1.187,189.209,-37.842,-57.678
0.520,0.013,-1.185,194.519,-31.250,-60.974
0.534,-0.025,-1.188,200.500,-26.550,-64.636
0.539,-0.076,-1.194,207.153,-23.071,-68.665
0.541,-0.115,-1.191,213.623,-19.897,-72.998
0.535,-0.160,-1.177,219.299,-17.334,-76.965
0.546,-0.213,-1.164,223.694,-16.235,-81.055
0.564,-0.242,-1.145,225.830,-15.930,-85.327
0.573,-0.270,-1.115,226.685,-16.174,-88.684
0.577,-0.291,-1.091,226.257,-17.456,-92.102
0.574,-0.298,-1.080,225.281,-18.433,-94.727
0.566,-0.325,-1.064,222.473,-16.968,-95.520
0.555,-0.346,-1.046,217.285,-13.977,-95.642
0.547,-0.354,-1.031,210.937,-9.888,-95.215
0.568,-0.349,-1.022,204.956,-4.272,-93.811
0.603,-0.332,-1.017,201.233,1.892,-90.881
0.632,-0.305,-0.999,201.843,7.324,-87.158
0.657,-0.290,-0.956,205.139,11.292,-84.167
0.684,-0.293,-0.925,209.045,12.451,-83.862
0.695,-0.298,-0.900,212.646,11.230,-85.510
0.694,-0.306,-0.883,215.088,8.728,-88.074
0.694,-0.321,-0.872,215.698,4.822,-91.553
0.690,-0.325,-0.861,213.013,1.343,-94.971
0.687,-0.304,-0.851,207.703,-0.732,-97.046
0.690,-0.275,-0.837,202.026,-2.319,-95.886
0.684,-0.250,-0.823,196.350,-4.333,-92.712
0.661,-0.222,-0.805,190.857,-5.493,-88.928
0.635,-0.198,-0.784,186.035,-5.249,-85.144
0.627,-0.192,-0.775,181.458,-4.089,-81.970
0.636,-0.200,-0.776,176.880,-2.441,-79.529
0.648,-0.194,-0.765,172.424,-1.343,-78.369
0.662,-0.183,-0.745,168.823,-1.343,-77.942
0.680,-0.178,-0.724,166.260,-2.686,-78.003
0.701,-0.178,-0.696,164.551,-5.310,-78.003
0.710,-0.168,-0.664,163.086,-9.216,-78.125
0.701,-0.152,-0.627,162.170,-13.794,-78.125
0.681,-0.147,-0.592,161.682,-18.738,-78.003
0.678,-0.168,-0.555,161.011,-22.766,-77.515
0.712,-0.218,-0.527,158.569,-27.100,-76.721
0.759,-0.262,-0.502,152.527,-32.166,-75.806
0.815,-0.295,-0.484,143.738,-39.429,-74.829
0.874,-0.318,-0.461,134.155,-49.377,-74.829
0.926,-0.316,-0.436,124.634,-61.584,-74.951
0.974,-0.304,-0.426,115.845,-77.148,-74.585
1.010,-0.292,-0.432,109.009,-95.337,-72.937
1.026,-0.291,-0.442,104.492,-114.685,-70.557
1.029,-0.295,-0.459,102.234,-132.141,-68.176
0.989,-0.290,-0.482,102.722,-145.691,-65.430
0.922,-0.296,-0.484,104.980,-151.245,-62.622
0.877,-0.313,-0.468,107.666,-147.766,-58.655
0.849,-0.342,-0.443,110.229,-138.916,-54.138
0.835,-0.372,-0.407,111.877,-126.831,-50.598
0.843,-0.402,-0.357,111.450,-112.488,-47.729
0.880,-0.430,-0.304,109.436,-99.243,-45.471
0.914,-0.454,-0.247,105.286,-89.050,-43.640
0.928,-0.466,-0.207,99.487,-82.458,-41.687
0.928,-0.478,-0.182,92.773,-78.247,-39.978

0.406,0.462,-1.669,-268.555,23.682,68.970
0.408,0.518,-1.620,-262.512,22.949,67.200
0.409,0.563,-1.555,-255.676,22.888,65.063
0.412,0.598,-1.505,-247.803,23.376,62.988
0.423,0.628,-1.450,-240.051,24.231,60.547
0.431,0.665,-1.385,-232.239,26.428,58.228
0.351,0.731,-1.290,-224.243,29.419,56.274
0.443,0.699,-1.287,-215.759,33.020,56.030
0.483,0.756,-1.241,-210.144,40.466,53.223
0.499,0.697,-1.171,-205.383,46.997,53.040
0.566,0.780,-1.207,-204.224,47.913,49.561
0.600,0.864,-1.144,-199.158,55.725,50.842
0.651,0.810,-1.139,-190.735,60.852,56.396
0.759,0.850,-1.097,-183.716,63.660,55.786
0.795,0.883,-1.024,-174.438,64.026,55.664
0.892,0.882,-0.978,-163.879,58.289,56.274
0.954,0.885,-0.939,-152.466,49.316,55.603
0.982,0.892,-0.889,-141.052,38.391,54.504
0.993,0.873,-0.875,-129.761,25.574,52.734
1.007,0.872,-0.867,-119.202,13.794,49.011
1.012,0.879,-0.847,-109.192,5.798,44.922
1.016,0.880,-0.836,-99.609,0.061,41.382
1.003,0.877,-0.824,-89.783,-3.052,37.964
1.000,0.874,-0.810,-79.163,-4.089,34.851
1.009,0.867,-0.791,-67.139,-3.235,32.288
1.031,0.857,-0.774,-54.382,-2.136,30.029
1.039,0.839,-0.758,-40.588,-1.892,28.137
1.043,0.812,-0.752,-27.588,-2.502,27.710
1.046,0.782,-0.752,-14.648,-4.089,27.527
1.035,0.751,-0.745,-1.526,-5.493,26.428
1.031,0.715,-0.736,11.597,-6.836,24.353
1.027,0.678,-0.734,24.475,-9.155,20.813
1.029,0.645,-0.729,36.499,-12.390,16.113
1.017,0.611,-0.726,47.729,-16.968,11.108
0.999,0.574,-0.734,59.265,-22.949,6.226
0.989,0.546,-0.735,70.068,-29.114,2.136
0.971,0.517,-0.735,80.444,-35.278,-1.343
0.944,0.479,-0.736,90.271,-41.565,-4.272
0.916,0.446,-0.742,98.999,-47.668,-7.568
0.882,0.424,-0.749,106.384,-52.795,-10.071
0.846,0.405,-0.760,114.258,-57.373,-12.207
0.803,0.389,-0.775,121.704,-61.035,-14.343
0.763,0.368,-0.791,129.517,-62.805,-16.541
0.734,0.350,-0.803,137.451,-63.049,-18.799
0.706,0.320,-0.815,144.653,-62.073,-21.545
0.706,0.292,-0.833,149.719,-60.608,-25.024
0.712,0.275,-0.854,154.785,-58.838,-28.503
0.715,0.254,-0.869,159.668,-57.373,-31.799
0.722,0.236,-0.892,164.307,-56.641,-34.973
0.721,0.219,-0.914,169.189,-55.664,-37.781
0.708,0.202,-0.941,174.316,-54.504,-40.466
0.689,0.177,-0.970,179.321,-51.819,-42.725
0.668,0.150,-0.996,184.387,-47.424,-45.105
0.665,0.122,-1.012,189.087,-41.199,-47.241
0.665,0.097,-1.025,193.176,-34.485,-48.645
0.669,0.062,-1.033,197.632,-28.137,-49.988
0.703,0.024,-1.031,201.111,-22.156,-51.941
0.741,-0.004,-1.023,203.613,-18.005,-54.321
0.768,-0.029,-1.013,206.421,-17.334,-56.702
0.796,-0.059,-1.005,209.167,-19.043,-59.448
0.826,-0.084,-0.996,211.487,-22.705,-62.012
0.833,-0.102,-0.978,214.111,-28.076,-63.843
0.823,-0.113,-0.964,216.187,-33.691,-64.758
0.807,-0.123,-0.953,218.689,-38.818,-64.514
0.785,-0.133,-0.941,221.191,-42.175,-63.354
0.773,-0.143,-0.923,223.267,-43.518,-61.401
0.761,-0.161,-0.912,224.243,-43.091,-59.387
0.755,-0.167,-0.894,224.670,-41.565,-57.678
0.739,-0.167,-0.880,224.121,-39.551,-55.908
0.729,-0.173,-0.867,222.717,-36.316,-54.260
0.724,-0.174,-0.855,220.947,-31.982,-53.101
0.728,-0.173,-0.839,218.811,-27.100,-51.758
0.738,-0.166,-0.822,216.797,-22.827,-49.927
0.740,-0.161,-0.809,214.600,-19.165,-47.852
0.740,-0.160,-0.801,211.792,-15.930,-45.776
0.741,-0.158,-0.794,209.900,-12.878,-44.128
0.753,-0.154,-0.783,208.252,-10.254,-42.908
0.767,-0.151,-0.773,206.604,-8.667,-41.687
0.779,-0.149,-0.762,205.017,-8.667,-40.527
0.792,-0.147,-0.750,203.003,-9.827,-39.124
0.802,-0.143,-0.740,200.500,-12.207,-37.415
0.807,-0.141,-0.722,198.120,-15.991,-35.828
0.817,-0.149,-0.705,196.289,-20.508,-34.790
0.822,-0.159,-0.685,194.336,-25.574,-34.546
0.831,-0.170,-0.662,191.711,-30.640,-34.729
0.869,-0.198,-0.650,188.232,-36.011,-35.034
0.923,-0.224,-0.638,182.251,-42.175,-35.889
0.960,-0.237,-0.621,174.927,-49.438,-36.255
0.986,-0.254,-0.599,167.236,-57.739,-35.461
1.020,-0.278,-0.585,158.386,-66.589,-33.142
1.063,-0.310,-0.578,149.292,-75.562,-30.029
1.096,-0.335,-0.568,140.015,-84.229,-26.550
1.112,-0.346,-0.552,132.141,-92.957,-22.644
1.113,-0.345,-0.518,127.686,-101.685,-16.907
1.108,-0.334,-0.472,126.709,-109.863,-10.010
1.084,-0.328,-0.435,127.869,-117.737,-3.662
1.020,-0.331,-0.402,130.981,-122.803,1.587
0.961,-0.337,-0.360,135.742,-121.582,5.676
0.923,-0.348,-0.304,140.564,-115.417,9.155
0.906,-0.375,-0.239,144.409,-106.873,12.756
0.888,-0.402,-0.194,145.203,-98.755,16.724
0.873,-0.431,-0.149,143.127,-90.820,20.569
0.852,-0.453,-0.103,138.672,-83.313,23.926
0.845,-0.466,-0.056,131.226,-75.745,26.489
0.846,-0.465,-0.006,122.681,-68.604,27.954
0.844,-0.455,0.031,113.342,-63.171,28.015
0.834,-0.443,0.055,104.126,-59.143,26.855
0.828,-0.435,0.074,95.764,-55.115,24.719
0.819,-0.426,0.088,88.562,-50.293,22.034
0.811,-0.421,0.103,81.970,-43.823,19.348
0.819,-0.417,0.115,75.623,-35.583,17.151
0.827,-0.413,0.123,69.092,-26.062,14.954
0.837,-0.412,0.131,63.049,-15.320,12.878
0.865,-0.407,0.143,56.946,-4.822,10.315
0.908,-0.396,0.160,51.453,5.005,7.996
0.959,-0.385,0.178,46.082,12.695,6.714
1.016,-0.370,0.197,41.809,16.602,6.165
1.068,-0.356,0.212,38.391,16.907,5.798
1.108,-0.352,0.220,35.522,13.794,6.226

1.357,0.738,0.520,-34.302,19.653,-263.306
1.313,0.790,0.553,-32.227,15.503,-259.888
1.239,0.823,0.581,-29.724,8.362,-254.272
1.142,0.837,0.596,-27.466,0.732,-245.300
1.027,0.838,0.615,-25.635,-4.028,-233.337
0.930,0.829,0.632,-24.414,-3.723,-220.825
0.849,0.811,0.641,-25.146,1.404,-209.290
0.776,0.793,0.652,-28.442,10.681,-199.158
0.728,0.779,0.667,-31.921,23.254,-191.101
0.685,0.770,0.679,-34.851,37.842,-185.974
0.694,0.776,0.715,-36.804,54.077,-182.068
0.710,0.770,0.755,-37.964,68.665,-177.856
0.671,0.754,0.741,-37.781,79.651,-172.913
0.727,0.772,0.861,-37.964,91.187,-167.114
0.744,0.761,0.862,-37.231,94.055,-158.386
0.795,0.733,0.956,-36.255,89.539,-148.071
0.674,0.725,0.848,-35.950,80.750,-138.367
0.702,0.704,0.995,-36.194,79.346,-127.075
0.729,0.666,0.922,-36.865,68.542,-117.920
0.688,0.681,0.966,-39.734,63.171,-108.093
0.677,0.698,0.980,-43.091,55.725,-95.825
0.665,0.684,0.949,-45.349,45.410,-82.458
0.644,0.692,0.936,-46.204,38.269,-71.411
0.621,0.709,0.916,-44.922,33.264,-61.829
0.604,0.718,0.909,-41.443,31.494,-53.284
0.603,0.721,0.892,-35.461,32.654,-45.166
0.625,0.717,0.879,-27.649,35.461,-36.499
0.674,0.681,0.856,-19.226,38.635,-26.978
0.707,0.646,0.847,-11.719,43.030,-15.442
0.755,0.628,0.853,-5.005,46.814,-1.770
0.822,0.608,0.846,1.221,46.631,14.160
0.884,0.588,0.836,7.507,42.847,29.846
0.930,0.562,0.826,13.733,35.339,43.945
0.963,0.528,0.808,18.921,24.231,56.946
0.974,0.496,0.785,22.827,10.254,69.092
0.968,0.453,0.754,26.001,-4.211,80.078
0.958,0.417,0.725,27.649,-17.578,90.759
0.958,0.389,0.700,29.175,-29.053,100.342
0.945,0.354,0.673,31.189,-38.208,108.826
0.948,0.324,0.659,33.264,-44.678,116.821
0.953,0.295,0.640,35.522,-49.377,124.390
0.947,0.268,0.616,38.086,-52.002,131.226
0.943,0.241,0.597,41.138,-51.514,137.573
0.949,0.208,0.582,44.556,-48.584,144.104
0.946,0.173,0.565,48.157,-44.128,150.757
0.955,0.148,0.549,51.941,-38.330,158.447
0.982,0.119,0.538,56.091,-31.921,166.565
1.009,0.088,0.539,60.242,-24.902,175.659
1.041,0.058,0.540,64.453,-18.616,184.326
1.088,0.028,0.561,69.702,-14.587,191.956
1.133,-0.010,0.577,75.500,-14.221,198.669
1.156,-0.057,0.588,81.726,-16.907,204.468
1.179,-0.096,0.619,87.708,-21.240,209.595
1.203,-0.130,0.657,92.957,-27.771,215.637
1.193,-0.172,0.646,97.229,-37.292,222.107
1.174,-0.208,0.654,100.281,-45.288,228.271
1.143,-0.231,0.669,102.112,-52.185,233.276
1.107,-0.252,0.683,103.577,-58.777,237.061
1.059,-0.282,0.670,103.943,-65.125,238.953
0.997,-0.300,0.654,102.844,-68.787,238.831
0.945,-0.303,0.654,100.464,-69.031,237.549
0.908,-0.308,0.637,98.022,-67.871,235.352
0.881,-0.320,0.640,95.093,-64.026,233.215
0.859,-0.320,0.651,91.736,-59.021,231.567
0.854,-0.310,0.661,89.355,-54.810,230.957
0.849,-0.310,0.674,87.402,-51.331,231.750
0.836,-0.313,0.689,84.595,-49.255,233.459
0.817,-0.309,0.696,81.726,-48.035,235.352
0.785,-0.293,0.700,79.773,-46.997,236.633
0.749,-0.282,0.700,78.064,-46.143,236.450
0.713,-0.276,0.690,76.721,-44.983,234.375
0.690,-0.270,0.689,75.745,-43.030,230.042
0.668,-0.262,0.686,74.890,-41.077,223.206
0.644,-0.249,0.681,73.547,-39.124,215.027
0.637,-0.229,0.677,72.083,-37.781,206.604
0.643,-0.219,0.683,71.289,-37.231,198.486
0.637,-0.221,0.691,71.716,-37.231,191.650
0.632,-0.226,0.701,71.350,-38.208,186.890
0.626,-0.238,0.704,70.374,-40.405,183.777
0.625,-0.250,0.712,68.237,-43.091,182.190
0.606,-0.264,0.716,65.369,-45.837,181.763
0.565,-0.282,0.711,61.768,-48.462,181.335
0.520,-0.290,0.700,58.044,-50.537,179.687
0.479,-0.300,0.684,53.589,-50.781,177.002
0.423,-0.302,0.665,49.316,-50.049,172.546
0.377,-0.293,0.644,45.166,-47.729,166.870
0.338,-0.283,0.623,41.626,-44.678,159.790
0.322,-0.272,0.608,39.429,-41.382,151.672
0.335,-0.264,0.611,39.917,-38.330,142.517
0.370,-0.260,0.646,42.969,-35.950,133.118
0.412,-0.274,0.708,48.828,-34.851,125.488
0.424,-0.301,0.756,56.091,-36.926,119.446
0.427,-0.330,0.786,61.584,-41.199,114.563
0.411,-0.359,0.788,63.660,-45.959,110.962
0.366,-0.373,0.778,61.462,-49.805,107.788
0.324,-0.380,0.768,55.969,-51.636,104.614
0.282,-0.382,0.766,48.279,-51.453,101.624
0.262,-0.351,0.789,41.016,-49.683,98.022
0.280,-0.317,0.827,38.208,-47.607,92.896
0.289,-0.311,0.853,40.833,-47.424,86.487
0.296,-0.307,0.887,45.532,-49.255,80.017
0.310,-0.316,0.928,52.551,-53.528,73.975
0.294,-0.354,0.960,60.425,-58.899,69.336
0.256,-0.393,0.994,66.406,-64.087,66.589
0.253,-0.418,1.038,69.885,-68.909,64.209
0.260,-0.460,1.078,70.801,-73.486,62.561
0.229,-0.505,1.108,67.810,-76.477,61.279
0.186,-0.531,1.125,61.096,-78.430,59.082
0.141,-0.545,1.129,52.429,-77.820,56.335
0.099,-0.550,1.122,42.419,-73.669,53.101
0.058,-0.541,1.108,32.532,-67.139,48.889
0.040,-0.522,1.097,24.414,-58.044,43.762
0.041,-0.506,1.094,18.677,-48.096,37.842
0.039,-0.503,1.090,15.320,-38.818,32.043
0.030,-0.505,1.080,12.573,-30.457,27.344
0.019,-0.507,1.064,9.949,-23.193,23.499
0.015,-0.500,1.050,7.385,-16.846,19.958
0.015,-0.486,1.037,5.920,-11.108,16.724
0.007,-0.474,1.018,5.432,-6.042,14.343

1.371,-0.761,0.417,-106.384,114.014,-291.077
1.397,-0.724,0.411,-109.253,101.074,-295.044
1.420,-0.702,0.414,-109.924,91.431,-296.448
1.381,-0.690,0.403,-111.572,86.914,-293.579
1.331,-0.670,0.358,-115.173,87.280,-289.246
1.325,-0.651,0.306,-118.896,93.201,-287.903
1.340,-0.639,0.260,-122.437,105.469,-289.246
1.345,-0.632,0.217,-127.136,121.948,-291.809
1.344,-0.611,0.178,-133.057,140.137,-295.410
1.367,-0.579,0.145,-139.709,158.936,-299.011
1.376,-0.543,0.115,-146.667,178.528,-301.270
1.349,-0.501,0.063,-153.503,198.975,-301.819
1.412,-0.427,0.031,-160.645,219.055,-299.500
1.543,-0.315,0.031,-166.992,232.239,-292.664
1.610,-0.195,0.046,-170.044,234.558,-284.058
1.613,-0.066,0.047,-169.067,227.722,-275.879
1.602,0.052,0.040,-163.025,215.881,-267.212
1.605,0.156,0.054,-153.015,201.111,-257.202
1.573,0.251,0.079,-140.625,184.265,-245.483
1.498,0.321,0.101,-127.686,167.603,-233.704
1.401,0.354,0.116,-115.601,154.480,-223.328
1.315,0.379,0.125,-105.042,147.278,-214.661
1.289,0.418,0.144,-95.520,146.667,-208.923
1.290,0.457,0.167,-86.670,149.475,-205.383
1.342,0.476,0.253,-78.674,153.198,-201.843
1.429,0.506,0.302,-72.754,151.245,-196.228
1.461,0.533,0.334,-67.200,143.066,-189.331
1.520,0.547,0.413,-62.317,132.263,-182.007
1.528,0.592,0.446,-56.274,117.004,-175.659
1.457,0.607,0.441,-52.002,102.966,-165.710
1.436,0.588,0.492,-48.096,93.445,-154.297
1.442,0.592,0.512,-45.715,87.341,-145.081
1.419,0.620,0.530,-44.128,82.825,-134.705
1.385,0.630,0.520,-44.067,81.421,-121.399
1.370,0.607,0.528,-44.373,83.008,-104.919
1.373,0.600,0.531,-44.678,84.900,-87.341
1.392,0.606,0.522,-44.189,84.351,-69.702
1.406,0.609,0.508,-42.419,81.787,-52.551
1.386,0.609,0.493,-38.208,77.881,-37.231
1.348,0.603,0.478,-32.349,72.388,-23.804
1.321,0.591,0.465,-25.024,65.369,-11.292
1.292,0.559,0.440,-16.785,57.007,-0.061
1.260,0.527,0.426,-7.507,48.889,10.437
1.239,0.502,0.418,2.991,40.466,20.081
1.220,0.467,0.404,14.648,31.311,30.334
1.216,0.423,0.401,26.794,21.423,40.955
1.231,0.368,0.406,39.978,10.315,50.964
1.238,0.312,0.423,52.551,-1.770,61.829
1.239,0.265,0.426,64.453,-16.052,73.547
1.255,0.213,0.420,75.745,-33.020,85.938
1.262,0.162,0.417,84.717,-50.476,98.206
1.260,0.119,0.415,92.346,-68.604,109.558
1.263,0.076,0.411,99.121,-87.341,119.385
1.255,0.033,0.402,104.614,-105.408,127.808
1.238,-0.001,0.391,108.582,-122.925,135.376
1.241,-0.045,0.377,111.938,-139.099,141.296
1.243,-0.093,0.371,113.892,-152.649,145.752
1.226,-0.138,0.364,114.868,-163.391,151.123
1.191,-0.171,0.358,114.319,-171.143,158.997
1.161,-0.210,0.338,113.037,-176.270,168.945
1.120,-0.249,0.312,110.596,-177.429,178.894
1.067,-0.282,0.283,107.666,-173.462,187.439
1.015,-0.313,0.271,104.614,-163.940,194.031
0.969,-0.341,0.257,102.356,-150.024,199.097
0.924,-0.359,0.250,101.624,-132.446,202.454
0.914,-0.373,0.247,102.112,-112.488,204.041
0.944,-0.385,0.254,105.225,-91.492,202.820
0.979,-0.391,0.269,110.718,-72.021,199.097
1.010,-0.385,0.276,117.859,-56.396,194.824
1.049,-0.404,0.281,127.075,-45.349,190.247
1.080,-0.431,0.289,136.963,-37.720,186.279
1.091,-0.455,0.290,145.996,-33.325,184.753
1.091,-0.487,0.297,152.100,-31.128,186.035
1.070,-0.513,0.281,155.273,-29.907,190.063
1.035,-0.524,0.252,155.579,-27.344,195.251
0.996,-0.526,0.238,154.297,-21.667,200.378
0.940,-0.530,0.214,152.893,-12.939,203.491
0.878,-0.524,0.194,151.428,0.183,203.369
0.830,-0.508,0.172,151.245,18.738,199.585
0.795,-0.506,0.150,153.748,44.434,193.420
0.804,-0.509,0.124,156.921,75.745,186.279
0.887,-0.510,0.131,160.217,106.873,178.467
1.048,-0.502,0.179,163.574,129.883,170.715
1.223,-0.488,0.227,166.077,136.597,163.086
1.348,-0.479,0.270,167.664,124.146,156.189
1.441,-0.467,0.294,167.847,94.971,149.841
1.481,-0.458,0.302,166.992,53.406,144.775
1.461,-0.453,0.296,165.955,4.944,141.602
1.404,-0.440,0.282,164.917,-45.288,141.052
1.317,-0.429,0.253,163.513,-95.154,142.456
1.190,-0.419,0.218,161.560,-139.160,145.386
1.046,-0.410,0.177,159.119,-173.706,148.682
0.909,-0.408,0.140,156.982,-197.144,151.062
0.779,-0.414,0.118,155.090,-208.862,151.855
0.701,-0.425,0.127,152.344,-209.839,150.879
0.656,-0.441,0.152,149.353,-203.918,148.682
0.620,-0.460,0.171,146.912,-194.153,145.142
0.598,-0.483,0.199,144.653,-180.481,140.381
0.579,-0.509,0.241,142.029,-164.246,135.010
0.553,-0.524,0.260,138.062,-146.851,129.517
0.523,-0.533,0.286,133.484,-127.686,124.023
0.508,-0.536,0.303,128.174,-106.873,119.324
0.501,-0.536,0.316,122.192,-85.632,114.868
0.488,-0.545,0.325,115.417,-64.758,111.023
0.504,-0.557,0.343,108.459,-45.349,107.178
0.544,-0.555,0.364,101.440,-29.907,103.760
0.557,-0.568,0.382,96.252,-19.592,99.854
0.549,-0.607,0.396,93.140,-11.719,95.276
0.547,-0.639,0.410,90.942,-4.944,90.698
0.568,-0.640,0.418,88.501,-0.305,86.487
0.564,-0.637,0.428,87.036,1.892,80.872
0.610,-0.665,0.463,86.060,2.686,73.730
0.717,-0.681,0.512,84.717,-1.282,64.270
0.763,-0.686,0.538,83.008,-12.451,51.270
0.758,-0.686,0.549,82.092,-27.710,37.720
0.730,-0.679,0.545,82.703,-41.870,25.391
0.694,-0.670,0.554,84.900,-50.659,16.113
0.655,-0.675,0.585,87.097,-53.345,12.573
0.623,-0.702,0.625,87.036,-51.086,14.465

0.933,-0.778,-0.960,-254.028,145.630,8.545
0.895,-0.758,-1.075,-253.296,121.521,1.404
0.829,-0.722,-1.195,-254.272,103.271,-4.639
0.763,-0.668,-1.309,-257.629,91.980,-8.362
0.734,-0.611,-1.437,-263.550,87.097,-9.399
0.727,-0.532,-1.563,-270.630,87.585,-7.507
0.690,-0.443,-1.693,-276.794,93.445,-2.808
0.636,-0.318,-1.813,-281.433,105.225,3.845
0.618,-0.185,-1.904,-281.799,122.803,11.719
0.641,-0.055,-1.953,-278.198,143.188,21.667
0.678,0.067,-1.970,-270.813,161.743,31.311
0.720,0.169,-1.951,-260.071,176.208,39.795
0.760,0.264,-1.906,-246.582,184.021,47.058
0.773,0.346,-1.845,-231.934,184.204,53.345
0.700,0.428,-1.764,-216.064,178.833,58.838
0.713,0.451,-1.704,-199.646,171.082,64.880
0.697,0.492,-1.624,-185.852,163.940,67.993
0.634,0.538,-1.501,-174.988,155.762,70.190
0.631,0.526,-1.433,-166.504,143.433,71.838
0.608,0.585,-1.356,-161.682,132.690,69.031
0.545,0.646,-1.273,-157.288,125.854,69.824
0.517,0.630,-1.233,-153.198,120.300,72.266
0.520,0.653,-1.177,-150.940,117.432,71.106
0.536,0.699,-1.123,-148.193,116.333,70.007
0.543,0.737,-1.065,-143.921,115.967,69.946
0.567,0.770,-1.019,-139.099,115.662,69.763
0.613,0.802,-0.981,-133.545,115.356,69.580
0.648,0.843,-0.948,-126.953,115.112,68.787
0.690,0.882,-0.917,-120.239,114.258,67.688
0.746,0.896,-0.898,-112.366,111.267,66.162
0.818,0.915,-0.876,-104.858,107.239,63.904
0.877,0.959,-0.847,-96.436,100.403,59.631
0.932,0.990,-0.822,-85.693,89.539,55.237
0.991,0.999,-0.804,-74.158,75.867,50.354
1.022,1.008,-0.786,-62.256,61.401,44.067
1.025,1.005,-0.772,-49.622,45.898,36.560
1.028,0.990,-0.775,-37.720,30.457,28.625
1.021,0.966,-0.788,-26.306,16.846,20.691
1.012,0.935,-0.810,-15.869,5.005,13.123
1.011,0.898,-0.837,-6.104,-4.272,5.493
1.014,0.860,-0.865,3.845,-11.475,-2.014
1.015,0.830,-0.894,14.160,-18.005,-8.728
1.011,0.801,-0.918,25.574,-23.926,-14.648
0.997,0.764,-0.932,38.757,-29.846,-19.897
0.970,0.722,-0.946,53.345,-35.400,-24.475
0.937,0.674,-0.953,68.909,-40.466,-28.625
0.901,0.619,-0.945,85.510,-45.288,-32.715
0.874,0.551,-0.934,101.501,-50.354,-37.598
0.852,0.488,-0.930,115.234,-55.115,-43.701
0.828,0.438,-0.929,127.869,-60.608,-50.171
0.801,0.391,-0.933,139.160,-66.833,-56.396
0.765,0.353,-0.946,148.437,-73.914,-61.768
0.718,0.317,-0.974,156.250,-80.994,-65.857
0.667,0.276,-1.009,161.987,-86.670,-69.702
0.634,0.231,-1.048,166.443,-89.905,-73.059
0.638,0.172,-1.089,171.143,-91.187,-76.660
0.650,0.133,-1.105,177.856,-91.309,-80.444
0.668,0.098,-1.115,186.523,-92.712,-82.703
0.712,0.030,-1.138,196.899,-94.299,-83.496
0.688,-0.021,-1.138,205.933,-94.482,-84.534
0.644,-0.066,-1.125,213.440,-94.055,-85.938
0.659,-0.118,-1.118,218.994,-92.346,-87.280
0.676,-0.147,-1.102,221.985,-89.844,-88.623
0.662,-0.178,-1.081,223.816,-87.952,-88.501
0.683,-0.228,-1.053,224.609,-87.402,-86.487
0.735,-0.278,-1.036,222.412,-88.806,-85.205
0.775,-0.289,-1.015,218.323,-93.445,-85.327
0.793,-0.294,-0.996,214.844,-100.342,-84.717
0.806,-0.312,-0.985,211.243,-109.436,-83.191
0.852,-0.323,-0.967,205.872,-119.690,-81.299
0.890,-0.311,-0.948,200.195,-131.714,-78.552
0.906,-0.302,-0.931,196.228,-145.203,-74.219
0.913,-0.293,-0.913,193.115,-159.851,-68.420
0.904,-0.294,-0.894,190.735,-174.072,-62.012
0.935,-0.305,-0.867,187.866,-187.073,-55.237
1.002,-0.306,-0.825,183.594,-201.294,-48.950
1.009,-0.302,-0.791,181.213,-217.529,-44.067
0.973,-0.298,-0.772,179.993,-233.154,-39.734
0.923,-0.305,-0.738,178.894,-245.117,-35.034
0.870,-0.300,-0.708,177.246,-251.587,-29.785
0.815,-0.301,-0.690,176.208,-252.869,-23.865
0.769,-0.335,-0.647,174.194,-249.634,-17.517
0.734,-0.369,-0.581,171.143,-241.089,-11.353
0.716,-0.387,-0.515,166.077,-229.065,-5.615
0.721,-0.400,-0.455,161.011,-216.675,0.244
0.762,-0.414,-0.396,155.823,-205.078,7.324
0.818,-0.425,-0.342,150.757,-195.007,14.160
0.861,-0.437,-0.301,146.423,-186.646,20.142
0.909,-0.447,-0.265,143.738,-179.321,25.208
0.978,-0.444,-0.216,141.663,-173.157,30.640
1.025,-0.427,-0.169,140.320,-170.349,37.842
1.032,-0.429,-0.137,139.771,-171.997,46.448
1.030,-0.446,-0.111,139.648,-176.270,55.115
1.014,-0.456,-0.089,140.015,-181.580,63.232
