aX,aY,aZ,gX,gY,gZ
0.634,1.357,0.923,-60.669,56.946,-18.433
0.797,1.326,0.998,-75.134,54.443,-17.700
0.998,1.262,1.068,-89.417,52.490,-22.766
1.199,1.315,1.020,-101.685,53.040,-34.302
1.364,1.482,0.961,-102.600,59.509,-52.490
1.593,1.503,0.996,-82.275,73.486,-68.909
2.055,1.295,1.125,-51.575,89.661,-65.796
2.580,0.958,1.355,-29.175,84.595,-37.415
2.795,0.640,1.529,-23.987,43.213,4.517
2.577,0.380,1.536,-33.142,-27.771,47.974
2.074,0.123,1.455,-47.546,-98.450,76.050
1.505,-0.201,1.351,-63.843,-120.789,81.604
1.165,-0.453,1.257,-88.379,-76.904,75.867
1.145,-0.544,1.245,-119.751,5.249,60.974
1.231,-0.520,1.129,-143.616,89.417,29.114
1.318,-0.359,0.954,-144.958,156.250,-22.339
1.796,-0.268,0.990,-121.277,198.975,-75.989
2.676,-0.323,1.211,-83.740,193.420,-100.037
3.127,-0.445,1.397,-48.828,110.535,-85.632
2.965,-0.544,1.352,-19.958,-22.644,-48.584
2.432,-0.718,1.168,1.099,-146.545,-1.221
1.600,-0.870,0.949,14.221,-212.158,44.617
0.923,-0.921,0.781,21.057,-202.148,71.350
0.670,-0.946,0.813,21.790,-135.254,71.838
0.748,-0.979,0.951,17.273,-55.847,51.697
1.013,-0.994,1.091,8.057,-0.183,23.804
1.196,-0.939,1.155,-4.761,17.822,-1.709
1.228,-0.839,1.150,-15.625,5.310,-18.982
1.099,-0.769,1.066,-18.677,-20.630,-26.001
0.913,-0.775,0.979,-13.000,-41.809,-26.123
0.773,-0.792,0.940,-3.845,-46.204,-22.949
0.709,-0.797,0.960,3.967,-34.058,-18.494
0.733,-0.778,0.993,6.409,-14.465,-11.536
0.785,-0.701,1.023,2.869,3.540,-5.798
0.831,-0.604,1.038,-3.723,17.029,-3.723
0.961,-0.552,1.038,-11.536,24.475,-1.465
1.021,-0.482,1.004,-18.616,21.912,3.540
1.014,-0.390,0.961,-23.132,12.390,9.521
0.954,-0.318,0.907,-21.729,2.502,16.907
0.880,-0.298,0.836,-15.930,-1.526,24.658
0.833,-0.291,0.777,-10.681,1.770,30.212
0.849,-0.271,0.793,-7.385,9.949,32.654
0.859,-0.269,0.842,-4.761,19.714,33.386
0.898,-0.257,0.928,-3.296,31.189,33.142
0.974,-0.277,1.026,-2.930,41.992,32.898
1.070,-0.296,1.107,-5.066,47.668,33.875
1.173,-0.248,1.163,-11.536,46.692,36.072
1.239,-0.178,1.180,-20.508,37.048,41.321
1.204,-0.100,1.119,-29.846,22.156,48.157
1.134,-0.022,1.015,-36.194,9.766,54.382
1.067,0.023,0.917,-38.940,2.808,58.716
1.016,0.034,0.818,-37.476,-0.183,57.007
0.970,0.066,0.738,-32.471,0.916,47.668
0.947,0.068,0.693,-24.536,7.324,33.997
0.988,0.032,0.656,-16.418,16.968,21.912
1.052,0.052,0.635,-11.902,26.001,14.465
1.115,0.092,0.594,-9.888,28.931,11.597
1.123,0.166,0.552,-7.629,27.954,10.315
1.102,0.273,0.509,-4.761,27.832,11.536
1.097,0.334,0.494,0.244,29.846,16.052
1.118,0.331,0.521,8.301,32.410,20.325
1.145,0.267,0.564,16.785,31.921,21.729
1.177,0.185,0.615,22.339,26.733,20.630
1.188,0.124,0.617,23.010,17.029,18.433
1.157,0.105,0.597,17.395,4.761,15.320
1.075,0.124,0.553,10.132,-6.348,11.536
0.999,0.156,0.489,4.272,-12.878,7.690
0.954,0.191,0.433,0.732,-13.184,3.784
0.877,0.249,0.386,-0.183,-9.094,-1.160
0.857,0.276,0.347,3.479,-1.648,-8.118
0.861,0.279,0.329,9.644,10.010,-18.250
0.888,0.272,0.348,15.747,23.621,-28.198
0.950,0.277,0.395,20.203,35.095,-33.447
1.049,0.247,0.436,23.132,39.978,-33.447
1.140,0.220,0.440,22.949,35.889,-30.029
1.137,0.268,0.423,20.508,24.170,-26.367
1.113,0.301,0.388,18.127,9.338,-23.071
1.085,0.334,0.370,16.663,-3.235,-21.484
1.043,0.359,0.363,16.663,-11.108,-21.973
1.018,0.368,0.360,18.250,-13.855,-22.339
1.008,0.365,0.376,21.179,-11.780,-22.339
0.991,0.349,0.403,24.719,-6.897,-23.071
0.967,0.314,0.418,28.931,0.671,-24.353
0.942,0.268,0.424,31.921,11.108,-27.222
0.947,0.258,0.404,31.250,23.254,-30.823
0.993,0.272,0.396,25.513,33.691,-33.997
1.038,0.333,0.405,17.151,39.001,-35.889
1.059,0.381,0.395,10.742,37.170,-35.522
1.085,0.426,0.405,8.240,31.006,-34.058
1.134,0.482,0.497,10.559,22.156,-32.532
1.171,0.485,0.580,17.517,9.277,-28.076
1.191,0.445,0.640,25.330,-7.019,-19.165
1.114,0.367,0.668,30.762,-23.865,-10.437
0.991,0.262,0.660,32.471,-35.278,-4.211
0.869,0.160,0.609,27.283,-36.865,-1.709
0.789,0.124,0.544,14.465,-27.771,-3.052
0.731,0.168,0.475,-1.709,-13.062,-8.484
0.727,0.234,0.420,-16.602,2.869,-17.029
0.784,0.302,0.383,-26.550,17.395,-25.146
0.852,0.378,0.375,-29.297,26.367,-30.212
0.912,0.448,0.394,-25.574,28.809,-30.090
0.958,0.461,0.415,-16.296,24.902,-24.841
0.995,0.432,0.443,-4.761,16.357,-17.944
0.995,0.366,0.450,5.798,4.700,-10.803
0.954,0.330,0.468,13.367,-6.409,-5.310
0.894,0.312,0.500,18.677,-14.404,-2.136
0.837,0.277,0.515,22.156,-18.433,2.258
0.805,0.251,0.527,22.827,-18.005,6.653
0.782,0.233,0.534,22.095,-14.648,7.812
0.798,0.219,0.544,19.653,-9.460,5.188
0.794,0.212,0.545,16.174,-3.784,-0.122
0.784,0.211,0.532,11.780,3.174,-5.737
0.810,0.203,0.526,7.080,11.963,-11.230
0.851,0.204,0.523,2.563,19.287,-15.930
0.878,0.214,0.524,-0.793,23.560,-19.958
0.907,0.228,0.528,-2.319,24.353,-21.973
0.921,0.245,0.524,-2.197,21.667,-20.996
0.917,0.250,0.517,-0.305,16.296,-17.578
0.887,0.249,0.503,2.136,9.583,-12.817

1.643,0.534,0.551,-33.875,64.758,0.916
1.785,0.459,0.644,-50.232,66.162,18.066
1.863,0.396,0.698,-62.195,55.115,32.104
1.838,0.334,0.732,-64.819,33.691,37.537
1.693,0.205,0.766,-55.969,8.972,30.823
1.525,-0.030,0.819,-38.330,-2.930,12.085
1.445,-0.366,0.911,-24.353,6.470,-11.047
1.940,-0.769,1.090,-26.062,36.499,-24.780
2.599,-0.973,1.252,-50.415,54.260,-12.634
2.891,-0.950,1.266,-79.834,35.156,6.897
2.893,-0.722,1.253,-97.473,-1.404,26.611
2.594,-0.623,1.142,-95.764,-40.222,43.030
2.206,-0.639,1.012,-78.918,-66.711,49.805
1.761,-0.710,0.858,-56.946,-72.449,42.664
1.370,-0.857,0.765,-35.400,-56.641,23.682
1.161,-1.033,0.694,-17.517,-26.550,-1.587
1.079,-1.179,0.648,-6.653,6.897,-32.104
1.099,-1.307,0.673,-0.732,34.790,-65.369
1.161,-1.444,0.710,3.723,54.382,-97.473
1.242,-1.563,0.705,1.892,70.557,-120.117
1.369,-1.506,0.736,-13.611,88.135,-120.789
1.604,-1.281,0.815,-35.278,100.220,-99.670
2.021,-1.018,0.901,-53.650,93.628,-67.200
2.246,-0.676,0.948,-64.575,52.063,-32.654
2.091,-0.435,0.908,-61.646,-17.700,-5.188
1.762,-0.369,0.748,-44.739,-87.646,15.930
1.364,-0.328,0.630,-23.193,-130.005,29.968
1.111,-0.366,0.574,-1.709,-136.841,36.682
0.936,-0.471,0.515,15.808,-115.784,35.889
0.839,-0.532,0.501,25.024,-75.012,23.010
0.911,-0.546,0.580,25.513,-24.841,6.958
1.067,-0.615,0.614,22.034,18.982,-3.784
1.176,-0.578,0.648,12.451,51.697,-11.292
1.264,-0.486,0.661,-0.854,72.510,-10.803
1.320,-0.310,0.708,-11.230,80.688,-5.737
1.423,-0.179,0.765,-16.113,77.759,2.563
1.565,-0.097,0.812,-17.151,60.791,15.381
1.583,-0.013,0.811,-17.151,30.701,30.823
1.480,0.049,0.755,-15.259,-4.639,44.739
1.332,0.083,0.685,-10.986,-34.485,56.519
1.158,0.085,0.611,-3.845,-53.223,63.782
0.995,0.039,0.551,3.540,-58.655,64.941
0.916,-0.028,0.536,8.301,-51.697,59.692
0.885,-0.054,0.528,10.010,-36.743,48.523
0.884,-0.020,0.514,9.460,-19.348,36.621
0.947,0.008,0.538,7.324,-2.625,26.855
1.014,0.021,0.583,5.798,10.315,19.287
1.042,-0.021,0.596,4.822,18.372,13.428
1.000,-0.087,0.561,2.014,24.963,9.583
0.987,-0.132,0.527,-4.272,34.058,7.202
1.009,-0.104,0.515,-13.062,43.030,6.348
1.037,-0.047,0.492,-21.545,46.082,5.798
1.067,0.005,0.469,-26.062,42.603,4.578
1.096,0.005,0.464,-25.391,34.546,2.808
1.105,-0.046,0.430,-20.752,23.437,2.502
1.122,-0.059,0.407,-15.686,11.902,3.479
1.118,-0.121,0.370,-10.010,0.122,5.432
1.097,-0.101,0.356,-4.333,-9.705,6.531
1.073,-0.169,0.337,3.113,-15.747,8.179
1.042,-0.204,0.331,9.583,-16.113,6.470
0.989,-0.238,0.305,15.198,-13.367,5.249
1.035,-0.224,0.362,18.005,-5.859,5.249
1.086,-0.218,0.422,21.667,-1.343,5.554
1.147,-0.247,0.483,26.062,-0.488,5.188
1.196,-0.291,0.542,29.724,-2.869,5.249
1.201,-0.317,0.560,31.250,-8.118,6.348
1.153,-0.346,0.528,30.701,-12.024,7.751
1.053,-0.387,0.463,28.809,-9.583,7.202
0.985,-0.419,0.379,24.109,2.014,4.883
0.979,-0.334,0.330,16.052,20.691,0.732
1.039,-0.204,0.346,10.620,37.476,-3.479
1.168,-0.076,0.406,12.695,44.556,-6.287
1.294,0.006,0.477,22.705,37.659,-5.005
1.385,0.008,0.545,38.574,18.555,1.160
1.412,-0.070,0.597,57.312,-6.836,10.437
1.332,-0.234,0.611,74.158,-32.227,19.043
1.157,-0.443,0.580,83.679,-47.729,24.170
0.933,-0.611,0.490,80.933,-43.396,24.414
0.755,-0.651,0.403,64.514,-15.320,19.775
0.719,-0.622,0.372,39.490,29.114,10.986
0.822,-0.460,0.361,11.780,75.317,-1.343
1.076,-0.247,0.412,-11.658,103.516,-11.658
1.312,-0.084,0.488,-22.156,101.563,-18.616
1.459,0.034,0.535,-18.494,70.618,-21.362
1.517,0.070,0.513,-5.005,21.118,-18.005
1.456,0.059,0.448,12.573,-32.471,-10.315
1.280,0.036,0.384,31.006,-76.416,-3.174
1.032,0.008,0.334,49.500,-97.961,0.549
0.811,-0.077,0.290,64.453,-90.881,0.061
0.660,-0.126,0.275,69.702,-54.932,-3.357
0.672,-0.165,0.274,64.514,-2.686,-8.118
0.865,-0.148,0.343,51.086,48.889,-13.367
1.134,-0.133,0.410,33.264,81.909,-17.090
1.375,-0.030,0.485,16.785,85.388,-16.663
1.535,0.028,0.517,7.080,60.364,-12.573
1.599,0.041,0.484,5.371,16.724,-6.470
1.555,0.053,0.415,8.789,-29.480,-0.366
1.433,0.071,0.346,17.517,-65.063,7.263
1.291,0.024,0.309,28.992,-79.468,15.198
1.140,-0.058,0.287,39.978,-70.923,21.667
1.024,-0.101,0.284,46.326,-42.053,23.193
1.009,-0.092,0.294,45.959,-0.183,19.348
1.024,-0.051,0.321,38.025,42.542,11.780
1.147,0.004,0.371,26.062,77.087,2.319
1.315,0.044,0.421,12.268,93.811,-4.211
1.465,0.109,0.457,-2.075,88.318,-5.798
1.525,0.185,0.451,-14.404,62.927,-1.404
1.508,0.235,0.398,-21.179,27.283,6.226
1.433,0.257,0.348,-21.606,-4.639,14.404
1.325,0.252,0.297,-17.456,-25.024,19.897
1.208,0.230,0.254,-11.658,-29.846,21.729
1.098,0.204,0.223,-6.042,-20.020,18.188
1.041,0.188,0.203,-2.319,0.305,10.681
1.014,0.215,0.210,-0.793,25.391,1.404
1.016,0.232,0.216,-0.488,48.828,-5.188
1.034,0.258,0.226,-0.671,64.758,-9.033
1.105,0.264,0.250,-2.197,70.007,-10.376
1.170,0.279,0.273,-4.150,62.683,-10.254
1.184,0.333,0.296,-4.700,44.861,-9.521

2.867,-0.186,0.601,3.845,85.999,11.230
2.795,-0.339,0.572,-13.000,10.681,69.580
2.606,-0.462,0.378,-26.306,-58.228,106.140
2.227,-0.524,0.191,-39.246,-95.825,105.652
1.814,-0.481,0.050,-52.856,-91.431,73.792
1.549,-0.403,-0.021,-59.631,-48.401,23.926
1.514,-0.359,-0.013,-53.589,19.531,-33.630
1.650,-0.415,0.024,-39.551,93.933,-86.243
2.042,-0.550,0.122,-25.940,154.663,-120.361
2.659,-0.742,0.323,-17.944,180.298,-126.282
3.327,-0.890,0.592,-20.996,151.428,-96.497
3.472,-0.853,0.740,-35.156,61.279,-33.386
3.203,-0.798,0.673,-44.434,-65.491,33.203
2.594,-0.850,0.449,-40.771,-183.044,81.299
1.741,-0.951,0.159,-31.067,-253.662,94.604
0.983,-1.020,-0.057,-24.231,-253.845,78.003
0.629,-0.996,-0.091,-24.231,-188.599,46.204
0.685,-0.866,-0.005,-27.344,-92.529,13.428
0.959,-0.733,0.085,-27.100,-4.333,-14.526
1.307,-0.580,0.218,-22.034,53.528,-37.292
1.598,-0.549,0.356,-11.902,74.646,-45.776
1.773,-0.549,0.457,-4.883,65.613,-34.058
1.898,-0.571,0.503,-3.540,35.339,-9.888
1.826,-0.595,0.503,-3.357,-3.174,9.155
1.616,-0.607,0.457,-4.822,-33.752,18.738
1.374,-0.636,0.369,-7.446,-46.021,25.391
1.181,-0.637,0.295,-12.329,-39.673,29.541
1.043,-0.599,0.271,-17.944,-21.179,28.809
0.962,-0.560,0.198,-21.912,-1.892,24.475
0.891,-0.446,0.166,-22.827,13.855,17.944
0.861,-0.325,0.154,-19.165,24.109,13.733
0.868,-0.227,0.167,-9.277,29.480,9.521
0.889,-0.114,0.204,4.395,30.396,3.662
0.960,-0.060,0.270,20.630,25.452,-0.977
1.102,-0.068,0.396,34.607,13.428,-0.244
1.223,-0.104,0.505,42.664,-8.789,6.775
1.282,-0.133,0.584,43.457,-37.292,16.357
1.243,-0.106,0.631,36.377,-62.744,25.513
1.143,-0.055,0.638,26.245,-80.261,33.203
1.000,-0.043,0.583,16.785,-86.365,38.330
0.855,-0.029,0.509,7.629,-78.125,37.354
0.772,-0.017,0.456,0.977,-57.312,30.884
0.800,-0.043,0.404,-4.211,-30.762,22.217
0.923,-0.016,0.380,-9.949,-7.751,14.343
1.024,0.036,0.351,-12.817,4.150,8.057
1.122,0.083,0.331,-11.536,6.836,4.211
1.190,0.081,0.316,-6.592,3.906,2.686
1.183,0.033,0.305,0.671,-0.916,2.808
1.142,-0.049,0.286,6.287,-2.502,4.333
1.088,-0.092,0.268,7.874,-0.305,5.859
1.041,-0.092,0.267,5.310,4.089,5.920
0.999,-0.091,0.256,1.160,9.399,4.028
0.976,-0.076,0.260,-3.723,15.137,0.244
0.972,-0.058,0.265,-7.935,21.057,-3.845
1.008,-0.050,0.275,-10.620,26.611,-8.850
1.079,-0.030,0.303,-12.573,31.433,-14.038
1.177,-0.032,0.324,-12.817,33.813,-18.005
1.276,-0.037,0.341,-12.146,32.959,-19.531
1.340,-0.052,0.340,-10.254,28.748,-19.043
1.365,-0.067,0.306,-7.629,23.437,-17.151
1.379,-0.076,0.263,-6.287,19.104,-14.160
1.408,-0.078,0.230,-5.188,16.296,-10.620
1.418,-0.067,0.191,-3.540,12.512,-7.385
1.403,-0.024,0.162,-0.610,7.385,-4.395
1.360,0.000,0.162,5.249,0.854,-2.014
1.318,-0.046,0.172,14.404,-5.981,0.122
1.257,-0.141,0.187,23.621,-12.024,0.610
1.178,-0.256,0.210,29.480,-14.160,-0.305
1.106,-0.365,0.224,30.701,-9.949,-1.770
0.999,-0.426,0.189,26.367,0.427,-2.808
0.995,-0.408,0.181,16.052,15.686,-3.235
1.076,-0.373,0.212,5.981,27.100,-4.333
1.115,-0.320,0.211,1.892,28.259,-8.850
1.170,-0.234,0.205,1.221,21.790,-12.878
1.238,-0.173,0.211,4.822,8.972,-14.160
1.300,-0.172,0.236,13.000,-7.690,-11.780
1.298,-0.228,0.253,24.841,-25.818,-6.897
1.159,-0.280,0.224,35.767,-39.978,-2.258
0.954,-0.361,0.166,42.175,-40.710,0.732
0.807,-0.412,0.131,41.382,-24.353,0.793
0.806,-0.413,0.143,33.997,1.404,-3.540
0.917,-0.343,0.172,23.499,24.048,-10.986
1.072,-0.253,0.236,13.977,32.104,-19.287
1.212,-0.193,0.274,10.193,23.926,-25.574
1.314,-0.167,0.275,13.062,4.700,-28.809
1.376,-0.210,0.262,21.301,-18.494,-28.442
1.306,-0.276,0.229,32.104,-38.574,-27.161
1.147,-0.342,0.162,42.419,-44.922,-27.283
0.988,-0.364,0.115,49.133,-31.738,-28.931
0.878,-0.375,0.067,48.523,-2.136,-30.640
0.976,-0.315,0.112,38.940,32.532,-31.189
1.154,-0.250,0.179,27.649,54.260,-33.325
1.320,-0.158,0.242,20.813,53.589,-37.354
1.481,-0.102,0.293,21.912,33.264,-40.222
1.607,-0.113,0.339,30.640,-0.061,-39.001
1.633,-0.145,0.358,42.725,-38.086,-33.081
1.566,-0.219,0.331,54.443,-72.021,-23.499
1.380,-0.321,0.273,62.805,-91.736,-13.611
1.121,-0.393,0.204,65.552,-88.806,-8.972
0.924,-0.393,0.133,61.768,-58.838,-11.353
0.913,-0.348,0.077,50.049,-9.583,-17.639
1.116,-0.171,0.144,32.837,39.490,-24.780
1.414,-0.034,0.249,21.973,66.895,-30.701
1.683,0.055,0.329,22.095,62.622,-32.654
1.864,0.086,0.387,28.748,32.776,-29.968
1.948,0.079,0.412,39.734,-9.094,-21.851
1.926,0.026,0.400,51.941,-49.377,-9.827
1.831,-0.028,0.392,61.890,-77.820,2.197
1.675,-0.116,0.367,68.604,-89.966,13.062
1.457,-0.162,0.337,70.007,-83.374,19.714
1.251,-0.164,0.326,66.284,-57.556,21.667
1.136,-0.182,0.330,59.509,-19.409,17.456
1.098,-0.149,0.357,49.377,21.179,8.484
1.176,-0.075,0.396,37.415,54.749,-1.038
1.293,-0.002,0.442,25.940,73.303,-6.775
1.386,0.081,0.451,16.357,72.998,-9.399
1.409,0.146,0.424,10.742,58.044,-10.193
1.391,0.169,0.352,10.254,36.194,-12.085
1.336,0.174,0.242,13.123,16.785,-16.479

1.656,0.053,1.261,-109.863,-2.502,-69.946
2.069,0.009,1.292,-153.015,10.376,-54.077
2.386,0.008,1.260,-183.289,17.578,-26.733
2.510,0.116,1.240,-193.970,12.634,3.296
2.482,0.157,1.124,-175.964,-2.197,26.245
2.300,0.232,1.078,-129.761,-16.785,35.400
2.185,0.122,1.205,-63.293,-30.334,34.607
2.033,-0.380,1.339,5.798,-43.030,27.588
1.919,-0.962,1.459,49.500,-45.044,11.841
1.778,-1.416,1.519,50.293,-32.837,2.808
1.578,-1.615,1.455,9.888,-10.559,5.432
1.484,-1.621,1.371,-48.157,22.278,7.812
1.693,-1.482,1.315,-102.844,56.946,2.136
2.034,-1.270,1.221,-141.418,65.796,-7.935
2.103,-1.080,1.021,-155.762,35.645,-17.639
1.976,-0.943,0.824,-147.888,-13.733,-21.057
1.666,-0.844,0.632,-121.155,-59.692,-20.020
1.355,-0.858,0.503,-78.430,-83.191,-21.912
1.147,-0.962,0.417,-30.090,-79.224,-28.992
1.086,-1.142,0.375,9.644,-56.519,-40.894
1.149,-1.277,0.466,34.607,-27.405,-54.749
1.257,-1.373,0.588,46.204,-3.357,-65.979
1.326,-1.332,0.686,44.861,13.245,-71.411
1.454,-1.169,0.905,32.593,24.536,-66.589
1.523,-1.008,1.083,17.334,26.001,-49.866
1.454,-0.858,1.135,0.366,17.151,-28.015
1.412,-0.681,1.210,-19.226,6.226,-7.874
1.290,-0.566,1.193,-32.654,-6.714,6.775
1.115,-0.609,1.087,-39.734,-19.104,15.076
0.967,-0.621,1.018,-43.457,-21.118,17.395
0.811,-0.698,0.852,-45.105,-10.376,17.151
0.687,-0.647,0.752,-49.622,15.930,11.475
0.655,-0.608,0.621,-56.396,53.833,5.127
0.673,-0.469,0.580,-61.707,93.079,-1.831
0.825,-0.352,0.614,-63.110,123.840,-4.944
1.001,-0.242,0.659,-59.326,135.498,-3.967
1.213,-0.150,0.734,-52.795,123.230,0.854
1.392,-0.044,0.822,-44.617,83.496,12.207
1.366,0.059,0.847,-31.982,19.836,24.292
1.179,0.032,0.780,-13.611,-44.861,34.058
0.980,-0.068,0.748,1.099,-88.867,42.542
0.787,-0.183,0.714,9.827,-105.103,46.082
0.622,-0.295,0.667,11.230,-96.741,42.847
0.605,-0.379,0.655,4.517,-71.106,35.034
0.657,-0.365,0.658,-8.240,-40.771,24.963
0.715,-0.259,0.655,-20.447,-15.930,16.052
0.777,-0.154,0.653,-26.855,2.380,10.925
0.834,-0.067,0.685,-25.146,15.747,7.812
0.878,-0.014,0.729,-17.761,23.437,6.775
0.937,-0.038,0.771,-9.399,25.513,7.874
0.965,-0.079,0.804,-4.272,22.034,8.789
0.931,-0.120,0.775,-3.174,15.686,8.484
0.928,-0.135,0.736,-6.653,12.207,8.911
0.966,-0.106,0.716,-12.512,10.620,8.301
0.992,-0.041,0.696,-16.968,8.057,5.432
0.954,-0.003,0.642,-18.616,4.761,2.380
0.912,-0.072,0.571,-17.456,4.639,0.977
0.874,-0.078,0.596,-15.198,12.329,-0.977
0.818,-0.130,0.575,-12.695,25.085,-4.944
0.773,-0.249,0.558,-10.864,41.931,-10.315
0.750,-0.313,0.538,-12.268,61.401,-16.052
0.772,-0.344,0.521,-16.357,78.796,-20.630
0.823,-0.368,0.532,-20.813,90.576,-26.184
0.935,-0.372,0.571,-24.170,93.567,-30.701
1.040,-0.352,0.595,-24.658,85.205,-34.119
1.122,-0.329,0.610,-21.912,67.749,-36.621
1.161,-0.341,0.606,-15.686,44.922,-36.987
1.177,-0.375,0.595,-8.606,23.193,-34.241
1.162,-0.406,0.571,-1.953,6.592,-30.273
1.125,-0.439,0.543,3.601,-2.747,-25.513
1.068,-0.497,0.504,7.568,-5.310,-21.729
0.988,-0.565,0.452,10.071,-0.732,-20.081
0.889,-0.603,0.398,9.827,11.353,-20.386
0.847,-0.642,0.364,6.775,30.334,-20.935
0.846,-0.693,0.334,2.380,52.185,-21.973
0.917,-0.648,0.366,-4.517,72.632,-24.231
1.071,-0.549,0.462,-9.155,84.045,-25.696
1.180,-0.519,0.505,-6.104,81.482,-27.161
1.246,-0.464,0.534,0.793,68.848,-26.550
1.310,-0.432,0.571,9.094,49.805,-20.874
1.327,-0.426,0.601,20.142,27.100,-12.573
1.250,-0.427,0.600,31.067,4.211,-4.272
1.072,-0.493,0.554,39.124,-13.672,2.258
0.865,-0.570,0.481,41.199,-17.578,3.723
0.692,-0.600,0.386,34.546,-2.502,-1.770
0.692,-0.568,0.348,20.386,28.259,-12.207
0.912,-0.486,0.402,4.639,61.096,-25.513
1.241,-0.393,0.462,-5.737,78.613,-37.781
1.560,-0.293,0.513,-6.775,74.158,-44.861
1.782,-0.131,0.533,-0.854,50.964,-41.809
1.900,0.008,0.534,11.597,16.418,-28.259
1.923,0.031,0.515,30.884,-21.118,-8.667
1.810,-0.037,0.476,51.514,-54.138,8.118
1.599,-0.186,0.448,67.322,-72.083,18.494
1.325,-0.348,0.395,73.364,-67.688,20.874
1.126,-0.495,0.350,67.505,-38.330,14.893
1.034,-0.520,0.307,49.744,9.094,3.052
1.097,-0.373,0.291,25.574,60.974,-10.986
1.350,-0.198,0.343,3.296,100.708,-21.606
1.629,-0.001,0.432,-8.301,113.403,-26.001
1.902,0.148,0.507,-5.432,95.947,-23.682
2.048,0.180,0.534,8.301,53.467,-13.367
2.076,0.165,0.542,27.588,0.793,1.709
1.912,0.103,0.498,47.791,-46.509,16.479
1.690,-0.029,0.473,64.880,-75.195,27.283
1.427,-0.238,0.398,72.937,-79.468,31.372
1.188,-0.384,0.313,68.359,-56.274,26.245
1.024,-0.378,0.231,52.429,-11.414,13.306
1.030,-0.300,0.174,30.334,43.274,-2.502
1.160,-0.145,0.152,8.362,92.712,-16.968
1.371,-0.024,0.157,-8.362,123.230,-26.978
1.580,0.091,0.158,-14.893,129.761,-32.593
1.680,0.217,0.171,-11.475,116.821,-36.072
1.689,0.279,0.172,1.160,91.736,-34.912
1.566,0.266,0.111,20.142,64.758,-30.884
1.443,0.227,0.161,39.612,47.913,-28.625
1.299,0.185,0.144,53.772,38.086,-24.597
1.203,0.100,0.121,61.401,32.227,-14.771
1.051,0.061,0.116,60.730,33.142,-8.667

2.149,0.815,-0.072,-23.437,58.105,3.906
2.425,0.830,0.036,-23.987,13.550,25.024
2.466,0.846,0.068,-25.085,-46.387,55.359
2.290,0.804,0.035,-23.132,-102.722,84.167
1.973,0.761,0.023,-19.653,-133.118,102.661
1.687,0.691,0.062,-16.052,-127.686,109.985
1.592,0.582,0.173,-12.146,-92.224,107.239
1.630,0.421,0.315,-9.216,-44.373,97.107
1.681,0.267,0.412,-7.385,-3.662,81.970
1.714,0.133,0.479,-6.531,25.085,65.918
1.687,-0.060,0.493,-5.737,42.236,51.697
1.751,-0.439,0.484,-9.155,54.932,42.053
1.812,-0.713,0.486,-25.818,65.857,42.236
1.887,-0.935,0.468,-52.795,68.665,48.889
2.037,-1.035,0.464,-79.590,60.242,52.185
2.037,-1.052,0.409,-97.595,35.156,52.307
1.888,-1.003,0.328,-98.999,1.892,50.476
1.654,-0.979,0.234,-82.947,-23.499,46.509
1.409,-1.048,0.148,-56.641,-35.095,41.138
1.162,-1.123,0.080,-30.518,-33.447,32.471
1.008,-1.189,0.045,-9.155,-24.292,19.287
0.959,-1.264,0.047,5.493,-15.564,3.357
0.996,-1.343,0.115,13.428,-13.428,-10.559
1.099,-1.443,0.207,14.465,-21.545,-17.273
1.213,-1.433,0.315,7.935,-41.077,-14.954
1.237,-1.359,0.386,-0.610,-67.383,-9.521
1.178,-1.250,0.417,-7.874,-90.149,-4.211
1.093,-1.185,0.409,-14.587,-100.159,2.197
0.988,-1.101,0.395,-19.714,-94.666,7.385
0.911,-1.035,0.360,-23.682,-74.890,8.240
0.943,-0.913,0.359,-25.146,-46.509,5.676
0.983,-0.781,0.358,-23.315,-18.494,1.648
1.077,-0.663,0.360,-17.395,3.235,-0.061
1.149,-0.600,0.363,-9.705,15.442,1.038
1.146,-0.618,0.309,-2.991,16.418,4.578
1.089,-0.641,0.230,-1.221,10.376,10.437
1.004,-0.557,0.186,-3.845,1.770,14.709
0.955,-0.426,0.166,-4.211,-6.348,16.113
0.986,-0.303,0.210,1.221,-14.587,15.015
1.003,-0.281,0.276,13.794,-24.963,12.207
1.018,-0.289,0.357,27.588,-32.349,10.986
1.085,-0.292,0.463,36.377,-32.715,13.428
1.122,-0.347,0.521,38.513,-29.175,16.541
1.182,-0.320,0.598,32.776,-21.729,17.395
1.223,-0.280,0.588,23.132,-13.000,16.296
1.272,-0.168,0.556,11.292,-5.798,16.418
1.270,-0.049,0.481,2.991,-4.028,17.578
1.215,-0.013,0.375,2.380,-6.897,16.052
1.159,0.006,0.302,6.165,-9.338,10.681
1.133,-0.008,0.273,12.634,-9.644,3.967
1.127,-0.026,0.276,18.433,-7.935,-2.747
1.150,-0.079,0.301,21.912,-3.296,-9.277
1.198,-0.130,0.321,21.240,3.906,-14.587
1.245,-0.115,0.355,16.663,11.536,-17.822
1.307,-0.111,0.390,9.766,15.625,-18.555
1.331,-0.129,0.403,2.686,14.282,-17.395
1.324,-0.138,0.374,-6.042,9.399,-14.404
1.234,-0.069,0.314,-14.893,4.089,-12.268
1.150,-0.020,0.249,-19.897,3.418,-11.902
1.114,-0.029,0.208,-19.409,9.277,-13.123
1.100,-0.038,0.186,-16.052,18.005,-14.221
1.116,-0.015,0.190,-11.902,24.109,-13.672
1.106,0.032,0.219,-5.554,24.231,-13.977
1.102,0.034,0.247,2.991,18.921,-14.587
1.062,0.017,0.255,10.864,11.475,-14.465
1.044,0.003,0.249,15.808,4.883,-12.634
1.031,-0.008,0.273,16.846,0.366,-10.986
1.041,-0.017,0.282,15.625,-2.930,-11.719
1.039,-0.026,0.281,13.489,-7.568,-10.986
0.991,-0.007,0.264,11.047,-11.658,-10.132
0.942,-0.035,0.245,9.583,-13.489,-9.277
0.927,-0.075,0.231,7.996,-12.207,-9.521
0.914,-0.089,0.215,6.165,-9.460,-10.071
0.889,-0.092,0.193,5.005,-5.920,-10.681
0.861,-0.100,0.180,4.639,-1.892,-10.498
0.858,-0.138,0.178,4.700,2.075,-11.108
0.920,-0.191,0.200,4.395,4.639,-12.207
0.970,-0.215,0.222,3.845,2.319,-13.733
1.003,-0.255,0.239,4.456,-3.174,-14.099
1.039,-0.352,0.248,6.409,-8.362,-13.733
1.035,-0.406,0.229,7.874,-11.597,-13.855
0.988,-0.453,0.190,7.263,-11.230,-13.916
0.913,-0.510,0.150,5.798,-5.554,-13.672
0.880,-0.586,0.128,3.723,7.446,-14.404
0.888,-0.603,0.117,-0.122,24.658,-15.442
0.927,-0.661,0.093,-5.066,39.673,-16.235
1.022,-0.630,0.116,-10.498,49.500,-17.822
1.160,-0.598,0.157,-12.085,51.514,-20.081
1.264,-0.585,0.174,-7.263,44.556,-21.729
1.352,-0.592,0.194,0.366,32.593,-19.775
1.378,-0.628,0.217,8.972,17.639,-14.648
1.328,-0.654,0.213,17.395,3.113,-8.301
1.218,-0.666,0.177,23.376,-7.446,-1.465
1.023,-0.751,0.113,25.391,-10.071,3.174
0.785,-0.830,0.029,21.912,1.343,2.441
0.718,-0.830,0.033,10.559,30.945,-1.709
0.807,-0.778,0.095,-1.648,64.270,-9.705
0.945,-0.717,0.173,-10.864,86.487,-21.851
1.123,-0.621,0.268,-15.869,91.919,-31.189
1.316,-0.581,0.380,-15.869,77.881,-33.447
1.422,-0.624,0.395,-13.000,42.053,-29.602
1.328,-0.652,0.304,-12.085,-5.615,-24.658
1.046,-0.701,0.096,-12.329,-46.021,-22.156
0.726,-0.765,-0.144,-13.977,-58.716,-25.391
0.527,-0.797,-0.316,-18.311,-33.386,-37.476
0.596,-0.803,-0.339,-24.414,21.729,-56.946
0.892,-0.756,-0.285,-31.616,85.632,-76.416
1.277,-0.595,-0.172,-39.490,133.484,-90.515
1.610,-0.463,-0.040,-42.236,151.550,-95.947
1.799,-0.243,0.090,-35.889,141.296,-95.093
1.936,-0.241,0.141,-22.461,114.868,-81.665
2.008,-0.228,0.226,-5.737,82.153,-65.918
1.998,-0.326,0.300,8.667,48.584,-52.979
1.854,-0.382,0.280,14.832,18.860,-38.879
1.667,-0.348,0.232,12.329,4.150,-25.757
1.540,-0.301,0.198,5.188,7.202,-17.822
1.500,-0.186,0.178,-3.235,20.142,-15.625
1.530,-0.013,0.207,-10.437,35.278,-18.066
1.659,0.085,0.277,-11.597,44.128,-17.639

0.763,1.517,-0.224,-44.128,-38.269,55.847
0.781,1.438,-0.229,-34.424,-46.082,55.969
0.760,1.399,-0.223,-25.085,-51.819,55.664
0.681,1.362,-0.201,-17.273,-56.030,54.138
0.532,1.210,-0.215,-10.803,-53.894,51.270
0.415,0.943,-0.206,-6.531,-37.231,41.992
0.547,0.650,-0.143,-8.423,-3.235,29.907
0.827,0.460,-0.063,-20.386,33.203,23.560
1.162,0.383,0.043,-37.109,52.612,27.100
1.421,0.333,0.126,-46.021,44.006,35.095
1.536,0.286,0.211,-40.894,8.667,43.152
1.470,0.109,0.249,-22.034,-44.434,47.546
1.297,-0.161,0.234,3.479,-94.727,44.983
1.054,-0.537,0.252,25.696,-125.488,31.738
0.791,-0.958,0.239,36.682,-125.122,13.733
0.678,-1.249,0.250,27.466,-85.510,-1.221
0.815,-1.548,0.232,6.592,-17.456,-17.029
1.531,-1.656,0.422,-22.156,61.707,-37.292
1.964,-1.564,0.281,-54.138,116.882,-66.162
2.489,-1.368,0.543,-78.308,139.648,-92.896
2.597,-1.184,0.384,-83.069,124.084,-111.328
2.608,-0.906,0.460,-80.017,88.623,-116.089
2.473,-0.851,0.338,-62.561,35.522,-100.525
2.112,-0.898,0.205,-40.771,-18.799,-78.247
1.763,-0.720,0.208,-23.499,-62.317,-60.608
1.343,-0.823,0.006,-5.615,-92.407,-44.250
0.970,-0.839,-0.133,2.319,-98.938,-42.358
0.667,-0.787,-0.191,-0.671,-79.895,-53.772
0.654,-0.758,-0.190,-7.080,-42.114,-63.782
0.742,-0.663,-0.104,-15.259,-0.610,-72.021
0.937,-0.542,0.057,-21.118,31.677,-78.613
1.201,-0.417,0.204,-18.860,46.814,-76.599
1.450,-0.335,0.333,-11.169,41.443,-68.604
1.632,-0.267,0.460,-0.427,17.517,-58.533
1.710,-0.262,0.516,11.963,-18.616,-48.340
1.624,-0.272,0.502,21.606,-59.204,-37.964
1.431,-0.358,0.406,26.428,-91.248,-28.320
1.260,-0.315,0.381,24.658,-104.065,-25.146
1.126,-0.346,0.323,19.836,-97.717,-23.315
1.036,-0.343,0.254,11.658,-77.087,-23.193
1.042,-0.274,0.283,2.075,-48.950,-26.794
1.120,-0.298,0.252,-3.418,-25.085,-29.297
1.151,-0.241,0.242,-9.888,-8.301,-34.729
1.168,-0.197,0.232,-14.038,2.075,-38.696
1.173,-0.179,0.202,-15.686,10.132,-40.588
1.168,-0.157,0.177,-15.747,18.738,-42.480
1.241,-0.139,0.206,-13.000,27.466,-43.457
1.330,-0.161,0.225,-8.484,31.189,-41.809
1.406,-0.185,0.242,-4.150,25.574,-39.124
1.415,-0.216,0.231,-0.244,12.024,-35.706
1.364,-0.246,0.203,3.113,-4.761,-31.372
1.307,-0.285,0.177,4.822,-18.982,-27.100
1.246,-0.325,0.153,5.188,-28.381,-23.254
1.184,-0.324,0.141,3.174,-31.616,-18.982
1.142,-0.315,0.140,0.977,-29.236,-15.137
1.117,-0.305,0.150,0.916,-22.888,-14.954
1.121,-0.291,0.188,2.563,-14.404,-17.578
1.150,-0.308,0.227,5.798,-6.775,-19.714
1.171,-0.339,0.257,8.972,-1.709,-20.081
1.183,-0.359,0.268,10.376,1.892,-19.104
1.184,-0.368,0.266,9.888,5.859,-16.479
1.179,-0.381,0.250,8.484,9.766,-14.404
1.177,-0.398,0.236,6.165,13.000,-13.428
1.203,-0.411,0.225,2.258,15.686,-12.512
1.208,-0.378,0.214,-2.136,16.724,-11.169
1.205,-0.380,0.212,-4.761,16.479,-8.179
1.233,-0.398,0.186,-4.944,17.029,-5.920
1.235,-0.390,0.172,-2.869,16.968,-5.127
1.271,-0.387,0.166,-0.244,18.433,-2.136
1.259,-0.413,0.135,3.235,19.775,2.686
1.246,-0.433,0.123,6.042,22.705,7.385
1.215,-0.418,0.104,7.629,26.367,12.268
1.198,-0.399,0.103,9.094,30.945,16.479
1.205,-0.406,0.107,12.451,35.095,18.494
1.207,-0.427,0.109,16.235,36.987,18.250
1.222,-0.456,0.099,18.982,36.011,18.250
1.226,-0.482,0.092,20.447,33.508,19.165
1.254,-0.464,0.111,22.034,30.334,20.935
1.256,-0.473,0.125,24.597,25.757,23.254
1.237,-0.468,0.138,27.405,20.996,25.574
1.244,-0.489,0.141,29.724,17.090,28.564
1.205,-0.474,0.140,31.860,12.634,30.701
1.156,-0.477,0.128,32.959,8.850,33.325
1.106,-0.475,0.089,33.386,7.446,36.804
1.049,-0.454,0.059,31.799,8.789,38.879
1.006,-0.459,0.013,28.015,11.719,38.513
0.977,-0.445,-0.035,22.766,16.479,34.485
0.954,-0.398,-0.064,17.090,23.071,27.283
0.954,-0.353,-0.095,12.695,30.334,20.935
0.953,-0.317,-0.127,10.071,37.292,15.869
0.978,-0.277,-0.129,9.705,43.457,11.658
1.001,-0.215,-0.115,11.780,47.241,8.911
1.002,-0.129,-0.083,16.602,47.607,7.629
1.009,-0.103,-0.044,23.560,43.945,7.263
1.020,-0.094,-0.018,29.785,36.316,8.301
0.990,-0.084,-0.008,32.410,24.902,8.423
0.910,-0.063,-0.019,32.043,13.000,6.592
0.833,-0.050,-0.038,29.724,5.249,2.502
0.785,-0.052,-0.067,26.733,3.601,-4.028
0.758,-0.019,-0.068,23.743,9.155,-13.916
0.770,0.010,-0.043,22.095,19.897,-23.743
0.789,0.043,-0.015,21.606,32.837,-28.503
0.831,0.056,0.001,20.935,45.593,-27.466
0.871,0.076,0.001,19.775,56.458,-21.423
0.862,0.107,-0.071,18.616,64.148,-12.207
1.000,-0.086,-0.028,17.517,73.486,-2.991
1.055,0.103,-0.035,15.686,75.806,-9.583
0.885,0.165,-0.058,16.602,66.040,-11.414
0.962,0.208,-0.029,18.188,53.650,-3.540
0.874,0.119,-0.159,20.569,38.818,3.052
0.843,0.200,-0.140,19.226,31.921,3.174
0.795,0.203,-0.176,19.287,28.259,4.272
0.766,0.255,-0.198,19.653,29.297,5.249
0.784,0.279,-0.190,21.606,33.691,8.118
0.749,0.314,-0.204,24.048,38.391,9.644
0.714,0.343,-0.193,26.184,43.213,11.108
0.714,0.355,-0.173,28.259,47.485,13.123
0.712,0.364,-0.164,30.273,49.927,14.526
0.681,0.386,-0.155,31.189,51.514,15.686

0.954,-1.433,0.481,-47.424,-108.093,11.780
0.971,-1.924,0.514,-36.804,-74.036,-56.763
1.504,-2.234,0.837,-39.001,-31.982,-124.146
1.901,-2.284,0.857,-56.702,-5.127,-155.884
2.415,-2.046,0.906,-79.041,-0.061,-151.978
2.471,-1.696,0.793,-83.496,-18.738,-140.930
2.248,-1.369,0.618,-77.026,-36.560,-129.211
1.959,-1.184,0.413,-59.692,-42.969,-115.295
1.701,-1.132,0.236,-40.283,-33.569,-100.464
1.513,-1.046,0.137,-26.001,-12.695,-88.257
1.408,-0.917,0.090,-15.625,8.911,-79.285
1.401,-0.845,0.095,-3.967,23.315,-69.153
1.440,-0.670,0.174,9.583,25.940,-64.026
1.474,-0.563,0.272,27.832,17.883,-53.406
1.443,-0.516,0.356,48.035,-0.244,-40.283
1.381,-0.573,0.420,65.186,-21.057,-24.414
1.281,-0.579,0.468,73.242,-40.833,-6.348
1.108,-0.639,0.439,73.669,-58.899,12.512
0.919,-0.632,0.429,67.200,-69.397,23.987
0.758,-0.581,0.387,56.885,-68.359,25.696
0.701,-0.545,0.353,45.654,-55.847,23.743
0.693,-0.466,0.360,34.424,-36.865,17.578
0.796,-0.386,0.378,25.635,-18.250,10.315
0.918,-0.330,0.379,20.203,-6.287,4.578
1.007,-0.291,0.356,16.968,-0.427,0.183
1.027,-0.257,0.306,15.747,2.563,-2.380
1.060,-0.200,0.293,14.343,6.775,-3.479
1.084,-0.176,0.264,14.343,10.071,-2.441
1.122,-0.160,0.244,13.428,11.353,1.526
1.135,-0.139,0.220,11.902,9.827,5.432
1.147,-0.104,0.236,10.193,6.775,6.714
1.156,-0.093,0.247,9.827,2.014,7.141
1.169,-0.105,0.240,9.644,-1.892,7.019
1.182,-0.078,0.254,8.545,-3.906,5.676
1.218,-0.075,0.258,6.714,-4.761,5.798
1.239,-0.060,0.261,4.456,-5.920,6.287
1.231,-0.054,0.263,2.869,-7.507,7.080
1.207,-0.069,0.257,2.258,-7.568,6.897
1.207,-0.107,0.262,1.648,-5.249,6.592
1.217,-0.144,0.269,0.244,-1.831,5.981
1.208,-0.185,0.261,-2.502,1.648,6.531
1.185,-0.190,0.265,-5.249,5.066,7.263
1.147,-0.221,0.232,-7.568,8.362,7.812
1.132,-0.243,0.210,-9.583,12.695,6.104
1.145,-0.256,0.195,-11.963,18.616,2.502
1.194,-0.261,0.187,-13.611,23.682,-0.977
1.254,-0.242,0.202,-14.648,26.123,-2.441
1.289,-0.225,0.208,-14.160,24.841,-1.282
1.286,-0.205,0.213,-11.719,20.630,0.977
1.263,-0.200,0.212,-7.080,16.418,3.662
1.249,-0.224,0.219,-1.526,13.550,5.859
1.242,-0.253,0.230,3.601,11.230,6.897
1.231,-0.290,0.231,7.385,8.728,7.690
1.195,-0.313,0.226,9.583,6.714,8.911
1.174,-0.314,0.229,11.047,7.141,10.315
1.133,-0.337,0.220,11.414,9.338,11.780
1.136,-0.329,0.225,10.803,13.123,11.841
1.129,-0.331,0.224,10.620,17.212,10.925
1.122,-0.315,0.213,10.986,20.752,9.888
1.133,-0.309,0.215,12.024,25.269,9.705
1.165,-0.330,0.219,13.306,28.442,10.620
1.202,-0.336,0.222,13.550,28.809,11.902
1.212,-0.330,0.212,14.099,25.574,13.062
1.220,-0.328,0.207,15.564,20.508,14.282
1.214,-0.333,0.200,18.188,15.259,14.832
1.221,-0.343,0.192,21.545,10.925,14.954
1.214,-0.351,0.178,25.513,7.629,14.648
1.190,-0.367,0.150,28.320,6.470,14.709
1.190,-0.409,0.136,29.541,7.385,16.479
1.173,-0.427,0.106,28.625,9.705,19.287
1.134,-0.395,0.077,26.306,14.221,22.949
1.134,-0.364,0.066,23.621,21.851,26.123
1.158,-0.354,0.057,22.339,28.931,28.015
1.203,-0.368,0.071,21.851,33.264,28.015
1.250,-0.386,0.079,22.522,32.288,26.611
1.260,-0.388,0.081,23.865,26.184,25.818
1.225,-0.359,0.067,25.879,17.578,25.757
1.166,-0.364,0.035,28.564,10.254,26.062
1.109,-0.401,-0.008,31.006,7.141,25.574
1.029,-0.408,-0.054,31.494,9.338,21.606
0.974,-0.371,-0.081,30.701,17.334,15.015
0.944,-0.294,-0.096,28.748,28.870,8.484
0.974,-0.236,-0.081,27.466,40.405,4.150
1.013,-0.188,-0.068,26.794,47.058,0.977
1.045,-0.126,-0.050,26.550,47.485,-1.648
1.057,-0.078,-0.032,27.771,42.480,-3.967
1.051,-0.054,-0.019,30.640,33.813,-6.775
1.034,-0.046,-0.011,33.936,23.743,-10.010
0.995,-0.030,-0.002,36.743,14.404,-13.672
0.926,-0.018,-0.002,39.368,7.446,-16.663
0.852,0.003,-0.019,40.833,4.089,-17.395
0.792,0.051,-0.038,40.161,4.456,-16.174
0.740,0.109,-0.045,37.842,7.080,-13.489
0.702,0.188,-0.021,34.851,10.559,-9.644
0.692,0.229,0.020,34.485,14.160,-5.981
0.706,0.221,0.051,36.011,16.541,-3.052
0.723,0.207,0.086,36.682,17.090,0.244
0.732,0.191,0.114,36.438,15.930,4.456
0.726,0.177,0.125,34.851,12.634,8.423
0.651,0.210,0.110,31.799,9.094,11.047
0.564,0.235,0.077,28.748,8.667,12.939
0.564,0.210,0.008,25.879,14.526,15.076
0.487,0.117,-0.055,19.714,26.062,13.916
0.477,0.204,-0.046,10.376,40.771,3.906
0.597,0.249,-0.010,4.028,55.237,-3.906
0.658,0.268,0.006,1.404,59.753,-8.240
0.759,0.307,0.033,-0.549,55.237,-7.080
0.797,0.307,0.024,-0.305,44.373,-3.235
0.778,0.312,0.004,0.366,32.410,-0.122
0.772,0.334,-0.001,1.770,22.888,2.502
0.751,0.341,-0.002,3.296,15.503,4.578
0.745,0.326,-0.026,4.517,10.132,4.883
0.665,0.354,-0.047,4.883,7.690,2.441
0.592,0.363,-0.076,5.249,9.888,-0.793
0.557,0.356,-0.099,4.822,18.799,-4.211
0.620,0.354,-0.087,2.808,32.776,-9.277
0.714,0.398,-0.049,0.000,45.044,-12.573
0.793,0.413,-0.031,-2.380,51.514,-9.827
0.847,0.439,-0.009,-3.296,51.819,-5.066

0.317,-0.914,1.524,-45.898,-38.208,-14.465
0.234,-0.418,1.613,-76.538,-26.550,-31.799
0.222,-0.641,1.358,-91.125,-19.958,-37.781
0.173,-0.312,1.368,-94.849,-6.714,-61.462
0.247,0.274,1.587,-79.346,4.761,-81.543
0.590,-0.020,1.554,-34.790,-6.348,-65.918
0.687,-0.069,1.656,5.066,-24.231,-59.692
0.685,-0.312,1.674,35.034,-49.072,-57.251
0.600,-0.326,1.787,51.941,-68.787,-61.707
0.499,-0.272,1.862,62.622,-85.266,-64.270
0.458,-0.694,1.745,69.214,-101.440,-54.932
0.428,-0.582,1.643,58.228,-109.924,-61.646
0.269,-0.605,1.398,41.992,-110.229,-60.730
0.117,-0.491,1.276,25.024,-98.450,-56.763
0.079,-0.593,1.034,12.756,-82.214,-48.767
0.039,-0.420,0.903,2.319,-56.519,-50.476
0.033,-0.264,0.848,0.122,-29.602,-47.485
0.127,-0.142,0.796,6.592,-12.939,-32.898
0.259,-0.144,0.824,20.081,-8.057,-11.230
0.289,-0.257,0.825,38.025,-16.418,9.155
0.281,-0.328,0.853,52.551,-32.288,23.682
0.101,-0.306,0.853,63.110,-45.959,34.973
0.119,-0.342,1.022,73.181,-54.016,53.040
0.135,-0.595,1.080,78.247,-66.223,64.026
-0.008,-0.590,1.115,71.777,-72.693,58.350
-0.119,-0.590,1.166,58.960,-70.984,50.720
-0.182,-0.685,1.210,42.297,-60.730,40.710
-0.171,-0.497,1.258,20.996,-45.715,29.724
-0.244,-0.375,1.237,-0.244,-28.931,28.870
-0.065,-0.341,1.237,-17.029,-9.949,32.166
-0.006,-0.288,1.148,-25.818,-5.798,32.715
-0.014,-0.147,1.128,-31.372,-3.235,29.297
0.009,-0.001,1.158,-30.396,-7.996,28.442
-0.047,-0.040,1.075,-24.109,-14.099,29.419
-0.059,0.027,1.083,-18.250,-13.550,27.954
-0.033,-0.037,1.047,-10.803,-19.104,30.762
-0.087,-0.066,1.054,-5.737,-20.569,28.076
-0.129,-0.054,1.084,-3.174,-18.494,21.912
-0.121,-0.080,1.113,-1.709,-17.822,16.418
-0.086,-0.089,1.123,-1.953,-16.968,9.888
-0.075,-0.113,1.111,-4.272,-17.212,3.723
-0.061,-0.096,1.100,-8.057,-16.907,-1.404
-0.054,-0.057,1.071,-11.230,-16.541,-3.967
-0.055,-0.046,1.029,-12.939,-13.611,-4.639
-0.039,0.020,1.015,-12.268,-8.240,-5.920
-0.012,0.004,1.003,-8.789,-3.113,-5.676
0.000,0.019,0.991,-4.639,1.099,-4.395
-0.007,0.025,0.980,0.244,5.249,-3.052
-0.005,0.019,0.974,5.554,8.118,-1.038
0.007,0.019,0.972,10.620,10.010,1.831
0.021,-0.010,0.976,15.259,10.193,5.737
0.030,-0.042,0.999,18.616,8.118,9.216
0.021,-0.087,1.012,20.813,3.845,12.451
0.026,-0.125,1.042,20.691,-1.282,14.709
0.015,-0.157,1.061,18.433,-7.080,16.113
-0.004,-0.161,1.070,14.343,-12.695,16.357
-0.030,-0.180,1.055,10.620,-16.907,16.357
-0.057,-0.177,1.052,7.812,-17.456,15.381
-0.065,-0.174,1.037,6.165,-15.015,14.099
-0.051,-0.177,1.032,4.822,-10.254,13.611
-0.043,-0.164,1.036,3.540,-4.700,13.550
-0.043,-0.148,1.042,2.808,0.427,14.771
-0.044,-0.136,1.047,4.333,5.005,17.334
-0.040,-0.133,1.056,7.507,9.216,20.691
-0.030,-0.154,1.068,11.475,12.512,24.048
-0.029,-0.177,1.082,14.954,14.099,26.611
-0.028,-0.195,1.096,17.395,14.771,28.076
-0.033,-0.223,1.109,18.127,14.954,27.283
-0.043,-0.251,1.111,18.127,15.076,24.658
-0.064,-0.256,1.115,16.663,15.991,20.142
-0.069,-0.261,1.135,14.771,19.714,15.747
-0.072,-0.273,1.154,13.855,25.513,12.756
-0.063,-0.279,1.166,13.184,33.508,10.925
-0.046,-0.269,1.177,11.780,42.236,8.728
-0.015,-0.261,1.161,9.705,51.392,5.737
0.031,-0.260,1.164,6.348,61.096,3.479
0.098,-0.256,1.184,2.197,69.580,2.441
0.171,-0.253,1.206,-1.770,73.669,1.465
0.216,-0.260,1.211,-5.066,72.998,0.183
0.232,-0.282,1.216,-7.324,69.397,-0.549
0.229,-0.296,1.218,-9.338,65.369,0.000
0.217,-0.314,1.218,-10.620,62.378,1.404
0.173,-0.307,1.190,-12.390,61.157,0.366
0.128,-0.297,1.149,-13.855,63.049,-2.686
0.113,-0.292,1.110,-15.686,69.824,-7.019
0.112,-0.283,1.071,-17.822,80.322,-13.733
0.115,-0.256,1.030,-19.104,93.445,-21.484
0.156,-0.233,1.002,-18.799,109.192,-28.870
0.231,-0.216,1.002,-17.334,125.549,-33.875
0.323,-0.198,1.005,-15.991,137.939,-34.729
0.424,-0.209,1.005,-14.771,143.677,-33.142
0.485,-0.198,0.995,-13.245,141.846,-32.043
0.512,-0.142,0.978,-11.353,134.521,-32.288
0.522,-0.102,0.964,-8.972,124.695,-32.227
0.502,-0.069,0.933,-6.531,113.403,-31.677
0.480,-0.012,0.911,-3.235,104.004,-31.372
0.449,0.032,0.896,1.160,97.656,-30.151
0.395,0.045,0.879,6.714,93.689,-27.832
0.342,0.045,0.851,10.254,93.262,-25.024
0.309,0.025,0.821,12.451,96.497,-23.193
0.276,0.030,0.782,13.000,103.760,-24.780
0.289,0.075,0.749,12.085,114.563,-28.503
0.352,0.101,0.718,9.766,125.366,-31.738
0.411,0.168,0.698,6.775,133.728,-35.889
0.485,0.199,0.711,4.639,137.573,-38.818
0.533,0.238,0.717,4.150,133.545,-39.185
0.544,0.253,0.702,4.456,123.840,-35.889
0.548,0.229,0.678,5.310,112.549,-30.457
0.498,0.220,0.633,5.859,102.478,-26.428
0.439,0.245,0.609,7.446,97.351,-24.780
0.436,0.245,0.606,10.742,97.473,-23.926
0.482,0.232,0.608,13.367,99.060,-23.132
0.527,0.232,0.615,14.038,98.083,-21.851
0.551,0.234,0.604,12.756,94.116,-19.836
0.559,0.223,0.590,10.071,89.294,-17.578
0.595,0.228,0.583,6.592,85.327,-16.113
0.600,0.228,0.582,3.723,80.933,-15.564
0.596,0.222,0.578,1.892,76.477,-16.113
0.587,0.242,0.566,1.099,73.486,-17.334

2.218,0.525,0.023,-36.499,82.397,87.158
2.240,0.521,-0.048,-42.664,33.508,103.821
2.135,0.500,-0.150,-42.053,-12.329,115.967
1.806,0.501,-0.265,-35.583,-41.931,118.408
1.398,0.446,-0.379,-24.902,-43.884,108.215
0.992,0.354,-0.474,-13.306,-13.245,86.548
0.643,0.237,-0.546,-2.502,46.936,54.321
0.551,0.065,-0.527,8.667,128.784,17.944
0.672,-0.098,-0.417,18.738,211.426,-16.541
1.021,-0.382,-0.258,24.841,275.879,-44.617
1.673,-0.701,-0.062,14.648,317.383,-45.776
2.118,-0.906,0.017,-17.517,311.401,-8.728
2.599,-0.981,0.306,-51.086,248.352,38.391
2.014,-1.300,-0.364,-77.087,147.827,45.715
2.167,-0.786,-0.221,-107.300,91.248,30.640
1.654,-1.004,-0.668,-103.882,61.096,45.105
1.472,-0.714,-0.792,-93.323,60.303,33.630
1.206,-0.900,-0.892,-63.843,100.952,35.522
1.205,-0.813,-0.789,-36.804,152.710,15.320
1.381,-0.811,-0.619,-9.766,200.562,0.549
1.764,-0.927,-0.495,12.634,217.163,-6.836
2.018,-1.077,-0.334,27.100,186.279,-5.066
2.038,-0.681,-0.157,35.583,114.380,-6.531
1.906,-0.761,-0.129,48.645,24.902,14.221
1.705,-1.037,-0.237,56.702,-63.782,29.480
1.383,-0.978,-0.289,51.453,-127.197,16.541
1.041,-0.894,-0.258,40.466,-159.363,2.563
0.758,-0.760,-0.425,25.757,-165.283,3.662
0.555,-0.937,-0.428,13.794,-134.521,17.944
0.569,-0.894,-0.443,-0.732,-88.684,13.489
0.561,-0.675,-0.350,-12.695,-35.095,2.441
0.672,-0.594,-0.305,-18.616,8.484,-5.737
0.823,-0.478,-0.197,-18.799,36.316,-13.489
0.950,-0.378,-0.191,-14.893,44.434,-15.930
1.011,-0.321,-0.196,-7.935,36.194,-10.864
1.099,-0.379,-0.203,1.953,21.423,-3.357
1.107,-0.501,-0.206,8.362,0.488,-4.761
1.225,-0.454,-0.109,11.108,-24.109,-6.348
1.307,-0.647,-0.157,13.916,-55.176,-3.540
1.016,-0.384,-0.383,11.658,-86.731,-9.827
1.030,-0.423,-0.177,8.850,-98.145,-7.874
1.012,-0.345,-0.287,9.399,-109.314,-11.169
0.929,-0.440,-0.351,10.254,-108.154,-7.141
0.959,-0.351,-0.257,7.568,-93.506,-10.925
0.936,-0.304,-0.311,8.301,-80.688,-15.564
0.927,-0.287,-0.259,9.338,-63.782,-16.479
0.946,-0.326,-0.310,11.780,-44.861,-18.494
1.091,-0.276,-0.209,12.146,-23.437,-22.827
1.325,-0.154,-0.195,12.634,-15.076,-18.372
1.357,-0.335,-0.132,12.390,-10.193,-7.629
1.419,-0.136,-0.080,7.507,-18.127,-9.949
1.416,-0.242,-0.136,8.362,-34.485,-3.113
1.408,-0.130,-0.125,7.568,-48.706,-2.563
1.326,-0.216,-0.139,9.216,-60.852,-0.610
1.350,-0.236,-0.125,9.033,-68.665,0.549
1.305,-0.298,-0.192,8.362,-72.693,5.127
1.323,-0.224,-0.135,4.822,-67.688,8.484
1.367,-0.274,-0.157,3.113,-64.331,15.320
1.341,-0.269,-0.169,1.038,-59.204,19.775
1.318,-0.248,-0.188,0.000,-51.453,21.301
1.349,-0.233,-0.201,1.343,-42.297,21.545
1.359,-0.164,-0.213,3.418,-32.837,21.240
1.384,-0.284,-0.216,5.920,-25.879,25.513
1.392,-0.225,-0.198,6.836,-21.362,24.963
1.392,-0.231,-0.176,8.240,-18.433,27.100
1.392,-0.219,-0.158,10.803,-20.508,29.236
1.362,-0.196,-0.146,13.977,-24.841,31.250
1.331,-0.185,-0.145,18.555,-30.884,33.691
1.287,-0.196,-0.143,22.949,-36.316,35.400
1.245,-0.211,-0.137,26.672,-40.100,36.316
1.221,-0.211,-0.130,28.687,-42.297,35.400
1.201,-0.216,-0.120,29.846,-42.786,34.668
1.194,-0.247,-0.103,30.945,-42.297,34.729
1.179,-0.280,-0.092,31.860,-41.931,34.241
1.183,-0.303,-0.065,30.640,-41.504,33.997
1.189,-0.337,-0.054,28.748,-42.358,33.936
1.162,-0.344,-0.070,25.879,-43.762,33.325
1.141,-0.304,-0.089,22.522,-43.945,31.311
1.105,-0.253,-0.119,18.860,-42.053,28.625
1.073,-0.208,-0.136,15.686,-37.292,26.428
1.052,-0.165,-0.161,12.939,-30.640,25.208
1.042,-0.117,-0.154,11.963,-22.827,23.682
1.028,-0.085,-0.143,13.977,-14.648,20.996
1.035,-0.077,-0.120,18.066,-7.507,17.822
1.055,-0.107,-0.099,22.522,-2.014,14.526
1.099,-0.143,-0.090,25.452,0.977,12.268
1.104,-0.161,-0.085,25.696,-0.244,11.414
1.060,-0.194,-0.106,24.658,-4.028,10.681
1.021,-0.213,-0.139,21.118,-6.348,8.972
0.969,-0.202,-0.168,15.930,-5.859,5.615
0.902,-0.169,-0.184,10.010,-2.197,0.549
0.874,-0.123,-0.185,5.066,5.249,-4.761
0.887,-0.079,-0.177,2.991,14.771,-11.475
0.907,-0.026,-0.153,4.333,23.254,-18.433
0.932,0.014,-0.123,8.789,28.809,-24.597
0.964,0.037,-0.106,14.587,31.128,-29.114
0.968,0.071,-0.093,20.996,31.006,-32.166
0.945,0.107,-0.086,25.818,29.541,-32.593
0.909,0.121,-0.096,28.992,27.405,-30.579
0.896,0.136,-0.097,30.029,25.757,-27.466
0.874,0.160,-0.086,28.809,23.682,-25.024
0.840,0.191,-0.063,27.710,21.179,-23.682
0.823,0.196,-0.044,27.893,18.433,-23.132
0.814,0.207,-0.014,28.381,16.357,-23.499
0.822,0.223,0.026,29.724,14.648,-24.414
0.830,0.220,0.060,32.776,12.573,-25.269
0.824,0.203,0.078,35.645,10.559,-25.818
0.811,0.180,0.084,37.109,8.606,-24.597
0.772,0.164,0.077,36.194,7.996,-21.606
0.732,0.157,0.057,31.189,9.277,-17.090
0.711,0.156,0.030,23.193,12.573,-12.451
0.681,0.179,0.003,13.550,16.663,-9.338
0.667,0.201,-0.021,4.761,20.752,-7.385
0.660,0.306,-0.051,-2.136,25.269,-6.653
0.626,0.221,-0.079,-5.554,30.579,-5.859
0.639,0.273,-0.102,-6.775,37.292,-10.742
0.649,0.310,-0.060,-3.967,45.532,-18.127
0.757,0.322,-0.022,1.953,49.316,-23.560
0.812,0.315,0.002,8.240,46.509,-26.794

1.598,1.272,0.266,-23.621,-46.082,75.134
1.759,1.242,0.347,-9.888,-53.284,92.468
1.846,1.139,0.404,-0.366,-74.158,106.445
1.927,1.062,0.498,-0.732,-103.577,117.310
1.893,1.001,0.490,-10.376,-141.418,126.831
1.693,0.966,0.395,-24.963,-180.054,132.141
1.449,0.961,0.352,-41.321,-204.590,127.686
1.253,0.905,0.311,-55.908,-209.534,117.554
1.132,0.881,0.327,-70.496,-197.266,106.812
1.066,0.883,0.396,-81.543,-174.805,96.924
1.026,0.905,0.404,-85.754,-151.489,91.553
0.941,0.969,0.439,-82.947,-131.592,90.576
0.867,0.921,0.435,-71.167,-117.004,92.407
0.844,0.821,0.441,-54.077,-106.995,91.858
0.940,0.724,0.537,-36.499,-104.187,86.182
1.059,0.561,0.632,-18.982,-116.150,75.562
1.078,0.411,0.677,-3.357,-145.081,57.068
1.057,0.167,0.787,8.850,-178.467,36.926
0.913,-0.078,0.829,14.343,-199.280,26.978
0.721,-0.300,0.861,7.446,-195.862,26.917
0.457,-0.537,0.761,-11.230,-161.194,33.447
0.340,-0.671,0.950,-38.940,-95.215,38.513
0.574,-0.860,0.887,-61.951,-31.189,37.781
0.907,-0.592,1.166,-78.430,15.503,29.297
1.071,-0.880,1.192,-84.351,25.879,22.339
1.120,-0.709,1.087,-79.468,-10.803,6.226
0.982,-0.572,1.093,-64.331,-61.829,-3.967
0.781,-0.502,1.084,-38.940,-116.028,-8.972
0.621,-0.526,0.998,-3.845,-168.640,-6.348
0.443,-0.762,0.910,28.015,-203.186,-3.540
0.348,-1.059,1.010,47.058,-215.210,-5.676
0.223,-1.309,1.060,45.349,-208.679,-7.141
0.088,-1.436,1.039,23.926,-182.495,-5.981
0.116,-1.347,1.054,-2.686,-138.977,-17.822
0.099,-0.859,1.234,-20.081,-88.562,-44.189
0.386,-0.705,1.342,-19.470,-53.528,-48.523
0.856,-0.890,1.287,-7.141,-45.471,-27.954
1.083,-0.725,1.310,-1.587,-55.725,-21.240
0.899,-0.804,1.180,1.160,-79.346,-16.602
0.837,-0.469,1.410,4.578,-95.642,-5.188
0.518,-0.763,1.163,11.353,-103.821,16.479
0.538,-0.475,1.305,14.771,-101.257,40.283
0.577,-0.366,1.234,16.663,-101.990,47.302
0.048,-0.923,0.750,16.357,-111.328,48.035
0.108,0.065,1.363,9.399,-101.807,46.875
0.231,-0.360,0.880,31.799,-114.136,65.857
0.030,-0.170,0.991,35.583,-111.389,53.589
-0.124,-0.214,0.919,44.983,-107.971,43.640
-0.117,-0.223,0.882,54.199,-93.140,28.442
-0.359,0.064,1.100,60.547,-70.129,9.216
0.023,-0.150,1.183,66.589,-56.824,8.301
0.163,-0.382,1.142,69.763,-53.284,12.451
0.116,-0.235,1.259,56.702,-50.903,-0.122
0.107,-0.216,1.233,46.021,-50.171,-0.549
0.121,-0.202,1.206,38.757,-44.373,2.991
0.088,-0.145,1.206,34.363,-34.241,4.639
0.061,-0.107,1.255,34.363,-24.231,8.057
0.106,-0.128,1.268,38.574,-18.433,14.465
0.040,-0.310,1.179,41.565,-12.634,17.456
-0.081,-0.241,1.172,39.307,-0.671,9.338
-0.068,-0.314,1.101,40.466,16.724,4.944
0.005,-0.354,1.072,42.480,39.734,-1.648
0.116,-0.311,1.138,42.908,63.660,-7.935
0.281,-0.380,1.174,43.945,78.369,-6.897
0.401,-0.437,1.234,41.992,83.618,-3.540
0.457,-0.500,1.271,35.034,79.956,0.732
0.470,-0.515,1.272,23.926,70.801,3.906
0.423,-0.492,1.240,11.108,60.669,4.150
0.346,-0.437,1.199,0.244,54.932,2.136
0.279,-0.387,1.155,-6.531,56.274,-0.671
0.276,-0.381,1.127,-9.277,64.026,-2.625
0.280,-0.381,1.108,-9.949,74.524,-3.479
0.294,-0.375,1.093,-9.888,85.205,-3.418
0.295,-0.363,1.059,-8.972,95.520,-1.953
0.294,-0.349,1.020,-7.812,107.666,0.732
0.306,-0.347,0.986,-5.676,122.375,2.686
0.364,-0.376,0.968,-3.113,140.076,3.601
0.426,-0.386,0.978,-2.930,157.837,4.272
0.484,-0.378,0.988,-4.211,173.279,4.944
0.590,-0.330,1.038,-6.226,185.364,8.240
0.681,-0.342,1.040,-9.338,190.674,15.137
0.701,-0.344,1.020,-13.062,188.232,21.606
0.754,-0.314,1.043,-15.686,183.228,27.649
0.771,-0.319,0.996,-16.846,176.575,28.748
0.762,-0.323,0.932,-16.663,170.532,25.085
0.732,-0.332,0.873,-17.395,170.166,18.677
0.715,-0.317,0.817,-19.409,174.561,11.108
0.750,-0.308,0.779,-20.630,182.190,4.089
0.803,-0.276,0.748,-21.362,189.026,-3.296
0.856,-0.256,0.725,-21.484,192.566,-9.888
0.888,-0.232,0.692,-21.484,192.078,-15.747
0.905,-0.178,0.645,-22.156,189.392,-18.677
0.907,-0.120,0.586,-23.560,185.669,-19.348
0.910,-0.083,0.532,-24.353,181.885,-19.226
0.914,-0.028,0.500,-24.841,178.528,-19.165
0.921,0.035,0.483,-24.658,175.293,-18.799
0.931,0.079,0.453,-22.949,169.556,-18.555
0.912,0.140,0.429,-19.348,161.255,-20.020
0.883,0.173,0.395,-14.771,152.283,-21.484
0.844,0.224,0.356,-10.864,143.311,-22.278
0.802,0.284,0.321,-7.324,135.498,-22.095
0.762,0.321,0.290,-4.395,129.150,-20.508
0.744,0.353,0.279,-2.258,124.695,-17.639
0.747,0.385,0.276,-0.854,120.178,-14.221
0.759,0.409,0.286,-0.244,113.770,-11.292
0.786,0.401,0.309,1.038,104.919,-8.789
0.806,0.373,0.310,3.113,94.360,-7.263
0.794,0.355,0.289,4.944,83.557,-5.493
0.745,0.337,0.257,6.409,74.463,-4.150
0.696,0.318,0.218,6.714,69.275,-3.052
0.645,0.325,0.166,5.005,69.153,-2.808
0.614,0.355,0.129,2.075,74.341,-3.540
0.620,0.405,0.108,-1.282,83.069,-4.211
0.667,0.449,0.111,-4.395,89.661,-3.906
0.709,0.468,0.102,-5.371,90.698,-4.028
0.754,0.486,0.101,-3.845,87.097,-5.859
0.832,0.488,0.125,0.916,80.872,-8.972
0.851,0.487,0.132,7.446,70.862,-10.193
0.899,0.358,0.112,13.428,59.204,-8.118

2.321,0.228,0.239,-53.528,-12.512,50.964
2.292,0.209,0.305,-46.387,-25.146,54.321
2.148,0.102,0.340,-32.043,-31.250,53.894
1.980,-0.067,0.384,-15.686,-27.100,46.265
1.859,-0.307,0.456,-3.113,-12.024,34.058
1.705,-0.584,0.481,-1.465,9.460,24.963
1.596,-0.767,0.534,-12.085,33.325,14.954
1.604,-0.967,0.574,-32.104,56.274,7.996
1.771,-0.963,0.600,-59.204,69.031,4.944
1.786,-0.849,0.602,-82.336,60.303,7.935
1.742,-0.769,0.546,-91.125,32.349,12.756
1.685,-0.671,0.534,-85.571,-1.038,16.479
1.574,-0.639,0.545,-67.017,-34.302,17.944
1.418,-0.744,0.494,-41.992,-62.012,19.165
1.260,-0.870,0.421,-21.484,-74.280,15.015
1.178,-1.038,0.373,-9.705,-67.017,5.676
1.129,-1.130,0.329,-6.897,-44.434,-6.958
1.145,-1.136,0.328,-10.315,-12.817,-19.348
1.189,-1.101,0.329,-14.893,19.836,-28.015
1.273,-1.050,0.348,-16.907,48.279,-33.020
1.412,-1.035,0.400,-14.221,66.772,-33.691
1.610,-1.048,0.493,-10.254,70.129,-27.161
1.725,-1.005,0.559,-6.775,53.162,-11.047
1.659,-0.922,0.556,-2.380,19.409,8.728
1.493,-0.867,0.518,6.470,-18.005,25.330
1.262,-0.828,0.465,16.846,-48.767,35.583
1.021,-0.832,0.417,26.855,-65.491,40.833
0.826,-0.835,0.372,34.241,-66.040,40.222
0.688,-0.843,0.356,37.842,-53.162,31.982
0.634,-0.864,0.371,37.048,-31.006,19.104
0.704,-0.860,0.426,31.189,-6.287,4.150
0.890,-0.867,0.501,21.790,13.062,-7.751
1.102,-0.842,0.558,9.399,20.996,-14.648
1.238,-0.776,0.585,-3.296,15.625,-17.090
1.297,-0.702,0.566,-12.024,3.967,-17.090
1.324,-0.650,0.512,-16.907,-6.287,-15.137
1.310,-0.621,0.456,-18.127,-12.695,-12.146
1.273,-0.613,0.393,-16.663,-14.587,-10.559
1.237,-0.614,0.331,-14.282,-10.620,-11.108
1.218,-0.635,0.285,-11.963,-3.296,-12.878
1.224,-0.657,0.254,-9.460,4.822,-15.869
1.238,-0.668,0.246,-6.958,12.329,-19.592
1.222,-0.664,0.242,-3.357,17.517,-22.949
1.199,-0.668,0.250,1.770,21.423,-25.208
1.219,-0.712,0.263,7.935,24.292,-26.306
1.216,-0.763,0.282,12.817,23.560,-27.283
1.212,-0.845,0.294,15.381,19.226,-27.832
1.163,-0.882,0.283,13.733,14.343,-27.100
1.099,-0.871,0.250,9.705,11.108,-24.963
1.020,-0.789,0.213,6.714,11.047,-24.597
1.033,-0.724,0.229,6.165,13.672,-25.940
1.072,-0.712,0.255,9.766,12.878,-28.931
1.114,-0.711,0.290,15.991,7.019,-33.264
1.119,-0.713,0.319,22.949,-2.075,-36.255
1.103,-0.735,0.341,29.480,-13.000,-36.194
1.052,-0.777,0.340,34.485,-23.926,-34.912
0.971,-0.833,0.312,35.706,-31.311,-34.607
0.873,-0.882,0.277,33.386,-31.982,-37.170
0.835,-0.925,0.256,27.710,-23.315,-42.542
0.845,-0.921,0.240,19.165,-8.728,-49.194
0.889,-0.867,0.233,10.071,6.714,-55.176
0.943,-0.776,0.236,3.235,18.799,-59.570
1.016,-0.705,0.266,0.122,25.085,-62.012
1.102,-0.662,0.318,1.709,24.414,-62.500
1.151,-0.621,0.339,5.554,16.174,-61.829
1.166,-0.601,0.359,10.193,3.906,-59.937
1.191,-0.630,0.354,15.259,-9.033,-57.495
1.167,-0.647,0.321,17.456,-21.484,-55.237
1.148,-0.674,0.304,17.212,-30.212,-52.490
1.103,-0.696,0.254,15.930,-33.752,-53.406
1.077,-0.692,0.225,12.878,-31.372,-55.786
1.068,-0.697,0.210,8.911,-21.851,-58.044
1.091,-0.672,0.228,4.517,-6.226,-61.035
1.218,-0.677,0.269,1.892,12.817,-64.087
1.348,-0.636,0.307,-1.160,28.503,-67.932
1.440,-0.561,0.341,-5.249,35.522,-67.566
1.524,-0.502,0.357,-8.362,33.813,-61.829
1.567,-0.475,0.358,-8.972,25.513,-54.993
1.570,-0.447,0.357,-7.751,14.343,-48.218
1.554,-0.439,0.333,-5.127,4.395,-41.199
1.547,-0.451,0.305,-2.563,-2.319,-34.241
1.534,-0.458,0.265,-1.831,-6.165,-28.076
1.517,-0.463,0.224,-1.953,-7.874,-23.376
1.478,-0.425,0.189,-2.930,-6.287,-19.287
1.441,-0.361,0.164,-3.296,-1.282,-16.235
1.439,-0.326,0.147,-2.747,6.897,-13.245
1.454,-0.301,0.144,-2.441,14.954,-10.315
1.464,-0.251,0.141,-2.197,19.470,-6.226
1.487,-0.204,0.149,-0.916,20.325,-1.404
1.497,-0.181,0.141,1.648,17.029,4.211
1.501,-0.157,0.132,5.066,10.315,10.986
1.458,-0.153,0.098,8.911,0.916,18.250
1.369,-0.158,0.059,12.451,-7.568,24.170
1.284,-0.187,0.017,15.320,-11.719,28.564
1.155,-0.184,-0.031,16.174,-10.620,28.137
1.080,-0.190,-0.044,16.235,-1.648,27.588
1.078,-0.181,-0.033,15.259,12.817,26.550
1.083,-0.107,0.031,12.817,26.306,27.039
1.376,-0.153,0.057,12.939,28.259,30.579
1.006,0.014,0.031,11.780,18.738,29.968
1.089,-0.007,-0.014,11.597,18.982,36.011
0.998,0.028,0.017,18.555,13.489,37.048
0.940,0.056,0.002,22.644,6.409,36.438
0.906,0.039,0.009,25.818,-0.427,39.612
0.862,0.049,0.001,26.978,-5.005,43.091
0.781,0.066,-0.001,26.794,-8.423,45.837
0.673,0.085,-0.031,25.757,-7.996,48.340
0.619,0.073,-0.022,24.963,-2.808,49.072
0.678,0.101,0.020,24.414,3.845,45.593
0.617,0.085,-0.008,22.827,6.592,43.274
0.666,0.114,0.030,19.714,8.057,43.579
0.615,0.135,0.004,17.517,5.493,45.349
0.613,0.163,0.024,16.357,1.709,50.903
0.561,0.180,-0.004,17.029,-3.845,55.176
0.515,0.182,-0.009,19.226,-8.728,57.922
0.468,0.175,-0.024,22.827,-12.451,58.716
0.415,0.150,-0.026,26.245,-15.259,58.838
0.406,0.111,-0.023,27.710,-17.029,58.655
0.405,0.064,-0.028,27.527,-18.860,57.922

1.865,-0.513,0.402,-62.195,6.287,-29.297
1.910,-0.686,0.469,-34.546,-25.940,-23.193
1.882,-0.957,0.556,-7.202,-62.927,-16.296
1.879,-1.253,0.615,10.254,-92.224,-8.545
1.796,-1.430,0.613,11.780,-107.117,-3.235
1.618,-1.485,0.552,1.831,-101.807,-5.371
1.464,-1.483,0.468,-10.559,-72.815,-16.296
1.435,-1.449,0.437,-21.606,-24.780,-31.494
1.593,-1.387,0.489,-32.043,27.527,-42.175
1.786,-1.319,0.501,-43.518,67.139,-40.588
1.847,-1.163,0.492,-51.453,84.229,-29.846
1.848,-1.063,0.480,-51.758,82.520,-16.907
1.818,-1.004,0.494,-44.006,68.298,-2.625
1.762,-0.970,0.501,-32.410,44.556,14.099
1.620,-0.967,0.483,-19.531,14.893,31.677
1.418,-1.000,0.434,-5.493,-13.489,45.837
1.204,-1.044,0.384,8.545,-33.691,53.162
1.028,-1.081,0.361,20.630,-41.809,52.795
0.950,-1.130,0.375,29.602,-38.574,46.997
0.967,-1.149,0.409,34.424,-29.175,39.124
1.027,-1.136,0.450,34.546,-20.447,31.921
1.072,-1.083,0.475,31.860,-16.357,27.039
1.103,-1.045,0.504,28.442,-16.968,23.743
1.159,-1.018,0.549,26.245,-19.043,21.667
1.222,-1.012,0.612,25.024,-21.667,21.301
1.255,-1.028,0.668,25.513,-25.696,22.583
1.245,-1.064,0.714,26.611,-29.297,23.926
1.177,-1.115,0.720,25.574,-30.029,24.597
1.069,-1.162,0.680,20.752,-25.757,23.376
0.961,-1.188,0.617,12.146,-14.526,19.592
0.872,-1.187,0.533,0.977,2.441,13.123
0.821,-1.151,0.457,-10.132,23.132,4.517
0.783,-1.073,0.371,-19.226,43.335,-3.906
0.764,-0.986,0.291,-23.926,59.998,-11.780
0.799,-0.897,0.234,-23.010,69.946,-17.456
0.836,-0.786,0.219,-17.273,69.580,-20.142
0.874,-0.693,0.210,-7.629,57.556,-19.714
0.875,-0.614,0.220,5.493,36.011,-16.968
0.859,-0.589,0.231,20.020,10.681,-13.123
0.830,-0.577,0.230,33.569,-14.404,-10.010
0.781,-0.575,0.232,44.983,-36.194,-9.155
0.735,-0.593,0.247,54.138,-51.270,-9.583
0.687,-0.611,0.267,59.937,-58.289,-12.817
0.668,-0.644,0.297,63.232,-57.129,-18.677
0.721,-0.694,0.346,63.293,-48.950,-25.513
0.815,-0.709,0.399,58.655,-38.452,-30.823
0.909,-0.696,0.413,51.514,-29.785,-34.546
0.998,-0.657,0.427,43.823,-23.804,-36.804
1.091,-0.616,0.438,38.452,-20.813,-37.537
1.180,-0.583,0.452,35.706,-20.813,-36.133
1.256,-0.563,0.456,35.034,-23.499,-32.471
1.307,-0.551,0.466,35.767,-28.381,-26.184
1.325,-0.542,0.444,37.598,-35.095,-19.226
1.303,-0.553,0.421,39.307,-41.199,-12.512
1.255,-0.569,0.376,41.138,-44.678,-7.751
1.163,-0.588,0.331,42.175,-44.067,-5.188
1.099,-0.601,0.304,41.626,-37.537,-4.761
1.047,-0.637,0.277,40.527,-26.855,-5.615
1.021,-0.642,0.259,37.903,-13.733,-8.301
0.995,-0.650,0.235,34.790,-1.343,-11.414
1.081,-0.610,0.297,30.884,9.766,-13.611
1.158,-0.612,0.296,28.748,12.085,-12.207
1.121,-0.561,0.328,26.367,7.874,-8.972
1.108,-0.578,0.247,25.696,0.427,-6.592
1.030,-0.531,0.261,26.001,-5.432,-7.751
0.987,-0.509,0.230,25.879,-7.874,-7.690
0.947,-0.504,0.234,26.672,-9.216,-4.883
0.997,-0.502,0.260,26.794,-5.493,-5.127
0.991,-0.539,0.243,26.978,-4.272,-6.287
0.993,-0.536,0.234,23.926,-1.404,-9.338
1.000,-0.495,0.257,20.813,3.052,-13.062
1.060,-0.468,0.291,18.066,7.446,-14.160
1.125,-0.459,0.305,16.174,8.545,-12.878
1.163,-0.425,0.338,13.855,7.996,-11.292
1.188,-0.400,0.366,12.634,4.883,-8.484
1.205,-0.394,0.379,11.780,0.916,-4.883
1.205,-0.393,0.385,9.827,-1.892,-2.197
1.190,-0.395,0.375,7.080,-3.235,-0.732
1.164,-0.391,0.358,3.479,-2.747,-0.854
1.154,-0.399,0.335,-0.793,-0.305,-1.953
1.171,-0.406,0.314,-5.249,4.211,-3.174
1.193,-0.399,0.301,-10.010,9.277,-3.662
1.231,-0.386,0.285,-13.550,12.756,-3.418
1.266,-0.378,0.274,-16.357,14.832,-3.174
1.298,-0.370,0.263,-18.982,15.137,-1.953
1.308,-0.349,0.243,-21.118,13.916,-0.549
1.303,-0.330,0.222,-22.522,11.963,0.488
1.287,-0.319,0.194,-22.705,10.254,1.038
1.255,-0.298,0.165,-22.583,10.071,1.404
1.223,-0.277,0.148,-21.790,11.780,1.526
1.197,-0.255,0.135,-20.142,15.198,1.587
1.197,-0.229,0.136,-17.883,19.104,1.953
1.214,-0.206,0.143,-15.137,21.545,3.418
1.209,-0.179,0.138,-12.146,20.203,6.104
1.191,-0.147,0.139,-9.216,16.785,10.681
1.156,-0.134,0.130,-5.188,12.756,16.052
1.095,-0.119,0.125,-1.404,9.338,21.729
1.021,-0.105,0.123,1.953,8.179,27.893
0.944,-0.093,0.124,5.127,9.460,33.508
0.873,-0.092,0.124,8.057,12.939,37.720
0.814,-0.096,0.128,9.399,18.127,40.771
0.770,-0.104,0.131,10.132,23.010,42.603
0.743,-0.112,0.134,10.071,26.733,44.250
0.710,-0.115,0.125,9.033,27.893,46.143
0.665,-0.114,0.113,7.629,26.917,47.852
0.618,-0.105,0.100,6.592,25.391,48.828
0.580,-0.090,0.082,5.920,23.437,49.255
0.542,-0.086,0.060,6.470,21.179,49.133
0.515,-0.086,0.051,7.507,20.142,48.645
0.498,-0.083,0.044,8.728,19.409,47.607
0.491,-0.090,0.035,9.521,19.287,47.241
0.473,-0.083,0.034,9.644,20.020,47.302
0.452,-0.077,0.028,9.766,22.156,47.668
0.463,-0.075,0.030,10.376,25.208,48.706
0.486,-0.065,0.045,10.559,27.283,48.889
0.484,-0.056,0.046,10.925,27.771,48.035
0.471,-0.047,0.046,11.658,27.283,46.204
0.455,-0.050,0.051,12.634,27.039,44.067
0.453,-0.059,0.055,12.695,28.259,42.725

1.564,-0.778,0.572,-29.724,22.217,12.512
1.555,-0.791,0.585,-40.222,-3.662,23.682
1.446,-0.798,0.551,-43.701,-31.921,32.166
1.280,-0.830,0.508,-40.344,-53.711,32.837
1.096,-0.898,0.479,-32.043,-63.538,26.123
0.953,-1.011,0.463,-21.362,-61.401,15.442
0.852,-1.159,0.470,-11.841,-50.293,3.052
0.829,-1.306,0.514,-7.202,-33.203,-9.094
0.884,-1.452,0.574,-5.249,-16.296,-23.315
0.968,-1.562,0.594,-5.737,-3.723,-38.635
1.021,-1.572,0.630,-8.850,4.395,-52.979
1.084,-1.593,0.641,-11.719,8.667,-62.683
1.150,-1.635,0.605,-15.503,10.559,-66.772
1.159,-1.596,0.536,-24.170,10.254,-64.697
1.160,-1.498,0.460,-34.424,8.667,-58.105
1.169,-1.356,0.409,-41.016,6.592,-49.927
1.189,-1.173,0.402,-41.809,2.136,-40.833
1.200,-1.063,0.423,-35.706,-6.653,-29.663
1.197,-1.031,0.504,-23.926,-17.639,-16.663
1.174,-1.027,0.609,-9.644,-28.870,-4.822
1.110,-1.037,0.701,3.845,-39.185,2.869
1.055,-1.082,0.765,15.076,-45.898,6.470
1.033,-1.161,0.822,21.545,-48.279,5.066
1.067,-1.292,0.910,23.987,-45.654,-0.916
1.141,-1.414,0.973,22.644,-37.903,-8.179
1.248,-1.491,1.008,17.517,-25.757,-12.207
1.322,-1.539,0.990,7.874,-12.573,-10.254
1.341,-1.521,0.854,-7.629,-1.221,-4.517
1.288,-1.413,0.699,-27.771,10.742,1.404
1.196,-1.242,0.549,-46.387,25.330,6.042
1.153,-1.084,0.430,-56.763,41.687,8.362
1.125,-0.958,0.344,-57.312,56.152,7.507
1.127,-0.830,0.307,-49.561,65.308,5.920
1.163,-0.705,0.325,-34.363,67.383,6.531
1.242,-0.630,0.394,-13.489,61.707,8.789
1.331,-0.625,0.468,8.789,46.631,10.437
1.385,-0.676,0.531,27.100,22.949,10.681
1.383,-0.770,0.566,38.818,-3.967,10.559
1.327,-0.823,0.577,41.992,-27.100,11.536
1.257,-0.862,0.577,37.720,-41.321,14.954
1.170,-0.873,0.555,28.870,-45.776,17.700
1.091,-0.845,0.544,18.982,-40.161,16.113
1.060,-0.819,0.547,10.559,-26.184,11.292
1.058,-0.793,0.534,4.639,-8.789,5.005
1.068,-0.769,0.513,0.305,8.606,-1.038
1.087,-0.748,0.488,-3.540,23.987,-5.310
1.106,-0.739,0.452,-7.446,34.180,-7.629
1.111,-0.716,0.405,-10.925,37.903,-9.521
1.096,-0.666,0.364,-13.733,36.133,-11.108
1.084,-0.618,0.337,-15.259,30.396,-11.963
1.081,-0.600,0.324,-14.282,21.667,-12.695
1.080,-0.593,0.314,-11.108,11.597,-14.587
1.068,-0.604,0.302,-6.226,1.526,-16.968
1.049,-0.634,0.282,-1.709,-6.348,-19.226
1.025,-0.661,0.261,0.610,-9.521,-20.630
0.983,-0.686,0.227,0.122,-7.812,-21.973
0.935,-0.703,0.179,-2.563,-0.305,-24.048
0.904,-0.674,0.158,-7.263,12.207,-26.794
0.902,-0.603,0.167,-11.780,25.879,-29.480
0.978,-0.547,0.204,-14.648,35.400,-31.189
0.999,-0.503,0.231,-15.198,35.950,-32.959
0.993,-0.452,0.258,-12.634,29.175,-34.668
0.979,-0.429,0.278,-6.653,18.311,-36.499
0.953,-0.443,0.283,0.061,5.066,-38.696
0.922,-0.457,0.294,5.676,-6.531,-41.931
0.888,-0.464,0.292,8.545,-14.465,-45.654
0.865,-0.468,0.280,8.606,-17.517,-48.584
0.876,-0.483,0.265,6.104,-15.259,-51.025
0.902,-0.487,0.260,2.319,-8.484,-53.772
0.965,-0.458,0.284,-1.831,0.854,-56.152
1.044,-0.432,0.314,-4.150,8.850,-55.908
1.114,-0.400,0.343,-4.822,12.146,-53.589
1.155,-0.372,0.356,-4.456,10.498,-49.866
1.188,-0.369,0.342,-3.479,5.005,-44.861
1.185,-0.334,0.325,-2.380,-1.343,-39.917
1.144,-0.284,0.302,-0.671,-5.981,-34.424
1.161,-0.266,0.295,2.258,-6.714,-27.283
1.151,-0.262,0.279,5.310,-5.493,-20.874
1.196,-0.258,0.300,7.507,-4.761,-14.771
1.181,-0.240,0.300,9.094,-6.714,-7.935
1.164,-0.237,0.280,9.949,-9.521,-0.183
1.131,-0.211,0.284,10.681,-10.498,5.920
1.071,-0.136,0.298,11.658,-10.315,11.475
0.800,-0.073,0.259,11.475,-11.658,12.817
1.054,-0.291,0.125,17.761,-14.282,6.165
0.964,-0.094,0.400,21.301,1.648,32.104
1.099,-0.125,0.254,12.390,1.465,42.297
1.040,-0.099,0.307,10.681,-0.977,46.265
0.947,-0.084,0.301,10.803,-7.507,47.485
0.922,-0.076,0.284,10.681,-16.052,53.528
0.788,-0.067,0.276,10.010,-18.433,60.120
0.687,-0.079,0.261,9.277,-17.639,62.378
0.560,-0.111,0.239,7.141,-11.597,60.364
0.471,-0.119,0.212,2.014,-1.587,53.040
0.426,-0.128,0.183,-4.456,11.963,43.579
0.438,-0.114,0.160,-11.414,27.100,34.302
0.519,-0.085,0.138,-16.235,40.344,28.748
0.593,-0.054,0.108,-19.165,48.523,26.306
0.614,-0.027,0.068,-18.921,50.842,25.452
0.630,-0.015,0.035,-15.747,49.805,24.780
0.668,-0.011,0.013,-11.169,47.119,25.024
0.701,0.002,-0.006,-6.287,42.114,25.696
0.713,0.034,-0.006,-0.244,34.119,27.466
0.705,0.057,0.001,6.958,23.804,30.640
0.700,0.058,0.012,15.137,13.245,34.302
0.699,0.046,0.020,22.827,3.052,37.170
0.684,0.027,0.033,29.114,-6.287,38.696
0.660,0.012,0.049,33.447,-14.587,38.879
0.605,0.000,0.057,36.438,-21.790,37.720
0.571,-0.009,0.060,38.269,-24.902,36.377
0.587,-0.026,0.074,39.001,-24.048,36.438
0.579,-0.030,0.078,38.696,-20.935,37.048
0.577,-0.035,0.080,38.086,-15.869,37.903
0.604,-0.041,0.088,37.842,-9.521,37.659
0.644,-0.049,0.108,37.842,-4.150,35.950
0.697,-0.062,0.136,38.086,-1.526,33.264
0.750,-0.069,0.167,37.842,-1.831,29.907
0.798,-0.072,0.185,37.598,-5.066,28.137
0.852,-0.076,0.207,37.109,-9.460,28.320

1.185,-0.908,1.375,-50.354,2.319,71.228
1.296,-0.995,1.392,-59.387,-12.573,73.059
1.283,-1.088,1.356,-71.594,-36.926,69.519
1.190,-1.183,1.264,-85.510,-61.768,65.918
1.039,-1.190,1.156,-100.464,-78.552,62.866
0.874,-1.123,1.066,-113.647,-82.397,58.472
0.722,-1.070,0.997,-119.812,-73.120,49.744
0.648,-1.055,0.965,-120.117,-50.598,35.889
0.663,-1.009,1.002,-117.615,-18.188,21.729
0.765,-0.944,1.073,-111.450,15.564,12.085
0.961,-0.939,1.136,-100.769,42.969,4.395
1.160,-0.964,1.195,-87.463,57.068,-5.798
1.327,-0.942,1.247,-74.585,54.749,-17.334
1.406,-0.922,1.255,-65.002,38.635,-23.499
1.421,-0.900,1.215,-59.204,15.442,-23.193
1.346,-0.882,1.147,-56.946,-7.202,-19.470
1.243,-0.915,1.082,-55.908,-24.170,-14.465
1.125,-0.930,1.033,-57.007,-30.029,-6.653
1.043,-0.926,0.993,-60.730,-25.513,3.052
1.015,-0.907,0.963,-64.819,-15.381,10.010
0.990,-0.866,0.937,-66.956,-3.906,10.498
0.951,-0.838,0.923,-65.002,8.057,4.150
1.039,-0.691,1.111,-59.082,19.165,-6.592
1.136,-0.759,1.100,-46.082,14.954,-10.254
1.163,-0.785,1.129,-35.339,5.066,-8.789
1.142,-0.833,1.107,-30.212,-2.563,-9.155
1.123,-0.832,1.069,-27.893,-5.798,-10.864
1.141,-0.803,1.049,-30.457,-2.441,-13.428
1.222,-0.731,1.053,-35.522,3.235,-12.939
1.279,-0.638,1.064,-41.626,4.028,-7.324
1.257,-0.544,1.084,-45.166,-0.854,1.465
1.181,-0.473,1.082,-42.603,-8.423,10.193
1.067,-0.459,1.044,-34.546,-14.526,15.564
0.974,-0.470,1.010,-25.146,-15.930,17.029
0.912,-0.489,0.982,-16.296,-12.756,16.052
0.905,-0.508,0.967,-9.460,-7.690,14.771
0.909,-0.533,0.952,-4.272,-4.272,13.550
0.881,-0.556,0.933,-0.427,-3.174,11.658
0.845,-0.563,0.937,2.380,-2.380,10.742
0.818,-0.589,0.949,6.042,-1.465,10.193
0.791,-0.630,0.949,9.888,-1.221,7.996
0.764,-0.669,0.930,13.428,-2.136,3.967
0.703,-0.702,0.884,14.771,-3.418,-1.587
0.657,-0.735,0.846,14.526,-3.357,-6.714
0.637,-0.754,0.811,14.587,-1.831,-13.428
0.625,-0.750,0.781,15.991,0.793,-21.912
0.612,-0.748,0.758,19.043,2.808,-30.334
0.606,-0.767,0.730,24.353,3.540,-37.598
0.606,-0.799,0.709,29.968,4.333,-43.823
0.618,-0.837,0.696,33.875,5.493,-47.607
0.620,-0.854,0.683,35.461,6.714,-48.157
0.631,-0.849,0.675,35.400,8.240,-46.326
0.641,-0.849,0.677,35.339,10.742,-43.457
0.652,-0.839,0.690,33.813,14.038,-39.063
0.688,-0.826,0.719,31.860,17.029,-33.508
0.708,-0.811,0.751,30.701,18.005,-28.564
0.729,-0.803,0.776,30.518,16.846,-26.001
0.738,-0.806,0.789,30.762,14.404,-25.085
0.712,-0.815,0.782,31.433,11.169,-25.146
0.690,-0.840,0.768,31.982,10.498,-25.269
0.668,-0.868,0.747,31.494,14.893,-25.452
0.674,-0.880,0.729,29.541,22.949,-26.062
0.703,-0.877,0.729,26.489,32.532,-26.550
0.759,-0.855,0.723,23.926,39.978,-26.123
0.791,-0.845,0.721,22.644,41.687,-25.208
0.774,-0.825,0.720,22.827,38.330,-24.963
0.754,-0.816,0.722,24.841,32.898,-25.269
0.706,-0.809,0.696,28.198,27.405,-26.123
0.662,-0.824,0.690,31.250,25.024,-27.344
0.666,-0.842,0.672,33.325,26.367,-29.846
0.666,-0.900,0.703,32.654,30.151,-31.250
0.682,-0.917,0.686,28.748,33.997,-34.363
0.694,-0.883,0.679,22.583,36.865,-40.405
0.730,-0.835,0.686,15.442,40.710,-46.692
0.749,-0.786,0.682,9.521,44.983,-52.246
0.793,-0.761,0.677,6.104,51.270,-55.298
0.862,-0.720,0.696,4.822,59.570,-55.908
0.944,-0.685,0.727,5.432,66.040,-52.979
1.010,-0.639,0.769,7.751,68.542,-49.011
1.052,-0.604,0.813,11.719,66.162,-45.288
1.064,-0.600,0.838,17.151,59.570,-42.847
1.067,-0.607,0.847,20.996,52.063,-40.894
1.058,-0.609,0.843,23.254,45.410,-39.612
1.057,-0.618,0.833,22.034,41.077,-39.001
1.050,-0.624,0.814,18.738,39.185,-39.551
1.030,-0.608,0.802,13.550,40.710,-39.856
1.038,-0.569,0.800,8.667,44.922,-39.001
1.060,-0.527,0.810,5.066,50.171,-37.781
1.097,-0.496,0.817,3.967,54.993,-36.438
1.154,-0.473,0.830,3.235,58.228,-34.668
1.202,-0.458,0.830,2.258,58.533,-32.288
1.231,-0.436,0.817,0.549,55.969,-28.809
1.238,-0.400,0.808,-2.136,52.979,-23.560
1.259,-0.391,0.768,-4.944,48.950,-17.090
1.234,-0.363,0.723,-8.423,45.593,-11.963
1.231,-0.343,0.685,-12.512,44.678,-7.080
1.220,-0.321,0.654,-15.137,43.884,-4.395
1.200,-0.283,0.637,-16.785,43.213,-2.991
1.170,-0.262,0.616,-16.113,42.236,-0.366
1.115,-0.251,0.594,-13.123,41.992,3.784
1.067,-0.260,0.582,-9.277,44.556,8.789
1.068,-0.258,0.590,-6.042,48.706,13.550
1.059,-0.260,0.585,-3.662,50.293,17.151
1.036,-0.254,0.569,-2.563,49.561,18.677
0.990,-0.250,0.532,-2.075,47.485,18.616
0.985,-0.239,0.518,-2.869,46.692,18.799
0.971,-0.201,0.502,-4.883,45.227,20.142
0.941,-0.176,0.470,-7.446,41.382,24.109
0.912,-0.150,0.439,-10.254,37.415,28.687
0.861,-0.123,0.407,-12.634,34.119,32.471
0.791,-0.091,0.379,-14.282,32.898,36.377
0.718,-0.058,0.343,-15.259,33.508,39.734
0.647,-0.036,0.312,-15.015,36.133,41.504
0.578,-0.005,0.290,-14.587,40.039,40.771
0.526,0.017,0.275,-12.573,43.945,38.574
0.496,0.031,0.263,-9.338,47.424,35.522
0.479,0.041,0.256,-5.798,49.744,31.616
0.480,0.047,0.257,-1.770,50.415,27.466
0.480,0.033,0.250,1.831,50.415,23.987

1.375,-0.371,1.118,-11.658,-28.931,10.986
1.606,-0.528,1.250,-28.198,-14.160,24.231
1.778,-0.656,1.350,-48.706,-11.169,40.222
1.867,-0.753,1.404,-68.359,-21.240,52.917
1.822,-0.804,1.396,-86.975,-36.011,63.599
1.690,-0.825,1.343,-102.905,-48.340,70.740
1.586,-0.829,1.294,-115.845,-53.223,73.486
1.459,-0.809,1.229,-125.549,-52.734,70.068
1.360,-0.756,1.137,-131.042,-48.767,61.096
1.277,-0.730,1.031,-130.859,-43.518,48.584
1.174,-0.719,0.916,-124.756,-38.879,33.569
1.083,-0.697,0.825,-112.976,-33.447,17.517
1.023,-0.667,0.791,-95.703,-25.452,3.723
0.997,-0.670,0.762,-73.730,-15.625,-7.080
1.079,-0.746,0.803,-52.490,-3.967,-15.442
1.190,-0.939,0.816,-39.124,5.432,-16.663
1.321,-0.961,0.883,-37.231,6.042,-11.719
1.435,-1.071,0.954,-42.480,-7.141,-2.808
1.356,-1.121,0.813,-51.453,-30.823,4.150
1.340,-1.114,0.968,-59.875,-51.880,8.728
1.252,-1.182,0.857,-61.218,-72.632,5.554
1.035,-1.210,0.824,-60.974,-82.214,-1.343
0.874,-1.205,0.786,-58.716,-76.477,-7.446
0.805,-1.215,0.788,-50.781,-55.603,-15.686
0.846,-1.203,0.805,-40.161,-28.625,-24.963
0.957,-1.207,0.783,-30.090,-6.836,-34.363
1.036,-1.214,0.750,-21.606,4.822,-41.138
1.073,-1.236,0.696,-14.282,5.920,-44.800
1.016,-1.198,0.656,-6.531,0.610,-46.509
0.909,-1.173,0.633,4.761,-6.470,-45.532
0.810,-1.170,0.610,20.508,-11.108,-42.908
0.724,-1.228,0.583,36.133,-12.085,-40.344
0.605,-1.303,0.508,44.556,-8.484,-36.621
0.531,-1.358,0.533,43.213,1.526,-33.447
0.586,-1.230,0.604,38.330,10.193,-34.912
0.575,-1.273,0.543,33.447,8.728,-33.264
0.656,-1.175,0.658,26.306,10.376,-35.278
0.664,-1.134,0.652,24.048,4.028,-36.255
0.701,-1.063,0.706,23.926,-3.662,-35.706
0.720,-1.008,0.731,26.306,-12.634,-33.569
0.691,-0.983,0.765,31.555,-22.217,-30.640
0.691,-0.992,0.817,39.063,-28.137,-26.550
0.717,-1.029,0.882,46.692,-29.480,-22.278
0.729,-1.091,0.923,52.002,-26.917,-19.531
0.718,-1.198,0.936,53.101,-18.921,-18.738
0.739,-1.326,0.951,47.974,-3.723,-19.470
0.798,-1.423,0.942,35.767,17.212,-20.325
0.861,-1.464,0.907,17.151,39.063,-20.203
0.855,-1.458,0.828,-5.737,57.068,-18.127
0.785,-1.389,0.713,-29.846,71.106,-14.160
0.716,-1.260,0.601,-51.392,82.336,-10.315
0.666,-1.135,0.515,-64.697,90.088,-8.301
0.646,-1.017,0.473,-67.993,92.346,-8.911
0.634,-0.901,0.455,-62.683,87.402,-10.986
0.644,-0.773,0.457,-50.110,76.233,-12.817
0.682,-0.679,0.483,-31.555,60.791,-13.733
0.694,-0.661,0.500,-9.521,42.419,-14.587
0.712,-0.691,0.518,11.108,25.208,-15.747
0.713,-0.728,0.534,26.672,13.062,-16.968
0.724,-0.802,0.553,35.156,8.545,-17.700
0.585,-0.843,0.627,34.424,13.855,-19.775
0.679,-0.914,0.633,25.635,35.339,-24.719
0.874,-0.877,0.648,14.526,53.955,-27.954
0.902,-0.866,0.704,5.371,61.401,-27.100
0.849,-0.827,0.678,-4.944,64.514,-26.794
0.921,-0.770,0.675,-11.780,72.754,-25.330
0.973,-0.723,0.674,-14.771,76.111,-22.156
0.974,-0.695,0.693,-12.268,73.181,-18.005
0.974,-0.666,0.679,-7.324,64.087,-14.099
0.906,-0.638,0.689,-2.136,52.979,-9.460
0.847,-0.649,0.677,1.953,41.626,-4.700
0.760,-0.640,0.656,2.808,32.654,-3.357
0.674,-0.647,0.647,0.366,26.855,-4.822
0.646,-0.662,0.641,-4.944,24.475,-10.864
0.640,-0.637,0.645,-13.123,26.489,-21.118
0.655,-0.618,0.632,-22.217,32.654,-31.555
0.714,-0.572,0.617,-31.006,40.955,-39.795
0.797,-0.566,0.625,-38.818,47.546,-45.898
0.854,-0.554,0.579,-46.570,54.932,-46.753
0.940,-0.538,0.581,-52.917,63.049,-44.250
1.000,-0.506,0.541,-55.969,67.261,-41.138
1.032,-0.477,0.507,-57.129,70.679,-38.147
1.060,-0.430,0.495,-56.396,72.266,-36.133
1.086,-0.397,0.484,-53.284,70.313,-33.203
1.093,-0.381,0.473,-48.584,63.416,-29.541
1.061,-0.365,0.455,-43.518,53.040,-25.696
1.013,-0.373,0.419,-38.818,41.077,-20.325
0.967,-0.387,0.401,-36.072,30.090,-14.893
0.944,-0.375,0.378,-36.072,21.484,-12.146
0.912,-0.365,0.355,-36.133,14.709,-12.634
0.882,-0.349,0.326,-35.645,10.132,-15.076
0.860,-0.329,0.305,-34.119,8.240,-17.029
0.843,-0.294,0.283,-31.372,9.338,-18.005
0.854,-0.261,0.251,-25.146,13.062,-17.212
0.869,-0.269,0.236,-16.113,19.348,-14.709
0.897,-0.291,0.272,-6.775,26.550,-12.329
0.979,-0.304,0.312,1.526,30.640,-10.315
1.027,-0.337,0.341,8.606,29.236,-8.301
1.056,-0.352,0.379,13.733,24.048,-5.981
1.049,-0.412,0.373,18.127,16.174,-2.441
1.046,-0.438,0.391,19.592,10.437,1.892
1.042,-0.453,0.397,19.287,4.822,6.775
1.072,-0.472,0.421,15.930,0.183,11.230
1.030,-0.467,0.413,10.193,-3.296,14.832
1.018,-0.467,0.428,4.028,-2.930,17.212
0.997,-0.419,0.425,-1.160,0.977,17.273
1.040,-0.433,0.460,-5.493,8.606,18.311
1.074,-0.418,0.450,-9.521,16.846,17.334
1.108,-0.391,0.479,-13.489,23.621,14.954
1.151,-0.373,0.471,-17.029,26.794,11.963
1.191,-0.362,0.455,-19.714,26.855,9.338
1.224,-0.345,0.443,-22.217,25.208,7.507
1.212,-0.307,0.413,-24.414,21.667,6.409
1.208,-0.261,0.393,-24.719,18.799,6.714
1.189,-0.214,0.372,-23.499,16.724,8.667
1.157,-0.174,0.350,-20.386,15.381,11.963
1.124,-0.150,0.336,-16.541,14.954,15.869
1.078,-0.128,0.324,-13.428,15.442,20.386
1.027,-0.114,0.312,-11.230,16.052,25.024

1.752,-0.628,0.731,-37.231,53.406,34.485
1.964,-0.688,0.859,-52.002,43.274,50.110
2.049,-0.765,0.895,-63.904,7.385,61.523
1.969,-0.804,0.856,-71.472,-41.565,65.063
1.726,-0.827,0.759,-75.806,-90.149,62.378
1.462,-0.934,0.621,-77.942,-125.427,58.533
1.200,-1.006,0.493,-79.529,-139.343,53.040
0.958,-1.061,0.438,-78.308,-131.775,44.617
0.826,-1.219,0.464,-70.923,-108.582,32.410
0.789,-1.434,0.518,-55.176,-78.247,11.902
0.827,-1.596,0.603,-35.706,-47.180,-15.564
0.939,-1.715,0.683,-16.907,-21.973,-43.579
1.102,-1.871,0.761,-0.061,-6.836,-63.354
1.287,-1.955,0.796,8.545,-6.226,-71.716
1.422,-1.968,0.776,8.301,-20.142,-71.899
1.480,-1.929,0.739,3.357,-42.847,-68.054
1.401,-1.823,0.691,-4.883,-65.857,-59.875
1.259,-1.708,0.659,-10.925,-79.895,-49.133
1.121,-1.629,0.659,-12.756,-79.224,-36.133
0.988,-1.562,0.662,-12.756,-65.125,-24.719
0.888,-1.556,0.675,-12.695,-41.870,-16.174
0.878,-1.562,0.732,-12.573,-14.099,-11.292
0.814,-1.547,0.666,-13.367,10.681,-9.033
0.670,-1.284,0.667,-17.883,30.579,-8.423
0.662,-1.281,0.687,-20.203,51.270,-3.479
0.599,-1.142,0.607,-20.386,70.618,-4.456
0.759,-1.117,0.783,-16.968,85.388,-2.441
0.931,-1.028,0.821,-10.254,77.393,-10.437
0.899,-1.081,0.858,-4.883,56.396,-11.536
0.910,-1.071,0.833,0.244,32.288,-12.634
0.855,-1.113,0.830,4.272,10.742,-13.611
0.874,-1.152,0.808,6.531,-3.723,-12.146
0.743,-1.163,0.705,5.432,-8.545,-12.756
0.681,-1.143,0.708,2.625,1.953,-14.343
0.683,-1.116,0.688,0.061,24.475,-14.282
0.808,-1.107,0.708,-2.808,51.514,-14.954
0.911,-1.104,0.697,-5.615,72.937,-19.226
1.026,-1.061,0.727,-9.155,86.487,-24.536
1.141,-1.026,0.739,-11.963,87.830,-27.100
1.061,-0.984,0.615,-12.329,78.247,-25.635
1.220,-1.029,0.778,-10.986,70.435,-18.311
1.239,-0.995,0.637,-6.104,53.284,-17.212
1.085,-0.982,0.571,-4.639,30.884,-14.221
0.984,-0.983,0.502,-4.150,15.930,-5.310
0.815,-0.966,0.403,-3.906,12.451,0.977
0.783,-1.013,0.368,-4.150,20.813,3.967
0.730,-0.963,0.352,-5.188,34.119,0.000
0.778,-0.978,0.411,-7.385,46.448,-2.380
0.865,-0.953,0.431,-8.179,51.758,-3.235
0.921,-0.935,0.458,-7.935,46.753,-2.502
0.937,-0.931,0.466,-5.737,33.752,-0.793
0.917,-0.959,0.437,-0.977,17.761,-0.244
0.926,-0.984,0.442,3.784,3.723,-0.671
0.867,-0.987,0.406,6.104,-7.690,0.610
0.808,-1.000,0.372,6.836,-13.550,2.502
0.715,-0.988,0.315,5.859,-11.841,1.709
0.670,-0.975,0.284,3.662,0.122,-0.366
0.686,-0.949,0.277,0.793,19.226,-2.380
0.741,-0.911,0.298,-1.770,39.978,-5.615
0.831,-0.886,0.334,-2.991,56.885,-9.949
0.916,-0.861,0.358,-4.578,64.819,-13.916
0.990,-0.845,0.372,-6.714,63.599,-15.930
1.043,-0.814,0.376,-8.545,55.054,-16.357
1.070,-0.785,0.364,-9.644,41.931,-16.113
1.069,-0.758,0.337,-9.521,28.076,-15.137
1.047,-0.735,0.309,-9.155,16.479,-13.733
0.994,-0.695,0.276,-9.583,9.888,-11.719
0.944,-0.643,0.251,-10.681,10.437,-8.545
0.909,-0.590,0.246,-11.292,17.578,-6.714
0.901,-0.548,0.253,-10.986,28.687,-7.935
0.943,-0.527,0.284,-9.460,39.917,-11.169
1.022,-0.520,0.329,-8.789,46.570,-14.465
1.089,-0.502,0.373,-9.888,45.959,-15.869
1.120,-0.479,0.389,-12.390,37.720,-15.625
1.119,-0.464,0.371,-14.832,25.818,-14.282
1.082,-0.436,0.325,-17.883,15.991,-12.573
1.050,-0.428,0.278,-21.057,11.536,-10.071
1.032,-0.411,0.231,-23.987,13.977,-7.263
1.047,-0.394,0.193,-26.428,20.752,-4.944
1.062,-0.378,0.168,-28.381,29.114,-4.150
1.111,-0.350,0.164,-28.625,35.828,-4.517
1.154,-0.310,0.159,-27.100,38.452,-5.249
1.191,-0.273,0.170,-23.132,37.231,-4.578
1.203,-0.237,0.180,-16.663,32.349,-2.441
1.205,-0.215,0.195,-8.423,24.719,1.892
1.198,-0.229,0.189,0.732,16.052,6.775
1.174,-0.240,0.188,9.277,8.362,10.010
1.161,-0.254,0.189,15.442,3.052,12.085
1.120,-0.248,0.205,19.043,0.183,13.000
1.089,-0.239,0.230,20.569,0.610,14.648
1.062,-0.231,0.246,20.081,4.395,17.578
1.041,-0.223,0.257,17.456,10.498,20.996
1.032,-0.199,0.265,13.245,17.090,23.682
1.000,-0.183,0.263,8.362,21.790,25.696
0.959,-0.151,0.260,3.479,25.269,26.855
0.937,-0.116,0.245,-0.549,27.344,27.588
0.890,-0.044,0.259,-4.395,27.344,28.259
0.905,-0.077,0.182,-5.920,24.109,30.212
0.764,0.014,0.166,-8.179,22.278,28.870
0.742,0.023,0.161,-7.996,24.292,30.518
0.746,0.063,0.140,-4.272,25.818,28.748
0.768,0.115,0.171,-0.366,27.832,26.611
0.756,0.097,0.159,4.089,24.414,28.687
0.727,0.086,0.139,8.118,19.653,31.921
0.686,0.079,0.117,11.658,18.311,35.217
0.698,0.057,0.113,14.954,19.714,38.208
0.689,0.039,0.131,16.602,20.935,41.138
0.679,0.004,0.098,17.883,21.484,43.823
0.656,-0.005,0.081,17.944,21.179,44.678
0.643,-0.020,0.072,17.822,20.386,44.922
0.627,-0.016,0.052,17.578,19.775,44.189
0.621,-0.004,0.047,17.700,18.188,43.640
0.626,0.009,0.054,18.372,15.076,43.945
0.650,0.012,0.066,20.813,11.414,44.250
0.649,0.024,0.073,23.499,7.202,43.701
0.665,0.030,0.095,25.757,3.235,42.969
0.620,0.032,0.083,28.198,-0.366,41.321
0.623,0.009,0.101,29.175,-1.831,39.856
0.578,-0.000,0.097,29.114,-1.770,37.659

1.725,-0.822,0.235,29.846,-40.283,68.726
1.638,-0.902,0.301,36.377,-58.105,62.622
1.513,-1.005,0.319,41.687,-66.284,53.772
1.424,-1.147,0.344,43.945,-60.974,41.687
1.394,-1.267,0.361,38.635,-44.556,29.480
1.381,-1.339,0.341,26.245,-26.367,20.203
1.427,-1.374,0.329,9.277,-10.437,13.367
1.452,-1.332,0.302,-8.423,-0.305,10.376
1.454,-1.239,0.265,-23.071,3.052,10.620
1.449,-1.109,0.258,-30.029,0.366,11.108
1.433,-1.032,0.309,-26.123,-4.639,10.193
1.436,-1.019,0.367,-14.404,-9.033,10.010
1.403,-0.996,0.374,-3.296,-14.099,12.268
1.353,-1.006,0.362,4.333,-19.409,15.503
1.316,-1.058,0.309,6.653,-23.804,16.724
1.249,-1.001,0.249,3.662,-26.855,14.160
1.212,-0.955,0.179,-2.625,-27.954,10.803
1.209,-0.906,0.137,-10.803,-27.039,8.118
1.208,-0.866,0.101,-18.005,-24.170,7.568
1.154,-0.809,0.059,-22.766,-17.639,7.019
1.163,-0.664,0.125,-23.010,-5.676,4.395
1.250,-0.575,0.195,-16.418,2.747,6.409
1.207,-0.566,0.203,-5.127,2.625,13.367
1.199,-0.563,0.240,5.737,0.732,20.935
1.157,-0.573,0.229,15.686,-2.808,26.367
1.097,-0.596,0.223,22.705,-5.615,29.968
1.027,-0.690,0.212,26.489,-5.432,30.762
1.064,-0.669,0.216,25.085,-3.601,23.560
0.956,-0.655,0.210,20.386,-2.747,14.404
0.986,-0.646,0.218,15.686,-1.160,9.094
0.978,-0.677,0.207,13.062,-0.671,4.150
0.957,-0.655,0.195,10.132,0.793,-3.845
1.001,-0.648,0.219,9.399,1.343,-10.498
1.039,-0.642,0.233,9.766,0.854,-14.893
1.068,-0.618,0.252,11.292,-1.587,-15.747
1.110,-0.642,0.252,13.550,-5.188,-13.489
1.112,-0.654,0.256,14.587,-8.545,-12.451
1.103,-0.650,0.262,14.038,-11.169,-12.573
1.082,-0.650,0.265,12.573,-12.512,-13.367
1.069,-0.654,0.263,10.132,-11.353,-14.832
1.069,-0.661,0.262,6.653,-8.423,-16.235
1.084,-0.651,0.263,2.502,-4.333,-17.212
1.089,-0.632,0.265,-2.930,-0.793,-17.639
1.098,-0.611,0.268,-6.897,2.625,-18.616
1.099,-0.602,0.254,-8.850,5.981,-20.630
1.113,-0.588,0.236,-9.827,8.850,-22.278
1.129,-0.589,0.223,-9.094,11.169,-23.621
1.140,-0.601,0.208,-7.568,12.207,-23.437
1.128,-0.613,0.189,-6.653,11.353,-21.729
1.051,-0.608,0.160,-6.531,8.728,-19.531
1.024,-0.588,0.132,-8.972,6.958,-17.456
0.998,-0.570,0.141,-11.902,3.662,-18.005
0.875,-0.549,0.123,-13.916,-0.916,-21.118
0.844,-0.555,0.108,-14.709,-5.920,-23.743
0.815,-0.546,0.102,-14.954,-10.864,-30.396
0.765,-0.540,0.106,-15.198,-16.541,-37.537
0.735,-0.533,0.089,-14.954,-23.193,-43.152
0.735,-0.564,0.080,-14.221,-29.114,-48.523
0.735,-0.591,0.059,-14.648,-33.203,-53.650
0.753,-0.585,0.038,-17.456,-35.034,-59.631
0.818,-0.563,0.031,-20.142,-33.386,-67.383
0.903,-0.544,0.037,-21.484,-29.541,-75.439
1.020,-0.497,0.036,-24.536,-25.513,-80.017
1.165,-0.436,0.051,-26.489,-23.743,-80.627
1.279,-0.365,0.069,-25.574,-26.489,-78.186
1.345,-0.312,0.074,-21.423,-33.264,-73.669
1.373,-0.293,0.087,-14.343,-41.565,-68.726
1.378,-0.293,0.097,-5.737,-49.133,-64.392
1.358,-0.292,0.110,2.502,-54.932,-60.974
1.317,-0.302,0.131,9.766,-59.021,-58.533
1.266,-0.326,0.154,15.564,-61.401,-57.129
1.232,-0.367,0.191,18.799,-62.683,-55.481
1.199,-0.396,0.230,18.738,-64.453,-52.856
1.130,-0.416,0.246,16.418,-67.200,-49.866
1.071,-0.443,0.272,12.512,-68.604,-47.241
1.009,-0.450,0.274,7.568,-66.711,-47.424
0.962,-0.464,0.266,2.136,-60.059,-51.575
0.954,-0.469,0.276,-2.808,-47.852,-58.716
1.001,-0.444,0.304,-8.240,-32.532,-65.857
1.097,-0.421,0.345,-12.939,-18.494,-70.374
1.177,-0.398,0.385,-17.212,-8.850,-71.167
1.225,-0.375,0.414,-20.813,-4.150,-68.848
1.234,-0.338,0.447,-23.376,-1.526,-63.599
1.231,-0.321,0.476,-25.818,0.610,-57.617
1.189,-0.312,0.472,-29.358,2.808,-52.246
1.126,-0.312,0.437,-34.241,6.409,-48.645
1.071,-0.324,0.379,-40.833,13.611,-47.791
1.023,-0.301,0.321,-48.706,25.330,-48.706
1.007,-0.211,0.289,-56.580,40.283,-48.584
1.063,-0.096,0.292,-60.303,54.810,-45.837
1.141,-0.025,0.312,-56.091,62.500,-40.894
1.195,0.009,0.325,-45.837,60.364,-35.828
1.221,0.032,0.332,-32.715,50.110,-28.809
1.234,0.003,0.346,-17.639,35.767,-18.494
1.224,-0.054,0.327,-3.723,19.226,-6.958
1.193,-0.102,0.327,7.141,4.150,3.845
1.114,-0.126,0.271,14.648,-7.202,13.611
1.083,-0.144,0.249,20.813,-13.306,22.827
1.040,-0.164,0.250,26.428,-15.686,30.518
1.026,-0.179,0.250,31.799,-15.686,34.607
1.026,-0.185,0.266,37.415,-14.709,35.889
1.006,-0.188,0.304,43.335,-14.709,37.781
0.969,-0.164,0.327,48.950,-15.320,40.649
0.946,-0.120,0.359,54.993,-15.137,44.922
0.927,-0.094,0.387,62.317,-14.771,49.683
0.899,-0.113,0.403,70.313,-15.564,54.199
0.860,-0.164,0.407,76.599,-16.479,56.824
0.818,-0.230,0.398,79.651,-16.357,56.946
0.778,-0.302,0.376,78.613,-15.381,55.481
0.737,-0.344,0.352,72.021,-13.062,53.406
0.685,-0.342,0.313,62.622,-9.033,50.842
0.635,-0.314,0.283,53.223,-2.319,47.241
0.631,-0.287,0.265,46.875,7.141,42.847
0.650,-0.263,0.262,43.823,16.907,38.208
0.659,-0.245,0.257,43.884,23.621,33.752
0.680,-0.224,0.254,45.166,27.588,31.067
0.697,-0.224,0.244,46.997,28.748,30.090
0.688,-0.217,0.227,47.913,27.954,29.236
0.673,-0.198,0.211,48.767,25.574,28.137

1.263,-0.996,0.501,-49.316,16.968,54.260
1.325,-1.141,0.549,-48.950,25.757,44.495
1.388,-1.237,0.573,-50.354,30.457,38.269
1.422,-1.276,0.602,-52.917,29.663,34.973
1.409,-1.303,0.609,-53.772,23.010,35.339
1.340,-1.294,0.602,-51.880,12.939,38.391
1.255,-1.274,0.602,-46.021,2.991,42.969
1.167,-1.270,0.621,-38.513,-5.432,47.974
1.091,-1.327,0.652,-29.175,-13.245,52.002
1.005,-1.432,0.670,-20.447,-21.118,53.284
0.919,-1.508,0.682,-14.893,-28.442,50.476
0.836,-1.571,0.693,-12.939,-34.302,44.006
0.758,-1.627,0.676,-14.404,-38.147,34.485
0.677,-1.653,0.636,-20.142,-39.429,22.156
0.614,-1.663,0.578,-28.076,-36.560,7.690
0.561,-1.681,0.519,-36.255,-27.344,-6.042
0.558,-1.678,0.470,-44.067,-12.085,-18.433
0.608,-1.644,0.456,-51.270,7.080,-27.954
0.688,-1.601,0.459,-55.786,27.832,-33.325
0.756,-1.577,0.450,-56.946,45.532,-36.316
0.796,-1.571,0.422,-53.772,60.608,-38.086
0.800,-1.547,0.376,-48.889,73.975,-38.940
0.792,-1.513,0.313,-44.983,86.121,-38.208
0.752,-1.479,0.231,-43.396,97.168,-36.438
0.717,-1.409,0.176,-44.189,108.154,-34.607
0.712,-1.283,0.176,-46.265,117.920,-32.959
0.722,-1.128,0.219,-47.058,122.681,-29.907
0.743,-1.010,0.313,-41.870,121.521,-25.024
0.829,-1.000,0.438,-30.396,113.892,-21.240
0.980,-1.068,0.582,-17.517,99.304,-19.165
1.114,-1.101,0.695,-9.766,75.623,-15.991
1.260,-1.127,0.770,-8.240,42.664,-10.010
1.309,-1.148,0.761,-11.536,4.944,-4.150
1.283,-1.146,0.725,-18.311,-28.809,-0.793
1.215,-1.091,0.656,-26.123,-52.124,0.427
1.107,-1.016,0.571,-31.860,-60.486,0.122
1.007,-0.948,0.501,-34.912,-52.429,-1.221
0.977,-0.903,0.467,-34.363,-30.334,-2.686
1.030,-0.878,0.462,-30.212,-2.136,-5.798
1.084,-0.874,0.472,-24.658,23.437,-11.658
1.154,-0.900,0.480,-18.982,41.870,-17.151
1.236,-0.948,0.505,-14.954,51.697,-20.996
1.284,-0.992,0.500,-13.123,53.101,-23.254
1.274,-1.002,0.448,-14.465,48.706,-23.071
1.232,-1.001,0.400,-18.494,43.640,-19.287
1.175,-0.986,0.337,-21.851,40.100,-15.564
1.102,-0.963,0.285,-23.560,40.161,-14.343
1.044,-0.948,0.249,-23.865,44.312,-13.977
0.986,-0.932,0.233,-23.193,49.683,-13.611
0.926,-0.922,0.219,-20.813,54.260,-14.099
0.876,-0.913,0.207,-17.883,57.678,-16.357
0.832,-0.890,0.194,-15.686,59.021,-20.142
0.831,-0.867,0.190,-13.428,57.983,-25.024
0.864,-0.848,0.207,-11.353,52.917,-29.785
0.929,-0.831,0.225,-9.216,42.297,-32.776
0.979,-0.823,0.244,-6.287,26.611,-33.386
1.002,-0.811,0.250,-4.089,8.728,-30.762
1.011,-0.803,0.243,-2.991,-8.240,-26.245
0.990,-0.789,0.205,-3.052,-21.545,-22.644
0.956,-0.767,0.173,-4.700,-27.405,-20.813
0.945,-0.758,0.158,-7.568,-24.414,-19.470
0.958,-0.759,0.162,-11.841,-14.221,-17.334
0.968,-0.767,0.177,-17.029,-1.526,-13.550
1.005,-0.803,0.191,-23.987,10.315,-8.606
1.049,-0.786,0.193,-34.241,19.104,-5.615
1.057,-0.738,0.162,-45.166,24.292,-7.019
1.048,-0.675,0.127,-53.467,27.710,-12.024
1.064,-0.608,0.095,-58.289,30.823,-18.738
1.088,-0.548,0.074,-60.059,33.936,-25.085
1.137,-0.484,0.073,-59.387,37.109,-28.748
1.204,-0.403,0.092,-56.458,39.795,-28.381
1.259,-0.335,0.115,-50.781,40.100,-24.231
1.253,-0.292,0.108,-42.297,37.720,-18.738
1.231,-0.287,0.103,-33.447,36.865,-13.733
1.267,-0.301,0.148,-25.085,37.781,-12.939
1.225,-0.304,0.089,-19.043,35.034,-15.137
1.241,-0.324,0.103,-17.883,34.302,-13.733
1.202,-0.299,0.076,-20.020,32.471,-12.024
1.189,-0.292,0.053,-22.400,29.053,-7.385
1.159,-0.248,0.018,-24.780,25.330,-1.892
1.113,-0.176,-0.008,-24.902,21.606,3.845
1.059,-0.119,-0.032,-20.691,19.226,8.850
1.006,-0.092,-0.059,-12.329,19.104,12.878
1.016,-0.079,-0.051,-1.587,22.095,16.479
1.022,-0.067,-0.034,10.803,24.902,19.165
1.053,-0.094,-0.007,23.315,25.085,23.499
1.060,-0.119,0.003,33.142,21.362,28.198
1.052,-0.113,-0.010,39.429,13.550,33.386
1.010,-0.066,-0.025,42.542,2.991,38.269
0.985,0.024,-0.030,45.532,-8.179,41.809
0.985,0.088,0.009,52.795,-19.531,43.091
1.005,0.086,0.075,63.965,-31.067,42.908
1.002,0.027,0.121,76.172,-42.053,43.640
0.974,-0.018,0.150,85.999,-51.758,45.715
0.929,-0.068,0.179,92.590,-59.082,48.706
0.880,-0.119,0.197,95.886,-62.988,52.734
0.819,-0.169,0.196,95.459,-63.721,56.213
0.765,-0.214,0.186,91.858,-61.218,58.472
0.711,-0.236,0.175,85.754,-56.702,58.899
0.647,-0.228,0.157,77.698,-51.453,56.641
0.609,-0.228,0.135,69.153,-45.227,54.382
0.589,-0.213,0.112,60.120,-38.391,53.101
0.550,-0.187,0.081,52.368,-32.471,52.246
0.501,-0.163,0.054,46.509,-26.794,51.147
0.471,-0.142,0.031,42.603,-21.179,50.049
0.464,-0.144,0.012,40.955,-15.808,47.485
0.460,-0.151,-0.005,40.344,-11.841,42.786
0.468,-0.163,-0.015,40.100,-9.216,36.804
0.520,-0.202,-0.013,39.856,-6.958,30.762
0.588,-0.212,-0.008,37.781,-5.981,25.452
0.643,-0.215,0.002,35.217,-6.470,21.423
0.705,-0.216,0.016,32.715,-8.057,19.043
0.761,-0.199,0.026,29.358,-9.460,17.883
0.808,-0.197,0.030,26.184,-10.986,17.578
0.843,-0.191,0.037,22.339,-11.902,17.944
0.878,-0.185,0.043,17.700,-12.207,17.700
0.902,-0.192,0.045,13.062,-12.390,16.663
0.926,-0.201,0.042,8.423,-12.024,13.977
0.937,-0.204,0.039,3.601,-11.169,9.949

1.632,-0.797,0.373,-49.133,34.485,36.987
1.636,-0.851,0.385,-42.297,4.761,48.279
1.576,-0.943,0.381,-35.461,-29.968,60.608
1.442,-1.044,0.388,-29.968,-63.232,69.641
1.246,-1.149,0.380,-25.574,-89.722,71.106
1.095,-1.307,0.372,-20.752,-102.234,62.744
1.016,-1.455,0.354,-18.860,-99.182,46.570
0.955,-1.499,0.323,-24.048,-83.679,27.832
0.919,-1.503,0.295,-32.532,-60.303,10.132
0.982,-1.514,0.284,-41.321,-31.677,-1.526
1.054,-1.459,0.307,-49.866,-3.601,-5.188
1.105,-1.385,0.365,-54.688,18.372,-4.822
1.163,-1.349,0.410,-52.368,32.837,-4.333
1.160,-1.329,0.428,-44.678,39.673,-7.019
1.108,-1.354,0.442,-34.302,39.978,-11.108
1.056,-1.320,0.440,-23.437,35.095,-14.587
1.018,-1.392,0.432,-15.503,27.893,-15.869
0.801,-1.353,0.299,-13.489,22.827,-20.813
0.896,-1.330,0.288,-13.977,23.315,-23.315
0.657,-1.185,0.221,-14.709,23.437,-27.222
0.745,-1.177,0.240,-13.245,28.931,-22.705
0.754,-1.125,0.244,-8.545,32.593,-27.893
0.722,-1.027,0.312,-5.859,35.034,-34.119
0.731,-1.009,0.330,0.183,32.410,-32.654
0.752,-1.022,0.363,6.653,28.137,-29.907
0.809,-1.052,0.376,12.024,22.705,-25.879
0.830,-1.095,0.383,15.137,16.113,-21.790
0.882,-1.142,0.407,17.517,9.399,-18.250
0.964,-1.178,0.435,19.653,2.197,-17.212
1.016,-1.205,0.469,22.156,-5.066,-16.296
1.026,-1.219,0.474,23.865,-11.963,-13.428
1.001,-1.214,0.465,24.536,-16.968,-9.399
0.954,-1.184,0.437,23.926,-17.517,-5.371
0.872,-1.128,0.397,22.827,-13.489,-3.296
0.795,-1.079,0.348,20.081,-5.554,-2.625
0.729,-1.047,0.295,15.564,5.371,-3.479
0.694,-1.002,0.264,10.803,19.043,-7.019
0.697,-0.961,0.242,6.592,32.776,-13.123
0.745,-0.918,0.241,3.540,44.739,-20.813
0.823,-0.892,0.275,3.479,52.551,-28.015
0.907,-0.878,0.312,5.371,53.711,-32.593
0.958,-0.859,0.336,7.568,47.546,-33.813
0.974,-0.859,0.346,10.010,36.621,-32.837
0.965,-0.861,0.362,11.841,24.048,-30.823
0.932,-0.856,0.360,12.329,12.146,-27.771
0.879,-0.847,0.362,12.390,2.502,-23.865
0.814,-0.842,0.363,12.695,-2.930,-20.386
0.743,-0.861,0.348,12.756,-4.028,-18.982
0.689,-0.873,0.346,11.780,-0.916,-19.836
0.658,-0.878,0.340,8.606,5.188,-22.034
0.684,-0.903,0.339,4.089,11.414,-24.292
0.724,-0.908,0.336,-1.953,15.564,-26.062
0.751,-0.893,0.322,-8.606,16.479,-27.893
0.816,-0.885,0.297,-13.306,15.564,-29.785
0.870,-0.860,0.264,-16.541,13.306,-31.494
0.909,-0.829,0.238,-19.226,10.010,-32.471
0.964,-0.796,0.238,-19.287,5.981,-32.288
1.043,-0.784,0.242,-16.541,1.221,-31.250
1.101,-0.778,0.229,-12.207,-5.432,-29.053
1.114,-0.776,0.206,-7.568,-13.062,-26.123
1.090,-0.776,0.184,-2.991,-18.372,-23.499
1.063,-0.779,0.160,-0.549,-18.799,-21.606
1.028,-0.779,0.151,-0.549,-12.634,-21.179
1.017,-0.765,0.153,-2.441,-1.648,-22.156
1.054,-0.748,0.170,-4.761,13.245,-23.376
1.128,-0.716,0.188,-8.179,27.100,-23.682
1.210,-0.669,0.209,-11.719,35.706,-22.461
1.289,-0.620,0.227,-14.099,36.865,-20.142
1.339,-0.588,0.229,-15.259,30.640,-18.066
1.352,-0.559,0.233,-15.747,19.958,-15.930
1.342,-0.541,0.235,-14.893,6.958,-14.526
1.301,-0.535,0.227,-13.306,-5.066,-13.611
1.255,-0.526,0.218,-11.597,-13.062,-13.306
1.195,-0.529,0.197,-10.254,-16.541,-13.855
1.147,-0.536,0.171,-9.766,-15.259,-15.503
1.105,-0.549,0.137,-10.864,-9.827,-17.578
1.086,-0.556,0.104,-13.184,-2.197,-20.020
1.066,-0.551,0.071,-16.541,6.897,-22.339
1.051,-0.530,0.029,-20.325,15.808,-24.597
1.041,-0.497,-0.007,-23.376,23.804,-27.466
1.064,-0.446,-0.030,-24.048,29.480,-30.640
1.108,-0.388,-0.037,-22.156,30.579,-33.447
1.134,-0.326,-0.038,-18.372,26.184,-35.034
1.144,-0.272,-0.031,-13.245,17.578,-34.668
1.138,-0.226,-0.016,-7.568,6.897,-32.043
1.086,-0.185,-0.019,-2.502,-2.991,-28.198
1.005,-0.158,-0.026,2.380,-8.606,-23.315
0.963,-0.140,0.002,6.165,-7.324,-18.188
0.932,-0.118,0.023,9.399,-2.136,-15.198
0.912,-0.120,0.038,11.597,5.188,-12.451
0.895,-0.125,0.061,11.597,13.733,-8.667
0.880,-0.114,0.083,10.254,20.935,-4.822
0.869,-0.124,0.077,9.033,25.208,-0.610
0.845,-0.151,0.038,5.920,27.222,4.028
0.831,-0.122,0.035,1.770,28.076,6.836
0.813,-0.142,-0.025,-0.061,25.452,10.620
0.810,-0.096,-0.027,-1.587,21.484,14.343
0.800,-0.081,-0.047,0.122,14.709,18.188
0.778,-0.078,-0.056,4.639,6.653,21.606
0.741,-0.089,-0.072,11.353,-0.549,24.597
0.717,-0.103,-0.075,18.372,-6.104,27.649
0.698,-0.118,-0.064,25.879,-9.766,30.945
0.671,-0.147,-0.052,31.433,-11.963,33.752
0.649,-0.183,-0.046,35.217,-12.817,35.095
0.637,-0.213,-0.048,36.804,-11.536,35.156
0.636,-0.238,-0.050,36.682,-8.789,34.058
0.641,-0.250,-0.055,35.278,-4.700,32.288
0.656,-0.251,-0.055,33.264,0.977,29.785
0.692,-0.252,-0.059,30.579,8.484,28.015
0.771,-0.255,-0.044,28.870,15.564,27.771
0.858,-0.233,-0.023,27.588,18.494,29.419
0.928,-0.221,-0.002,26.917,14.526,32.898
0.968,-0.210,0.011,27.283,4.639,37.354
0.964,-0.203,0.007,29.114,-8.484,41.199
0.926,-0.192,-0.010,31.250,-22.095,43.884
0.869,-0.194,-0.020,34.058,-32.410,44.861
0.810,-0.191,-0.032,36.987,-37.781,44.617
0.764,-0.203,-0.030,39.063,-38.025,43.152
0.755,-0.215,-0.026,40.222,-34.119,41.382

1.846,-0.668,0.285,-13.550,-30.457,64.148
1.843,-0.721,0.289,-11.780,-8.240,56.274
1.793,-0.774,0.282,-10.071,14.709,51.941
1.711,-0.830,0.265,-8.423,36.865,50.537
1.611,-0.894,0.248,-8.179,56.274,51.514
1.501,-0.951,0.241,-9.338,71.167,53.406
1.403,-1.011,0.254,-10.559,80.017,55.786
1.328,-1.070,0.279,-11.230,82.764,59.082
1.266,-1.121,0.309,-12.329,77.942,63.171
1.230,-1.151,0.351,-14.648,65.369,68.237
1.220,-1.180,0.364,-18.005,45.532,74.341
1.179,-1.212,0.352,-22.339,20.874,80.078
1.161,-1.215,0.346,-27.588,-3.601,84.473
1.176,-1.208,0.328,-31.128,-26.306,85.693
1.143,-1.183,0.302,-31.921,-45.776,81.909
1.084,-1.153,0.278,-29.846,-59.143,75.012
1.037,-1.140,0.260,-24.475,-63.904,68.115
0.990,-1.112,0.247,-17.090,-60.852,61.401
0.938,-1.096,0.231,-9.094,-51.941,53.650
0.878,-1.088,0.216,-0.916,-38.391,42.908
0.852,-1.035,0.229,5.798,-21.423,30.518
0.853,-1.004,0.282,10.193,-4.333,19.714
0.863,-0.950,0.275,12.878,9.216,11.292
0.850,-1.025,0.222,16.235,18.311,5.981
0.857,-0.914,0.315,15.747,28.442,-6.042
0.932,-0.972,0.318,14.954,30.090,-13.367
0.962,-0.938,0.355,12.634,29.236,-19.409
1.012,-0.948,0.411,10.864,24.292,-20.874
1.087,-0.970,0.437,9.521,15.625,-21.423
1.092,-0.948,0.458,6.470,3.906,-21.362
1.064,-0.953,0.439,2.747,-8.057,-17.334
1.088,-0.999,0.419,-0.244,-16.724,-13.428
1.079,-1.003,0.390,-2.563,-22.156,-13.733
1.076,-1.026,0.361,-3.357,-23.987,-14.160
1.093,-1.062,0.343,-4.028,-22.034,-14.404
1.123,-1.099,0.330,-3.723,-17.517,-15.381
1.150,-1.159,0.305,-2.686,-11.719,-16.235
1.132,-1.203,0.281,-2.686,-4.639,-15.686
1.094,-1.197,0.248,-3.601,4.639,-13.489
1.006,-1.130,0.200,-4.639,15.930,-9.888
0.936,-1.037,0.171,-4.944,29.968,-5.432
0.872,-0.957,0.151,-3.418,43.213,-3.418
0.833,-0.887,0.159,-1.465,53.345,-3.235
0.841,-0.831,0.177,0.244,58.777,-3.418
0.884,-0.781,0.216,1.892,57.556,-5.127
0.935,-0.735,0.246,2.808,49.133,-8.484
0.962,-0.688,0.275,3.845,35.034,-12.207
1.032,-0.675,0.299,5.920,17.822,-14.954
1.079,-0.677,0.306,7.141,-1.221,-15.869
1.066,-0.696,0.295,7.507,-19.836,-16.418
1.021,-0.713,0.266,6.958,-33.936,-18.127
0.975,-0.735,0.228,5.615,-40.100,-20.569
0.928,-0.744,0.197,3.540,-37.292,-23.987
0.879,-0.744,0.180,1.221,-26.672,-26.978
0.835,-0.751,0.167,-0.854,-10.803,-29.236
0.795,-0.766,0.147,-2.686,8.179,-32.776
0.760,-0.757,0.146,-3.906,30.029,-37.964
0.758,-0.752,0.156,-5.005,50.903,-43.030
0.797,-0.760,0.169,-5.981,66.589,-47.119
0.852,-0.779,0.186,-8.240,73.425,-49.072
0.877,-0.790,0.193,-12.146,69.397,-49.683
0.853,-0.812,0.196,-16.724,55.847,-51.147
0.767,-0.822,0.167,-21.667,36.743,-51.941
0.671,-0.839,0.120,-26.428,18.005,-51.025
0.632,-0.871,0.084,-30.151,3.418,-51.331
0.619,-0.847,0.049,-33.752,-7.019,-55.542
0.701,-0.789,0.073,-35.278,-13.550,-60.181
0.830,-0.737,0.115,-32.654,-20.752,-65.796
0.941,-0.695,0.134,-27.100,-31.006,-72.083
1.060,-0.670,0.147,-20.874,-41.138,-76.721
1.195,-0.661,0.137,-14.465,-47.302,-79.529
1.291,-0.653,0.128,-9.399,-47.729,-79.651
1.373,-0.644,0.126,-5.798,-42.664,-76.172
1.460,-0.645,0.136,-3.662,-33.081,-70.557
1.523,-0.638,0.143,-3.723,-22.034,-62.927
1.556,-0.646,0.127,-5.615,-10.010,-53.162
1.560,-0.631,0.105,-9.338,3.113,-43.152
1.575,-0.581,0.125,-12.817,15.991,-34.912
1.561,-0.530,0.145,-13.794,25.513,-27.710
1.553,-0.489,0.158,-12.817,30.396,-21.057
1.539,-0.458,0.170,-10.925,31.494,-14.893
1.497,-0.432,0.176,-8.606,27.954,-8.850
1.466,-0.414,0.178,-6.531,21.545,-3.296
1.440,-0.390,0.171,-5.554,12.695,2.075
1.397,-0.384,0.157,-4.944,3.235,7.080
1.355,-0.365,0.141,-4.761,-4.333,11.047
1.319,-0.347,0.121,-5.066,-8.362,14.343
1.273,-0.337,0.098,-6.714,-8.728,16.541
1.221,-0.321,0.071,-8.789,-4.944,17.090
1.197,-0.308,0.048,-10.986,2.197,15.686
1.186,-0.281,0.030,-13.489,11.780,12.878
1.191,-0.250,0.014,-15.015,21.301,10.010
1.190,-0.215,-0.009,-15.686,29.358,7.568
1.178,-0.185,-0.039,-15.381,35.645,5.127
1.193,-0.149,-0.055,-13.184,40.466,3.235
1.180,-0.108,-0.067,-9.338,41.565,2.258
1.154,-0.080,-0.089,-3.296,38.757,2.625
1.100,-0.054,-0.109,4.028,33.752,2.991
1.025,-0.032,-0.122,11.780,27.344,3.418
0.954,-0.022,-0.128,20.752,20.142,4.333
0.872,-0.020,-0.122,29.358,13.000,5.310
0.777,-0.005,-0.110,36.987,6.226,5.371
0.698,-0.014,-0.110,44.189,0.610,6.287
0.637,-0.011,-0.085,50.537,-3.174,7.751
0.580,-0.010,-0.058,55.420,-5.310,10.132
0.538,-0.020,-0.028,58.533,-6.348,13.733
0.515,-0.049,0.001,59.387,-6.348,17.822
0.489,-0.078,0.016,57.007,-5.371,21.545
0.456,-0.110,0.020,51.636,-2.686,24.780
0.434,-0.134,0.017,43.823,1.160,27.222
0.418,-0.155,0.016,34.912,6.470,28.015
0.416,-0.172,0.007,25.940,12.878,26.978
0.440,-0.171,-0.001,17.944,20.264,26.306
0.494,-0.172,-0.006,11.841,27.405,26.855
0.594,-0.170,-0.006,7.874,32.898,28.442
0.676,-0.179,0.012,6.653,33.142,29.724
0.739,-0.174,0.014,6.409,28.259,30.090
0.792,-0.171,0.010,6.958,19.897,29.114
0.805,-0.158,-0.010,8.179,9.949,28.381

1.627,-0.988,0.387,-22.583,62.622,20.630
1.789,-1.156,0.473,-22.583,58.533,22.583
1.842,-1.213,0.539,-25.024,41.199,29.602
1.780,-1.258,0.560,-23.499,14.282,35.400
1.639,-1.315,0.558,-17.517,-11.902,37.476
1.459,-1.376,0.531,-9.338,-32.593,36.743
1.268,-1.448,0.497,-1.770,-45.410,34.363
1.102,-1.518,0.467,3.540,-48.706,30.090
0.937,-1.588,0.404,5.127,-43.579,23.193
0.805,-1.559,0.347,1.465,-30.884,12.634
0.673,-1.532,0.272,-5.859,-12.756,2.136
0.621,-1.462,0.240,-13.855,10.925,-9.216
0.514,-1.367,0.155,-20.874,36.194,-20.874
0.614,-1.385,0.189,-26.306,64.331,-29.480
0.686,-1.367,0.138,-30.334,88.074,-36.682
0.746,-1.186,0.239,-35.767,106.262,-36.194
0.960,-1.189,0.232,-36.926,109.863,-25.757
0.925,-1.000,0.331,-36.926,105.591,-24.048
1.037,-0.969,0.333,-34.058,90.881,-22.522
1.032,-0.854,0.369,-30.334,69.824,-23.682
1.004,-0.782,0.370,-24.475,44.800,-21.240
1.014,-0.781,0.354,-16.113,22.766,-18.494
1.078,-0.865,0.341,-5.310,5.127,-19.348
1.126,-0.985,0.280,5.371,-9.216,-21.912
1.202,-1.074,0.285,14.160,-18.188,-22.949
1.288,-1.205,0.281,22.705,-23.254,-20.386
1.365,-1.343,0.290,30.029,-23.376,-15.503
1.413,-1.437,0.289,33.081,-19.043,-5.676
1.340,-1.351,0.309,32.104,-13.062,8.179
1.213,-1.204,0.313,30.396,-9.705,26.489
1.031,-1.134,0.280,31.006,-9.705,41.077
0.872,-1.104,0.254,31.921,-10.803,43.518
0.774,-1.083,0.233,31.921,-13.428,36.072
0.712,-1.064,0.212,30.273,-16.479,25.208
0.710,-1.017,0.203,27.344,-18.799,15.442
0.738,-0.955,0.194,24.780,-20.691,8.667
0.761,-0.914,0.118,22.888,-26.367,4.395
0.677,-0.853,0.165,20.691,-30.823,0.427
0.879,-0.805,0.134,20.691,-22.644,-3.357
0.670,-0.816,0.109,21.423,-17.273,-11.475
0.864,-0.822,0.188,20.508,-4.944,-11.475
0.903,-0.911,0.184,20.874,3.784,-12.817
0.887,-0.876,0.226,17.395,9.583,-17.944
0.935,-0.875,0.231,12.573,13.306,-19.226
0.911,-0.853,0.219,9.216,14.587,-20.752
0.922,-0.832,0.202,5.859,16.296,-22.583
0.932,-0.812,0.180,3.174,18.127,-25.085
0.953,-0.813,0.166,1.221,18.738,-27.954
0.973,-0.804,0.144,-1.038,17.456,-30.762
0.959,-0.779,0.120,-3.967,14.954,-32.471
0.962,-0.754,0.101,-6.531,12.329,-33.081
0.955,-0.735,0.081,-7.751,11.230,-33.142
0.997,-0.731,0.097,-7.751,10.742,-32.410
1.024,-0.714,0.101,-6.592,7.507,-33.020
1.072,-0.718,0.079,-5.432,2.197,-33.813
1.116,-0.735,0.057,-5.676,-1.770,-34.119
1.122,-0.689,0.060,-7.751,-4.700,-34.424
1.134,-0.651,0.045,-8.728,-7.568,-33.325
1.167,-0.629,0.026,-8.179,-8.850,-31.433
1.111,-0.588,-0.026,-7.141,-7.690,-28.870
1.165,-0.633,0.004,-5.676,-1.709,-26.123
1.278,-0.543,0.030,-3.601,2.502,-30.762
1.246,-0.490,0.051,-1.587,-0.977,-34.607
1.288,-0.509,0.072,2.014,-6.714,-29.541
1.259,-0.495,0.068,5.859,-14.526,-26.611
1.194,-0.489,0.068,8.606,-20.813,-24.963
1.154,-0.507,0.069,11.353,-24.475,-23.621
1.117,-0.523,0.065,13.306,-26.245,-23.437
1.077,-0.575,0.037,13.672,-26.550,-23.804
1.045,-0.597,0.042,12.146,-24.658,-26.367
0.999,-0.573,0.043,10.559,-23.193,-30.029
0.975,-0.568,0.008,8.911,-22.705,-32.104
0.958,-0.562,-0.016,6.714,-19.958,-35.217
0.936,-0.546,-0.026,5.371,-16.052,-39.063
0.933,-0.523,-0.033,5.676,-12.207,-42.969
0.935,-0.489,-0.050,7.324,-8.179,-48.462
0.965,-0.471,-0.055,11.230,-2.441,-55.725
1.021,-0.470,-0.038,18.127,3.906,-64.209
1.086,-0.484,-0.020,26.550,7.263,-72.510
1.139,-0.506,0.003,34.973,5.798,-78.308
1.177,-0.540,0.021,40.649,1.282,-80.505
1.229,-0.597,0.044,42.786,-4.639,-78.369
1.275,-0.644,0.071,38.330,-10.742,-71.350
1.243,-0.611,0.082,27.832,-17.517,-58.655
1.215,-0.582,0.072,15.808,-22.644,-41.382
1.179,-0.547,0.039,3.967,-23.193,-24.292
1.106,-0.494,0.013,-7.629,-16.663,-8.911
1.030,-0.431,-0.018,-17.273,-4.761,1.526
0.999,-0.365,-0.036,-23.560,10.925,7.385
0.983,-0.300,-0.047,-25.818,27.039,10.254
0.989,-0.249,-0.037,-25.208,40.283,12.634
1.017,-0.187,0.006,-20.813,47.607,14.343
1.032,-0.150,0.031,-13.794,45.776,17.761
1.024,-0.154,0.052,-5.859,36.804,22.461
0.997,-0.163,0.068,1.587,23.804,27.466
0.943,-0.184,0.064,7.568,8.728,32.654
0.870,-0.202,0.064,12.207,-5.127,37.659
0.780,-0.227,0.046,14.587,-16.052,42.542
0.708,-0.257,0.029,14.587,-22.827,46.509
0.647,-0.275,0.005,13.062,-24.475,48.035
0.600,-0.279,-0.012,10.376,-21.423,47.546
0.582,-0.277,-0.023,7.629,-14.343,46.143
0.601,-0.271,-0.031,5.127,-5.371,44.922
0.643,-0.260,-0.040,3.296,3.906,43.640
0.695,-0.240,-0.049,2.502,12.329,42.786
0.745,-0.207,-0.052,3.174,18.494,42.786
0.800,-0.180,-0.049,5.249,21.545,43.884
0.842,-0.164,-0.052,8.728,20.508,45.166
0.853,-0.156,-0.063,12.939,16.785,45.837
0.840,-0.143,-0.077,16.846,12.817,46.692
0.816,-0.138,-0.088,20.569,9.583,47.913
0.787,-0.141,-0.099,24.170,8.118,49.072
0.751,-0.149,-0.109,27.405,8.911,49.316
0.729,-0.158,-0.108,30.273,11.719,49.194
0.730,-0.171,-0.097,33.081,15.930,49.316
0.735,-0.185,-0.091,35.095,20.020,48.645
0.740,-0.201,-0.086,37.109,23.865,46.448
0.769,-0.219,-0.076,38.635,26.978,43.640
0.790,-0.229,-0.063,40.283,28.442,40.649

1.870,-0.400,0.497,-58.838,7.202,65.918
1.828,-0.551,0.517,-48.340,-4.822,72.021
1.773,-0.710,0.551,-43.396,-13.245,81.238
1.705,-0.791,0.560,-45.288,-18.005,91.797
1.590,-0.828,0.545,-49.255,-19.043,101.563
1.438,-0.836,0.536,-53.528,-15.930,106.995
1.292,-0.815,0.534,-56.091,-8.423,106.079
1.146,-0.807,0.525,-56.580,0.916,100.403
1.043,-0.836,0.506,-57.739,11.536,92.651
0.979,-0.872,0.490,-59.387,21.667,82.764
0.932,-0.884,0.496,-61.462,28.931,70.557
0.947,-0.881,0.568,-60.730,32.288,57.739
1.025,-0.929,0.647,-52.490,27.832,45.471
1.070,-1.036,0.710,-38.269,14.709,32.837
1.105,-1.188,0.761,-22.522,-3.906,21.790
1.123,-1.361,0.784,-9.460,-24.658,12.268
1.100,-1.516,0.752,-2.380,-44.739,3.845
1.036,-1.634,0.671,-3.113,-58.899,-5.066
0.962,-1.726,0.550,-11.108,-63.171,-15.381
0.888,-1.781,0.416,-25.513,-52.979,-25.879
0.835,-1.752,0.306,-43.762,-26.978,-35.095
0.840,-1.678,0.222,-60.242,10.132,-41.809
0.870,-1.559,0.183,-70.313,54.871,-44.373
0.912,-1.424,0.202,-70.984,102.112,-42.725
0.990,-1.274,0.258,-62.256,143.921,-38.147
1.061,-1.139,0.331,-46.448,174.316,-30.701
1.118,-1.060,0.405,-26.550,189.819,-20.447
1.123,-1.021,0.436,-6.836,187.866,-9.277
1.049,-0.984,0.442,8.179,172.119,0.000
0.961,-0.940,0.443,17.029,149.475,7.019
0.901,-0.902,0.459,20.264,125.000,12.024
0.892,-0.889,0.495,19.043,100.159,14.954
0.910,-0.902,0.525,15.930,75.012,15.198
0.928,-0.929,0.540,10.620,49.866,13.794
0.942,-0.914,0.540,1.770,28.137,13.245
0.978,-0.895,0.534,-7.629,10.620,13.611
1.010,-0.880,0.504,-14.587,-1.526,12.329
1.073,-0.870,0.492,-19.287,-7.568,7.812
1.158,-0.846,0.515,-21.790,-7.690,1.343
1.225,-0.834,0.524,-21.484,-5.005,-4.333
1.286,-0.849,0.508,-20.447,-0.305,-10.193
1.313,-0.896,0.468,-19.348,6.409,-15.991
1.303,-0.932,0.408,-18.982,16.724,-21.912
1.277,-0.953,0.332,-20.020,31.006,-27.161
1.256,-0.935,0.260,-21.912,48.401,-30.884
1.273,-0.889,0.222,-24.353,65.918,-32.227
1.300,-0.835,0.212,-24.963,77.942,-31.250
1.306,-0.782,0.210,-23.132,80.627,-29.053
1.297,-0.731,0.222,-18.799,73.914,-25.696
1.272,-0.704,0.240,-11.841,59.814,-22.034
1.239,-0.718,0.252,-2.258,39.185,-19.653
1.202,-0.758,0.270,6.531,15.320,-17.761
1.140,-0.798,0.284,11.719,-8.972,-14.221
1.059,-0.828,0.271,13.000,-31.555,-9.827
0.986,-0.843,0.249,12.085,-47.668,-7.446
0.911,-0.824,0.230,9.521,-54.871,-8.362
0.859,-0.809,0.219,7.629,-53.467,-13.489
0.852,-0.788,0.221,6.836,-44.861,-20.569
0.877,-0.767,0.234,6.104,-34.058,-27.039
0.927,-0.777,0.240,4.333,-23.987,-31.555
0.970,-0.764,0.241,2.014,-16.052,-35.034
1.009,-0.716,0.236,-0.977,-9.155,-37.720
1.062,-0.680,0.233,-1.465,-3.967,-40.283
1.101,-0.642,0.229,-1.648,-0.549,-42.542
1.134,-0.605,0.228,-0.977,0.549,-44.617
1.158,-0.593,0.225,0.061,-0.854,-46.082
1.173,-0.579,0.225,-0.427,-3.662,-46.692
1.171,-0.552,0.216,-2.747,-6.775,-46.265
1.157,-0.536,0.189,-5.432,-9.399,-45.959
1.150,-0.539,0.165,-9.338,-9.705,-46.204
1.152,-0.538,0.146,-14.404,-7.446,-45.471
1.175,-0.534,0.130,-20.935,-3.662,-43.518
1.238,-0.562,0.126,-28.931,0.671,-39.795
1.313,-0.582,0.124,-40.588,4.333,-33.325
1.381,-0.569,0.109,-54.810,6.897,-24.414
1.461,-0.520,0.119,-69.275,10.071,-12.817
1.538,-0.412,0.119,-80.994,13.306,-0.061
1.598,-0.281,0.098,-86.121,14.038,8.972
1.614,-0.176,0.074,-82.947,13.123,10.681
1.602,-0.107,0.062,-72.632,11.108,7.385
1.564,-0.079,0.054,-58.716,8.057,5.188
1.527,-0.076,0.048,-44.739,5.554,6.897
1.493,-0.097,0.047,-32.593,4.089,11.658
1.446,-0.106,0.052,-24.414,3.052,16.724
1.390,-0.094,0.055,-19.775,1.587,21.240
1.298,-0.071,0.031,-16.663,0.000,23.621
1.200,-0.040,0.006,-13.855,1.282,23.804
1.111,-0.012,-0.003,-11.414,6.714,22.461
1.092,-0.000,-0.009,-8.789,14.954,20.020
1.020,0.031,-0.033,-6.531,23.132,16.663
1.014,0.035,-0.054,-5.432,30.762,14.709
0.974,0.064,-0.061,-4.028,36.621,12.024
0.941,0.067,-0.090,-1.648,39.734,9.644
0.962,0.084,-0.083,1.343,41.260,7.202
0.890,0.139,-0.085,5.737,39.551,4.089
0.840,0.180,-0.090,12.634,36.560,4.089
0.792,0.199,-0.074,21.851,34.363,6.165
0.766,0.187,-0.051,32.166,32.166,8.606
0.723,0.170,-0.030,41.809,29.541,11.414
0.693,0.132,-0.018,49.622,26.001,16.235
0.662,0.084,-0.012,55.115,21.423,20.630
0.605,0.046,-0.020,58.044,16.663,23.132
0.548,0.008,-0.036,58.228,12.329,25.024
0.517,-0.037,-0.042,56.763,10.742,25.513
0.518,-0.074,-0.048,53.284,11.841,24.902
0.538,-0.077,-0.057,48.401,13.062,25.269
0.547,-0.055,-0.069,43.518,12.817,26.672
0.536,-0.029,-0.087,40.894,10.498,28.198
0.532,-0.020,-0.099,40.527,8.301,29.175
0.554,-0.008,-0.100,42.114,7.446,28.870
0.588,-0.002,-0.089,44.617,5.798,28.503
0.622,-0.006,-0.082,48.157,2.197,28.137
0.659,-0.011,-0.070,51.086,-3.235,27.893
0.696,-0.016,-0.061,52.795,-10.132,28.442
0.727,-0.028,-0.049,53.711,-18.860,28.809
0.746,-0.040,-0.040,53.955,-27.893,29.419
0.748,-0.048,-0.033,53.101,-36.194,30.823
0.733,-0.064,-0.035,52.002,-42.603,32.837
0.711,-0.080,-0.034,50.476,-46.997,34.119

1.406,-1.066,0.293,9.094,-29.480,37.659
1.434,-1.113,0.284,2.014,-25.940,36.682
1.475,-1.142,0.297,-9.338,-22.461,41.138
1.498,-1.095,0.319,-23.926,-20.691,47.729
1.420,-1.106,0.269,-38.025,-22.888,55.603
1.359,-1.093,0.341,-47.302,-23.376,59.631
1.283,-1.090,0.318,-51.636,-25.269,57.495
1.174,-1.131,0.303,-51.208,-26.428,53.101
1.118,-1.159,0.323,-50.293,-24.353,45.776
1.034,-1.204,0.304,-45.410,-22.949,35.706
0.968,-1.217,0.303,-40.100,-18.921,24.048
0.910,-1.248,0.280,-34.668,-13.550,12.634
0.851,-1.279,0.244,-30.090,-7.629,2.625
0.785,-1.286,0.206,-27.039,-0.183,-6.042
0.738,-1.295,0.171,-25.269,8.972,-13.855
0.724,-1.315,0.161,-23.865,19.958,-20.569
0.740,-1.350,0.200,-21.729,31.799,-24.780
0.785,-1.398,0.245,-16.724,41.748,-26.733
0.860,-1.440,0.296,-12.695,47.913,-26.672
0.936,-1.470,0.331,-12.024,47.729,-23.560
0.988,-1.452,0.381,-13.306,41.687,-18.799
1.014,-1.430,0.422,-14.587,32.166,-13.428
1.019,-1.369,0.441,-16.113,21.545,-8.179
1.003,-1.299,0.446,-17.639,11.536,-2.686
1.012,-1.286,0.466,-19.043,3.296,4.150
0.925,-1.314,0.370,-19.043,-0.610,8.545
0.846,-1.242,0.460,-20.142,5.066,9.399
0.915,-1.224,0.447,-18.616,9.705,11.108
0.923,-1.263,0.414,-16.296,14.404,10.681
0.880,-1.258,0.394,-18.372,21.240,7.935
0.888,-1.258,0.383,-20.081,29.541,5.310
0.944,-1.218,0.404,-21.484,36.865,4.211
0.972,-1.228,0.347,-21.423,39.490,6.897
1.016,-1.165,0.372,-21.912,41.626,9.399
1.090,-1.127,0.369,-19.470,39.612,10.803
1.116,-1.095,0.388,-15.686,34.790,9.705
1.132,-1.066,0.408,-11.780,27.771,8.606
1.094,-1.063,0.375,-8.362,19.531,7.629
1.000,-1.075,0.311,-6.714,14.526,5.615
0.955,-1.083,0.255,-9.155,17.456,1.892
0.912,-1.026,0.188,-13.611,25.940,-4.272
0.860,-0.914,0.141,-19.104,38.391,-10.315
0.906,-0.859,0.144,-22.034,52.917,-13.245
1.001,-0.823,0.181,-19.775,63.599,-15.747
1.079,-0.788,0.237,-14.709,65.613,-18.250
1.153,-0.784,0.284,-8.789,58.594,-18.372
1.164,-0.802,0.299,-2.197,43.579,-17.273
1.117,-0.841,0.288,2.625,26.062,-16.602
1.019,-0.866,0.260,3.906,10.742,-17.090
0.909,-0.870,0.226,3.235,1.831,-18.921
0.798,-0.868,0.190,1.709,1.038,-22.949
0.730,-0.888,0.167,-1.282,7.935,-28.137
0.707,-0.905,0.156,-6.042,19.409,-33.203
0.686,-0.925,0.127,-12.390,31.616,-38.147
0.698,-0.948,0.106,-18.494,42.908,-44.067
0.739,-0.991,0.085,-24.719,52.246,-50.293
0.796,-1.016,0.061,-30.701,57.007,-56.091
0.882,-1.010,0.026,-35.400,56.091,-61.707
0.995,-0.964,-0.004,-36.865,50.720,-67.871
1.092,-0.897,-0.034,-33.936,43.030,-73.364
1.191,-0.837,-0.059,-27.527,37.292,-76.538
1.286,-0.771,-0.073,-20.569,36.743,-75.623
1.341,-0.708,-0.072,-14.648,41.992,-71.350
1.374,-0.652,-0.051,-10.620,51.514,-63.477
1.407,-0.607,-0.031,-7.690,61.707,-52.856
1.421,-0.560,-0.004,-6.104,69.275,-41.687
1.411,-0.523,0.015,-5.005,71.655,-32.471
1.393,-0.489,0.030,-4.089,68.420,-24.780
1.372,-0.446,0.035,-4.395,60.303,-17.639
1.346,-0.393,0.030,-5.127,47.913,-11.353
1.321,-0.351,0.017,-5.493,33.813,-6.226
1.294,-0.301,0.011,-5.554,20.386,-2.991
1.266,-0.258,0.010,-4.761,8.850,-0.854
1.271,-0.257,0.021,-3.357,1.038,1.465
1.290,-0.251,0.032,-4.395,-3.418,5.920
1.307,-0.245,0.030,-7.263,-5.981,13.123
1.329,-0.238,0.019,-10.437,-7.019,21.667
1.323,-0.234,-0.003,-13.977,-7.263,29.236
1.298,-0.223,-0.037,-16.846,-6.348,34.241
1.274,-0.206,-0.070,-18.005,-4.272,37.903
1.256,-0.178,-0.103,-17.334,-1.221,40.466
1.230,-0.148,-0.133,-13.794,1.038,42.114
1.217,-0.124,-0.157,-8.118,2.563,43.823
1.196,-0.110,-0.178,-0.610,2.258,45.593
1.173,-0.096,-0.183,7.874,0.549,46.997
1.153,-0.098,-0.187,16.907,-2.197,47.791
1.144,-0.103,-0.193,24.658,-5.920,48.462
1.126,-0.073,-0.186,31.067,-11.414,48.462
1.095,-0.022,-0.173,37.537,-19.226,47.729
1.054,0.023,-0.153,46.753,-28.076,45.715
1.018,0.049,-0.121,57.922,-35.950,42.664
0.988,0.037,-0.082,71.045,-42.847,38.757
0.958,-0.014,-0.042,83.008,-49.072,34.790
0.927,-0.072,0.004,90.881,-54.138,31.677
0.872,-0.122,0.038,93.506,-58.228,31.372
0.812,-0.149,0.038,91.187,-60.364,35.034
0.766,-0.162,0.055,85.693,-59.753,42.664
0.701,-0.158,0.060,77.698,-56.946,51.086
0.628,-0.137,0.052,68.237,-52.307,56.946
0.555,-0.104,0.056,59.814,-45.837,60.059
0.497,-0.074,0.062,53.894,-39.307,60.669
0.447,-0.041,0.077,49.866,-33.386,59.143
0.404,-0.026,0.093,47.424,-28.137,56.702
0.360,-0.031,0.095,45.044,-24.353,54.138
0.330,-0.046,0.087,41.382,-21.118,51.636
0.307,-0.047,0.087,36.926,-18.066,49.194
0.288,-0.047,0.082,31.982,-15.137,47.180
0.275,-0.054,0.074,26.855,-12.268,44.739
0.275,-0.073,0.062,22.339,-9.216,40.161
0.288,-0.091,0.048,17.944,-5.676,33.752
0.334,-0.090,0.043,13.000,-1.404,27.039
0.405,-0.086,0.042,8.667,1.038,20.874
0.508,-0.101,0.042,5.432,0.854,14.771
0.622,-0.114,0.042,3.174,-2.319,9.094
0.722,-0.105,0.042,1.587,-8.484,4.761
0.792,-0.088,0.038,1.404,-17.700,2.075
0.851,-0.087,0.042,2.869,-28.015,1.282
0.890,-0.109,0.046,5.920,-37.903,1.282
0.897,-0.137,0.040,9.521,-45.288,2.319

1.151,-1.123,0.603,-3.174,66.895,2.930
1.131,-1.236,0.622,-2.869,57.129,-3.540
1.120,-1.297,0.623,-3.052,42.358,-9.583
1.099,-1.352,0.595,-1.404,25.391,-15.808
1.043,-1.398,0.554,1.343,8.362,-20.630
1.020,-1.480,0.537,3.784,-4.395,-22.278
0.975,-1.530,0.524,2.441,-11.719,-17.944
0.865,-1.516,0.504,-3.357,-15.808,-9.827
0.798,-1.512,0.512,-8.179,-15.625,-2.075
0.774,-1.502,0.549,-8.911,-13.428,-0.427
0.672,-1.507,0.531,-8.301,-13.184,-3.906
0.596,-1.534,0.503,-9.521,-13.245,-8.484
0.570,-1.542,0.455,-13.184,-12.329,-12.207
0.553,-1.484,0.403,-19.653,-10.620,-16.113
0.559,-1.409,0.358,-26.794,-8.911,-21.545
0.609,-1.313,0.331,-31.616,-5.615,-28.931
0.718,-1.215,0.355,-32.532,-1.892,-37.354
0.859,-1.125,0.425,-28.198,0.488,-44.800
1.023,-1.045,0.500,-19.287,-0.488,-48.767
1.144,-1.004,0.560,-7.080,-6.287,-49.683
1.223,-0.991,0.594,4.883,-16.174,-48.401
1.304,-1.009,0.632,15.137,-28.076,-45.959
1.373,-1.056,0.671,22.888,-39.551,-42.664
1.399,-1.113,0.683,26.733,-49.194,-40.283
1.391,-1.180,0.667,26.306,-54.626,-39.368
1.377,-1.251,0.654,22.827,-52.490,-39.490
1.350,-1.294,0.642,17.700,-42.480,-40.222
1.320,-1.305,0.626,11.536,-26.978,-41.077
1.270,-1.325,0.603,4.272,-7.507,-42.297
1.227,-1.330,0.573,-4.761,14.954,-43.213
1.187,-1.339,0.549,-13.916,37.964,-44.006
1.167,-1.339,0.512,-22.339,59.326,-45.837
1.148,-1.302,0.462,-29.968,77.576,-48.218
1.148,-1.249,0.412,-34.607,90.881,-49.622
1.171,-1.187,0.376,-35.156,98.694,-49.316
1.192,-1.130,0.358,-32.349,98.083,-47.302
1.195,-1.085,0.347,-25.940,88.501,-44.067
1.186,-1.049,0.346,-17.029,72.205,-40.405
1.145,-1.017,0.346,-8.179,52.551,-36.621
1.085,-1.004,0.347,0.122,33.386,-34.180
1.003,-0.993,0.333,6.775,18.372,-33.325
0.920,-0.974,0.323,9.827,10.376,-34.485
0.855,-0.951,0.312,9.888,10.437,-38.086
0.831,-0.925,0.312,7.202,17.212,-43.213
0.872,-0.908,0.327,2.869,27.344,-48.401
0.897,-0.894,0.315,-2.930,36.133,-52.734
0.935,-0.854,0.283,-8.728,43.152,-55.725
0.971,-0.775,0.251,-13.977,48.340,-57.861
1.006,-0.691,0.232,-17.090,50.903,-60.486
1.089,-0.621,0.245,-16.846,50.537,-62.073
1.186,-0.564,0.266,-14.343,45.288,-60.730
1.258,-0.525,0.272,-11.292,33.508,-57.373
1.302,-0.512,0.248,-8.240,16.968,-51.941
1.267,-0.500,0.195,-6.592,-1.160,-46.570
1.200,-0.502,0.137,-5.371,-15.808,-42.603
1.141,-0.534,0.083,-4.395,-24.719,-40.466
1.078,-0.546,0.044,-4.639,-26.306,-41.016
1.080,-0.524,0.016,-5.737,-20.020,-43.274
1.130,-0.499,0.011,-7.141,-9.033,-45.715
1.207,-0.464,0.007,-8.484,2.991,-47.729
1.296,-0.410,0.009,-9.338,13.306,-48.096
1.381,-0.361,-0.001,-9.583,19.226,-46.143
1.450,-0.325,-0.023,-8.301,19.958,-42.603
1.491,-0.289,-0.050,-6.165,16.235,-37.964
1.510,-0.234,-0.063,-3.357,8.850,-31.982
1.502,-0.150,-0.038,1.831,-0.244,-24.597
1.464,-0.100,-0.006,10.376,-9.644,-16.479
1.392,-0.067,0.024,20.325,-17.822,-8.423
1.299,-0.062,0.045,29.419,-23.010,-1.831
1.179,-0.078,0.046,36.743,-24.292,3.296
1.079,-0.101,0.045,40.405,-20.569,6.592
1.010,-0.120,0.041,40.710,-13.245,8.240
0.949,-0.130,0.030,37.781,-4.517,7.935
0.866,-0.117,-0.004,33.447,4.578,6.042
0.855,-0.091,-0.002,28.625,13.733,5.249
0.819,-0.026,-0.002,26.245,19.958,6.409
0.783,0.008,0.034,26.306,23.804,10.315
0.827,0.042,0.058,29.480,24.536,15.747
0.759,0.058,0.104,33.508,19.714,22.339
0.802,0.051,0.141,38.513,11.597,29.419
0.677,0.065,0.164,43.152,2.563,34.485
0.659,-0.009,0.207,46.631,-3.906,43.945
0.614,-0.115,0.141,46.204,-10.986,53.955
0.553,-0.167,0.172,40.771,-13.123,60.730
0.521,-0.256,0.114,32.593,-15.381,64.636
0.469,-0.290,0.078,22.522,-13.977,64.026
0.438,-0.319,0.038,13.367,-10.681,60.974
0.432,-0.330,-0.014,6.104,-6.042,55.908
0.446,-0.336,-0.051,2.441,0.366,50.476
0.489,-0.325,-0.069,2.808,8.057,46.326
0.535,-0.305,-0.071,6.592,15.503,43.152
0.580,-0.296,-0.071,13.184,22.461,40.771
0.645,-0.301,-0.062,21.118,28.137,38.025
0.733,-0.313,-0.037,28.870,30.701,34.790
0.816,-0.329,-0.016,34.912,29.114,31.677
0.853,-0.344,-0.011,39.368,22.705,28.503
0.873,-0.372,-0.008,42.114,14.893,25.696
0.884,-0.381,-0.009,41.809,7.263,24.048
0.869,-0.383,-0.013,39.001,0.366,23.743
0.843,-0.377,-0.017,33.752,-4.395,24.353
0.810,-0.357,-0.028,27.161,-7.019,25.330
0.771,-0.341,-0.041,21.057,-7.019,25.146
0.746,-0.325,-0.046,16.174,-4.639,23.071
0.731,-0.296,-0.043,13.062,-0.488,19.287
0.719,-0.268,-0.036,11.963,3.662,14.282
0.721,-0.247,-0.028,12.207,8.118,8.911
0.745,-0.233,-0.018,12.268,11.963,4.028
0.773,-0.224,-0.007,13.062,13.489,0.427
0.798,-0.209,0.003,13.245,12.451,-1.892
0.815,-0.189,0.022,13.000,9.094,-2.380
0.831,-0.182,0.030,12.451,3.540,-1.587
0.841,-0.177,0.039,10.620,-2.380,0.061
0.826,-0.164,0.042,8.789,-7.812,2.747
0.792,-0.148,0.040,7.080,-12.329,5.127
0.748,-0.145,0.034,5.493,-14.404,5.859
0.737,-0.153,0.031,4.028,-13.550,4.456
0.729,-0.151,0.035,2.869,-11.047,1.770
0.724,-0.138,0.036,1.282,-8.484,-0.610
0.714,-0.138,0.037,-0.183,-5.798,-2.502

1.014,-1.427,0.484,29.541,86.853,-49.622
1.147,-1.487,0.553,12.878,93.689,-42.786
1.280,-1.527,0.624,-0.305,89.111,-34.729
1.345,-1.541,0.676,-10.193,72.876,-27.405
1.343,-1.515,0.676,-15.259,48.340,-22.888
1.277,-1.497,0.623,-15.503,21.240,-20.203
1.173,-1.482,0.526,-13.245,-3.357,-17.517
1.057,-1.452,0.441,-10.803,-22.278,-14.465
0.941,-1.435,0.380,-5.981,-34.241,-11.841
0.837,-1.427,0.337,1.892,-38.391,-10.498
0.753,-1.414,0.305,8.606,-35.889,-9.827
0.692,-1.411,0.284,11.902,-29.480,-8.179
0.682,-1.450,0.273,11.108,-20.386,-4.639
0.758,-1.490,0.298,8.301,-9.827,-2.014
0.825,-1.552,0.270,6.775,-1.953,-0.183
0.970,-1.520,0.421,6.165,4.395,1.160
1.119,-1.497,0.471,8.301,0.671,6.287
1.070,-1.425,0.478,11.780,-9.094,13.794
1.071,-1.399,0.555,11.353,-17.334,22.278
1.054,-1.297,0.585,9.888,-26.489,27.344
0.928,-1.276,0.543,6.958,-35.583,35.278
0.795,-1.206,0.516,1.587,-38.086,42.908
0.754,-1.197,0.450,-2.991,-31.982,45.471
0.684,-1.158,0.436,-7.080,-17.456,34.546
0.715,-1.075,0.452,-12.878,0.305,16.663
0.732,-1.080,0.415,-18.677,16.479,3.601
0.871,-1.100,0.423,-26.001,34.180,-3.967
0.965,-1.039,0.411,-31.616,49.316,-11.658
1.067,-0.990,0.391,-35.706,61.707,-18.738
1.175,-0.896,0.357,-38.879,70.740,-25.085
1.255,-0.794,0.371,-40.466,73.853,-28.137
1.335,-0.732,0.388,-36.377,67.505,-28.992
1.352,-0.706,0.383,-28.503,52.429,-30.884
1.318,-0.699,0.373,-20.264,34.729,-33.386
1.214,-0.694,0.344,-12.756,17.395,-35.706
1.096,-0.718,0.308,-6.714,5.005,-37.842
1.012,-0.754,0.274,-4.761,0.610,-39.307
0.955,-0.735,0.228,-7.385,2.441,-41.138
0.912,-0.677,0.180,-12.207,8.728,-45.654
0.947,-0.620,0.155,-15.381,18.677,-52.551
1.026,-0.575,0.180,-15.503,28.748,-59.509
1.066,-0.560,0.201,-12.390,33.691,-64.514
1.058,-0.585,0.173,-7.996,35.034,-67.993
1.005,-0.613,0.126,-4.395,36.987,-72.266
0.984,-0.635,0.072,-0.305,42.419,-78.735
0.995,-0.604,0.038,3.845,50.842,-86.548
1.021,-0.534,0.035,9.583,59.998,-94.666
1.084,-0.475,0.055,18.494,67.688,-100.647
1.154,-0.433,0.107,29.602,71.411,-103.882
1.240,-0.431,0.174,41.870,70.007,-104.736
1.320,-0.465,0.234,53.345,63.477,-101.929
1.362,-0.522,0.276,59.326,52.856,-94.421
1.383,-0.553,0.292,58.044,40.833,-82.886
1.389,-0.601,0.269,51.575,30.212,-70.557
1.396,-0.661,0.222,40.161,23.254,-59.998
1.401,-0.682,0.167,24.170,20.569,-51.147
1.413,-0.654,0.098,6.653,21.301,-41.748
1.424,-0.587,0.052,-8.240,24.231,-32.104
1.430,-0.511,0.002,-17.273,28.625,-23.987
1.459,-0.457,-0.040,-19.592,33.752,-16.846
1.503,-0.408,-0.048,-15.076,37.415,-10.620
1.549,-0.371,-0.032,-5.981,37.537,-4.883
1.566,-0.370,-0.029,5.615,33.081,0.549
1.546,-0.406,-0.052,15.869,25.085,6.775
1.497,-0.453,-0.096,21.973,16.968,12.939
1.416,-0.488,-0.149,22.339,10.681,18.860
1.330,-0.492,-0.204,18.372,7.080,22.888
1.254,-0.462,-0.256,12.268,6.592,25.146
1.197,-0.423,-0.297,6.775,7.996,26.855
1.157,-0.380,-0.332,4.150,9.338,27.954
1.128,-0.332,-0.354,4.700,9.766,28.442
1.108,-0.293,-0.358,8.179,8.118,28.625
1.083,-0.261,-0.346,14.832,4.211,27.954
1.077,-0.225,-0.293,23.804,-0.305,26.733
1.093,-0.201,-0.203,34.607,-5.615,25.208
1.103,-0.207,-0.126,46.570,-13.733,22.644
1.071,-0.213,-0.077,56.824,-24.902,18.616
0.996,-0.223,-0.044,62.866,-36.255,15.747
0.924,-0.246,-0.022,65.186,-45.227,14.343
0.878,-0.262,-0.020,64.148,-50.537,13.733
0.813,-0.260,-0.021,59.570,-51.636,13.123
0.722,-0.228,-0.019,52.490,-48.401,12.756
0.677,-0.189,-0.006,45.288,-41.992,13.916
0.645,-0.148,0.002,39.063,-33.997,15.381
0.615,-0.092,0.027,34.912,-25.269,15.503
0.573,-0.028,0.076,32.837,-15.991,14.771
0.553,-0.004,0.083,33.325,-9.399,14.343
