aX,aY,aZ,gX,gY,gZ
0.538,-1.345,0.752,16.541,5.127,8.484
0.506,-1.358,0.716,9.705,-11.169,10.559
0.472,-1.365,0.684,3.235,-23.560,11.353
0.440,-1.349,0.660,-2.014,-30.762,10.986
0.409,-1.331,0.644,-5.188,-32.837,10.315
0.370,-1.311,0.623,-6.104,-30.823,9.521
0.350,-1.326,0.621,-4.333,-24.292,10.254
0.349,-1.330,0.618,-1.099,-15.381,10.681
0.351,-1.329,0.628,4.028,-5.798,10.742
0.363,-1.330,0.645,10.986,3.174,10.986
0.380,-1.332,0.661,18.738,10.803,11.658
0.406,-1.346,0.681,26.123,15.991,12.085
0.430,-1.366,0.690,32.349,18.433,11.353
0.441,-1.388,0.690,35.583,18.555,9.521
0.437,-1.424,0.687,35.767,16.418,6.836
0.416,-1.449,0.676,32.593,12.695,4.150
0.391,-1.451,0.654,26.306,8.484,1.770
0.367,-1.433,0.629,19.409,4.211,-0.916
0.342,-1.405,0.607,13.123,0.916,-3.845
0.325,-1.365,0.585,8.789,-1.770,-7.080
0.301,-1.327,0.559,7.080,-4.639,-10.498
0.281,-1.296,0.535,7.385,-6.897,-13.855
0.264,-1.278,0.514,9.705,-8.118,-16.785
0.261,-1.306,0.505,14.160,-8.179,-18.738
0.256,-1.329,0.507,18.799,-7.568,-19.348
0.243,-1.334,0.496,22.339,-7.568,-19.348
0.233,-1.348,0.477,25.513,-6.897,-18.738
0.222,-1.347,0.464,28.076,-4.150,-18.433
0.208,-1.344,0.459,29.785,-0.427,-18.799
0.195,-1.343,0.449,30.640,4.272,-20.203
0.186,-1.340,0.441,30.640,9.827,-21.912
0.181,-1.340,0.433,30.212,15.625,-23.987
0.171,-1.333,0.423,29.785,21.118,-25.879
0.175,-1.323,0.424,29.602,25.818,-27.832
0.171,-1.297,0.411,29.907,29.663,-30.090
0.160,-1.270,0.393,31.860,32.959,-32.166
0.164,-1.251,0.390,34.363,36.865,-34.546
0.171,-1.237,0.385,37.476,39.734,-37.598
0.189,-1.234,0.389,41.260,41.748,-40.710
0.209,-1.220,0.391,44.373,41.931,-44.128
0.228,-1.212,0.393,46.631,40.955,-46.326
0.249,-1.189,0.391,48.035,38.086,-47.302
0.264,-1.158,0.380,48.218,34.241,-46.814
0.270,-1.126,0.369,48.340,29.663,-45.654
0.269,-1.089,0.355,47.546,25.391,-43.640
0.289,-1.059,0.394,46.204,21.179,-40.894
0.351,-1.033,0.405,43.518,13.123,-38.879
0.341,-1.002,0.371,40.283,2.197,-37.170
0.253,-0.970,0.299,37.537,-4.395,-34.668
0.197,-0.962,0.303,36.987,-3.662,-31.982
0.174,-0.951,0.324,37.170,-0.366,-29.053
0.172,-0.935,0.322,36.438,2.625,-25.879
0.186,-0.932,0.316,35.156,5.859,-23.682
0.185,-0.910,0.306,33.752,8.118,-22.827
0.174,-0.878,0.304,31.799,10.559,-21.912
0.172,-0.843,0.302,29.236,12.085,-21.240
0.171,-0.802,0.289,26.428,13.306,-20.630
0.169,-0.765,0.278,23.376,14.771,-20.081
0.167,-0.730,0.262,21.118,16.907,-19.714
0.162,-0.703,0.248,19.043,19.714,-18.982
0.161,-0.677,0.236,16.785,23.315,-17.639
0.165,-0.660,0.229,15.137,27.222,-15.930
0.174,-0.647,0.230,13.916,31.128,-13.672
0.184,-0.634,0.233,12.451,33.691,-10.742
0.197,-0.616,0.235,11.719,34.973,-7.263
0.207,-0.594,0.234,10.742,34.851,-3.662
0.214,-0.572,0.232,9.094,33.386,-0.244
0.219,-0.552,0.232,7.629,31.189,3.784
0.219,-0.540,0.230,6.042,27.710,7.751
0.211,-0.526,0.225,4.395,23.987,11.230
0.200,-0.516,0.220,3.357,20.813,14.343
0.195,-0.511,0.224,2.075,18.066,17.395
0.194,-0.510,0.225,1.160,14.954,20.020
0.190,-0.513,0.225,0.488,11.597,22.583
0.183,-0.515,0.226,-0.427,7.996,25.024
0.171,-0.518,0.224,-1.343,4.028,27.344
0.156,-0.522,0.220,-2.197,0.671,29.358
0.142,-0.526,0.217,-3.479,-1.770,31.128
0.130,-0.536,0.212,-4.639,-3.784,32.471
0.119,-0.554,0.208,-5.920,-5.371,33.447
0.106,-0.571,0.208,-6.836,-6.409,33.630
0.093,-0.583,0.203,-7.507,-7.141,33.630
0.082,-0.598,0.199,-7.629,-7.629,33.020
0.070,-0.618,0.200,-7.874,-7.446,32.410
0.065,-0.645,0.193,-7.935,-7.568,31.372
0.059,-0.677,0.187,-7.812,-7.385,29.907
0.056,-0.712,0.192,-7.385,-7.385,27.832
0.055,-0.750,0.194,-6.653,-8.057,25.330
0.053,-0.791,0.200,-5.188,-8.850,22.400
0.055,-0.840,0.214,-3.357,-9.705,19.043
0.032,-0.889,0.238,-0.854,-10.986,15.625
0.007,-0.933,0.253,1.709,-10.620,11.963
0.005,-0.969,0.258,3.479,-8.545,8.179
0.016,-0.996,0.265,4.822,-4.639,4.333
0.036,-1.014,0.270,5.188,0.610,0.366
0.073,-1.030,0.272,4.272,6.531,-3.174
0.127,-1.032,0.270,2.625,11.841,-6.653
0.173,-1.030,0.271,0.061,15.137,-10.315
0.209,-1.017,0.277,-2.930,15.747,-13.245
0.241,-1.002,0.269,-4.944,13.367,-15.686
0.255,-0.999,0.270,-5.920,9.277,-16.846
0.262,-0.980,0.267,-6.287,4.211,-16.968
0.272,-0.957,0.273,-5.615,-0.427,-16.235
0.274,-0.940,0.270,-4.700,-4.578,-14.709
0.270,-0.934,0.266,-3.174,-8.057,-12.634
0.265,-0.930,0.262,-1.953,-10.071,-10.071
0.258,-0.931,0.257,-1.404,-11.353,-7.263
0.247,-0.942,0.253,-1.099,-11.414,-4.761
0.235,-0.961,0.255,-1.160,-10.559,-2.869
0.223,-0.974,0.256,-1.587,-8.850,-1.221
0.215,-0.983,0.258,-2.625,-6.348,0.732
0.208,-0.990,0.256,-3.174,-3.601,2.319
0.204,-0.996,0.258,-4.150,-0.610,3.662
0.202,-0.999,0.255,-5.493,2.502,4.700
0.205,-1.001,0.254,-6.287,4.944,5.249
0.214,-1.001,0.257,-6.897,6.653,5.493
0.221,-1.002,0.258,-7.446,7.141,5.554
0.230,-1.003,0.257,-6.836,6.409,5.432
0.236,-1.003,0.259,-6.470,4.883,5.676

0.180,-3.303,2.230,45.837,340.271,62.256
0.625,-2.308,2.142,-46.326,385.071,63.354
2.427,-1.392,1.714,-89.600,287.109,42.664
2.541,-1.800,1.280,-68.298,80.322,41.565
1.250,-1.761,0.373,-39.246,-133.118,36.255
0.223,-1.687,-0.248,-33.264,-225.037,47.485
-0.126,-1.742,-0.662,-38.452,-198.425,64.758
-0.099,-1.669,-0.672,-40.466,-121.582,66.650
-0.149,-1.719,-0.448,-34.485,-51.941,55.176
-0.191,-1.857,-0.038,-25.818,0.183,36.316
0.030,-1.806,0.342,-29.785,33.630,15.930
0.400,-1.535,0.514,-36.438,32.471,-2.197
0.414,-1.305,0.434,-37.964,0.183,-13.000
0.208,-1.243,0.320,-31.189,-30.090,-16.479
0.042,-1.256,0.201,-23.865,-35.461,-16.479
0.025,-1.273,0.195,-18.433,-27.588,-16.418
0.041,-1.209,0.190,-15.808,-16.785,-17.944
0.098,-1.189,0.173,-12.451,-8.606,-16.602
0.138,-1.199,0.159,-8.301,-3.235,-14.160
0.187,-1.187,0.151,-4.639,3.601,-13.977
0.265,-1.169,0.144,-2.319,11.902,-15.686
0.341,-1.113,0.135,0.732,18.921,-18.677
0.437,-1.118,0.208,5.493,23.682,-21.423
0.451,-1.080,0.225,10.803,22.644,-25.513
0.496,-1.090,0.270,16.357,16.235,-27.222
0.465,-1.080,0.271,20.935,5.127,-29.907
0.427,-1.089,0.237,24.902,-3.784,-32.288
0.351,-1.075,0.177,28.076,-10.315,-34.851
0.268,-1.058,0.150,31.494,-13.611,-37.170
0.191,-1.036,0.148,35.217,-14.709,-39.063
0.132,-0.996,0.130,38.391,-14.099,-39.734
0.073,-0.957,0.107,42.908,-13.000,-39.856
0.027,-0.926,0.092,47.668,-10.071,-38.513
-0.004,-0.913,0.077,52.856,-4.456,-36.987
0.019,-0.948,0.098,58.899,3.052,-35.645
0.082,-1.015,0.119,64.697,8.118,-35.217
0.141,-1.086,0.134,68.848,9.277,-36.865
0.190,-1.151,0.148,70.313,8.179,-39.307
0.242,-1.199,0.156,69.519,5.005,-41.748
0.298,-1.228,0.171,67.566,-0.427,-43.213
0.332,-1.243,0.180,63.965,-8.423,-42.603
0.327,-1.250,0.193,57.495,-17.822,-39.185
0.303,-1.243,0.228,49.805,-25.269,-33.875
0.277,-1.242,0.247,40.466,-32.043,-28.809
0.264,-1.268,0.239,31.372,-38.330,-23.865
0.280,-1.295,0.197,22.949,-44.922,-18.311
0.292,-1.307,0.190,13.794,-51.880,-13.550
0.256,-1.327,0.197,5.066,-57.861,-9.338
0.191,-1.331,0.196,-2.380,-61.157,-6.348
0.142,-1.308,0.191,-9.827,-59.143,-5.249
0.127,-1.278,0.186,-16.418,-51.331,-6.409
0.120,-1.235,0.174,-21.606,-39.795,-10.132
0.107,-1.175,0.154,-24.841,-26.184,-15.564
0.108,-1.141,0.152,-27.100,-10.925,-20.508
0.148,-1.128,0.155,-28.870,2.197,-24.902
0.177,-1.081,0.136,-32.043,13.306,-29.602
0.198,-1.025,0.138,-34.363,23.315,-32.410
0.217,-0.983,0.133,-35.522,31.372,-33.447
0.233,-0.935,0.128,-35.583,37.659,-33.997
0.244,-0.889,0.131,-34.668,42.603,-33.386
0.256,-0.853,0.133,-32.593,45.959,-31.616
0.268,-0.826,0.130,-30.273,48.035,-28.931
0.276,-0.802,0.129,-27.832,48.218,-25.635
0.282,-0.782,0.128,-25.024,46.570,-21.851
0.287,-0.758,0.129,-22.156,43.823,-17.273
0.290,-0.736,0.136,-19.714,39.734,-12.329
0.292,-0.721,0.140,-16.907,34.058,-7.507
0.287,-0.711,0.143,-14.160,27.527,-3.052
0.281,-0.705,0.145,-11.536,20.447,0.732
0.269,-0.701,0.144,-8.911,13.611,4.395
0.252,-0.693,0.146,-7.019,7.141,7.690
0.239,-0.679,0.149,-5.249,1.648,10.681
0.224,-0.669,0.152,-3.906,-2.686,13.306
0.210,-0.668,0.153,-2.502,-6.470,15.869
0.194,-0.669,0.152,-1.221,-9.277,18.005
0.181,-0.669,0.154,-0.427,-10.925,20.081
0.172,-0.674,0.158,0.000,-12.085,21.851
0.166,-0.693,0.160,0.366,-12.878,23.376
0.154,-0.715,0.163,0.549,-13.123,24.658
0.143,-0.728,0.164,-0.305,-13.184,25.696
0.132,-0.745,0.165,-1.709,-12.878,26.367
0.124,-0.765,0.160,-3.357,-12.329,26.855
0.117,-0.787,0.152,-5.310,-12.024,27.222
0.108,-0.813,0.145,-7.935,-11.597,27.039
0.098,-0.836,0.139,-11.841,-10.620,26.672
0.094,-0.859,0.133,-15.686,-9.583,26.123
0.097,-0.879,0.128,-19.714,-9.094,25.208
0.094,-0.902,0.121,-23.254,-9.094,23.682
0.088,-0.925,0.111,-25.696,-9.460,21.729
0.082,-0.940,0.101,-27.039,-10.010,19.592
0.075,-0.954,0.093,-28.015,-10.315,17.273
0.070,-0.963,0.087,-27.893,-10.132,14.587
0.071,-0.968,0.084,-26.367,-9.644,11.719
0.079,-0.966,0.081,-24.475,-8.911,8.423
0.082,-0.961,0.078,-21.851,-8.423,5.127
0.081,-0.951,0.073,-18.066,-7.996,1.709
0.088,-0.941,0.070,-14.587,-7.385,-1.221
0.100,-0.933,0.074,-10.803,-6.592,-3.601
0.110,-0.927,0.078,-6.958,-5.920,-5.859
0.116,-0.927,0.084,-3.174,-5.310,-8.484
0.121,-0.926,0.090,0.366,-5.066,-10.681
0.127,-0.926,0.097,3.662,-4.822,-12.512
0.135,-0.927,0.108,6.165,-4.211,-13.611
0.151,-0.926,0.123,8.179,-3.845,-14.343
0.161,-0.922,0.135,8.972,-4.639,-14.343
0.170,-0.923,0.148,9.277,-5.920,-14.221
0.184,-0.924,0.160,9.094,-7.629,-13.916
0.195,-0.931,0.174,8.972,-10.254,-13.123
0.199,-0.938,0.183,8.301,-13.000,-11.414
0.198,-0.947,0.189,7.996,-15.930,-9.460
0.197,-0.953,0.195,7.324,-18.250,-7.385
0.191,-0.959,0.201,6.592,-19.775,-4.761
0.182,-0.969,0.202,5.798,-20.264,-2.441
0.170,-0.986,0.199,4.272,-19.775,0.244
0.162,-1.003,0.200,1.953,-17.639,2.747
0.161,-1.020,0.203,-0.427,-14.709,4.639
0.161,-1.032,0.203,-2.808,-11.658,5.554
0.163,-1.046,0.205,-4.822,-9.155,5.615
0.169,-1.057,0.208,-6.592,-7.141,4.944

-0.992,-2.834,1.738,-22.949,-31.921,32.043
-0.323,-1.771,1.238,-136.047,101.868,25.635
0.622,-0.962,0.956,-158.752,114.868,-8.118
0.517,-0.884,0.041,-122.498,47.852,-19.836
0.300,-1.552,-0.047,-72.876,16.724,-4.028
0.166,-1.958,0.111,-46.448,21.240,16.296
0.071,-1.990,0.135,-51.086,35.522,26.672
0.202,-1.674,0.016,-64.209,41.870,27.100
0.427,-1.595,0.152,-65.369,50.232,26.367
0.511,-1.585,0.387,-61.462,56.458,27.161
0.517,-1.529,0.389,-59.753,47.058,25.330
0.462,-1.546,0.273,-59.937,32.104,26.062
0.416,-1.592,0.255,-64.575,18.860,27.039
0.333,-1.499,0.385,-72.876,7.080,23.804
0.227,-1.333,0.474,-78.369,-5.615,18.188
0.069,-1.311,0.515,-76.782,-13.794,15.320
-0.027,-1.239,0.499,-73.669,-15.564,12.817
-0.036,-1.220,0.489,-67.078,-8.850,12.451
0.014,-1.243,0.500,-58.105,2.380,13.550
0.189,-1.280,0.432,-49.805,14.038,14.526
0.404,-1.344,0.384,-40.894,20.020,14.221
0.542,-1.376,0.350,-34.485,19.592,13.550
0.633,-1.326,0.307,-29.053,12.756,12.695
0.638,-1.220,0.310,-24.963,5.127,12.390
0.596,-1.112,0.314,-21.484,-2.075,11.169
0.535,-0.992,0.344,-18.005,-7.874,9.460
0.491,-0.889,0.394,-13.184,-11.536,6.653
0.482,-0.845,0.414,-5.798,-13.977,2.869
0.460,-0.846,0.429,2.014,-17.151,-1.160
0.448,-0.864,0.432,8.606,-19.104,-4.822
0.438,-0.902,0.437,14.343,-20.935,-8.118
0.412,-0.949,0.433,19.165,-23.315,-11.353
0.393,-1.005,0.430,23.376,-25.574,-13.916
0.339,-1.060,0.396,27.161,-28.625,-16.785
0.277,-1.112,0.373,30.273,-30.273,-19.653
0.223,-1.162,0.317,32.593,-30.884,-22.217
0.217,-1.224,0.292,33.752,-29.236,-24.658
0.232,-1.192,0.295,34.424,-25.635,-28.442
0.252,-1.207,0.294,36.072,-23.437,-31.616
0.294,-1.174,0.322,37.720,-23.132,-34.119
0.273,-1.127,0.297,38.879,-26.794,-36.560
0.228,-1.096,0.272,40.710,-29.968,-36.926
0.147,-1.060,0.276,42.603,-30.151,-36.438
0.097,-1.040,0.284,45.349,-27.710,-35.095
0.065,-1.001,0.288,48.096,-23.010,-35.278
0.058,-0.956,0.297,50.415,-17.700,-35.522
0.043,-0.916,0.295,53.650,-13.367,-35.645
0.013,-0.884,0.289,56.824,-9.521,-35.339
-0.022,-0.860,0.292,60.059,-5.432,-34.729
-0.039,-0.840,0.281,63.782,-0.488,-33.508
-0.071,-0.824,0.252,68.726,4.883,-32.288
-0.115,-0.845,0.232,75.073,11.902,-31.250
-0.124,-0.907,0.206,82.520,20.813,-30.029
-0.099,-0.974,0.156,87.708,30.273,-28.625
-0.026,-1.062,0.120,92.163,39.124,-27.344
0.098,-1.143,0.164,95.215,46.204,-25.391
0.226,-1.255,0.196,98.450,47.485,-23.621
0.313,-1.325,0.229,99.304,39.551,-23.010
0.363,-1.360,0.270,98.877,25.269,-24.048
0.355,-1.414,0.314,94.727,10.376,-24.963
0.340,-1.491,0.364,86.365,-1.892,-24.109
0.388,-1.537,0.423,73.364,-12.756,-20.569
0.415,-1.551,0.415,58.228,-27.954,-14.709
0.388,-1.523,0.382,42.847,-47.485,-8.423
0.364,-1.464,0.373,24.170,-64.087,-3.845
0.336,-1.418,0.336,5.798,-75.012,1.404
0.303,-1.410,0.284,-8.972,-78.857,7.324
0.270,-1.393,0.239,-22.339,-75.195,11.597
0.222,-1.342,0.228,-33.997,-65.125,13.000
0.209,-1.267,0.229,-42.053,-51.697,10.620
0.225,-1.187,0.220,-46.997,-38.269,3.967
0.240,-1.125,0.199,-51.392,-25.269,-2.808
0.236,-1.072,0.173,-55.603,-13.977,-9.033
0.224,-1.024,0.142,-59.570,-4.211,-14.099
0.222,-0.976,0.113,-62.744,5.005,-17.151
0.221,-0.921,0.096,-65.125,14.343,-17.639
0.220,-0.875,0.085,-65.918,23.315,-15.869
0.218,-0.841,0.076,-65.613,31.677,-12.329
0.213,-0.812,0.069,-63.843,39.368,-7.935
0.208,-0.784,0.062,-60.913,45.898,-3.601
0.198,-0.755,0.061,-57.129,51.331,0.671
0.193,-0.728,0.062,-52.429,56.030,5.310
0.198,-0.703,0.065,-47.485,59.082,10.254
0.209,-0.686,0.071,-42.419,59.875,14.343
0.220,-0.673,0.079,-36.926,58.899,17.151
0.230,-0.662,0.092,-31.311,55.725,19.348
0.237,-0.655,0.102,-26.245,50.171,20.569
0.240,-0.650,0.108,-20.996,43.274,20.874
0.240,-0.641,0.113,-16.663,35.400,20.691
0.236,-0.629,0.114,-13.184,27.283,20.203
0.229,-0.616,0.115,-10.193,19.043,19.775
0.219,-0.604,0.117,-7.324,11.597,19.592
0.208,-0.597,0.116,-5.310,5.066,19.531
0.194,-0.586,0.115,-3.174,-0.305,19.653
0.180,-0.579,0.113,-2.075,-4.150,20.020
0.166,-0.574,0.112,-0.977,-7.019,20.081
0.155,-0.576,0.109,-0.061,-8.789,20.142
0.143,-0.587,0.106,1.282,-9.827,19.836
0.134,-0.600,0.104,2.808,-10.315,19.531
0.123,-0.606,0.099,4.272,-10.315,18.677
0.113,-0.614,0.096,5.859,-9.888,17.944
0.103,-0.626,0.093,7.874,-9.460,17.212
0.094,-0.644,0.088,10.254,-8.728,16.174
0.083,-0.669,0.082,12.268,-7.446,15.076
0.073,-0.699,0.077,14.282,-6.042,13.550
0.064,-0.734,0.073,16.418,-4.517,11.536
0.058,-0.774,0.070,17.761,-2.197,9.460
0.054,-0.820,0.069,19.104,-0.183,6.836
0.055,-0.863,0.073,20.142,1.892,3.601
0.066,-0.903,0.080,21.057,3.723,-0.183
0.079,-0.939,0.089,22.095,4.456,-3.845
0.091,-0.973,0.096,23.132,3.662,-8.179
0.109,-1.000,0.104,23.437,2.380,-13.123
0.132,-1.018,0.113,24.048,0.366,-18.677
0.154,-1.033,0.120,24.963,-2.625,-24.170
0.173,-1.045,0.126,25.635,-6.653,-29.419
0.195,-1.045,0.130,26.367,-11.169,-34.363
0.220,-1.038,0.135,27.100,-16.663,-38.696
0.242,-1.025,0.141,27.710,-22.400,-41.870

-0.162,-2.646,3.218,-84.961,85.144,-39.307
0.783,-0.048,1.517,-190.857,52.551,-12.878
0.624,-0.362,-0.536,-161.133,-9.705,-0.122
-0.071,-1.147,-0.953,-82.825,-30.823,14.099
-0.189,-1.629,-0.344,-49.194,-18.066,32.715
-0.164,-1.909,0.279,-62.439,5.615,42.236
-0.052,-1.455,0.254,-87.219,25.513,33.630
0.094,-1.147,0.104,-90.332,36.682,30.396
0.136,-1.305,0.122,-76.904,42.603,36.804
0.188,-1.427,0.187,-71.777,43.762,40.894
0.266,-1.396,0.201,-75.867,47.058,42.114
0.418,-1.405,0.253,-75.745,46.631,42.725
0.521,-1.423,0.353,-74.707,39.246,42.664
0.572,-1.510,0.454,-72.998,29.358,41.077
0.579,-1.501,0.447,-72.083,14.282,38.086
0.510,-1.501,0.478,-73.303,-1.953,34.973
0.331,-1.426,0.487,-76.172,-16.113,30.823
0.182,-1.337,0.466,-78.796,-23.560,26.672
0.045,-1.246,0.408,-77.454,-25.513,20.813
-0.036,-1.158,0.374,-74.829,-20.020,16.602
0.005,-1.037,0.431,-71.533,-9.827,14.832
0.091,-0.958,0.461,-65.796,-1.221,13.672
0.183,-0.905,0.506,-58.472,5.493,13.245
0.286,-0.867,0.498,-49.866,10.437,12.512
0.400,-0.886,0.472,-41.199,13.245,11.719
0.456,-0.907,0.419,-35.278,12.817,9.705
0.514,-0.908,0.422,-31.738,11.108,7.263
0.570,-0.925,0.433,-28.442,7.568,4.639
0.593,-0.959,0.437,-24.841,3.113,1.770
0.574,-0.971,0.426,-21.484,-1.221,-0.916
0.541,-0.956,0.440,-18.860,-5.798,-2.502
0.479,-0.931,0.444,-14.404,-9.033,-3.174
0.385,-0.903,0.445,-9.094,-10.071,-3.967
0.350,-0.876,0.429,-3.967,-7.935,-4.395
0.345,-0.880,0.440,1.282,-2.991,-4.517
0.417,-0.891,0.475,7.202,1.038,-4.150
0.464,-0.934,0.461,12.146,1.221,-4.639
0.495,-0.960,0.457,16.174,0.427,-5.981
0.507,-0.977,0.448,19.592,-2.075,-8.301
0.503,-0.985,0.451,21.545,-6.409,-10.437
0.468,-0.994,0.444,23.865,-10.620,-12.268
0.409,-0.987,0.428,26.367,-14.587,-13.611
0.347,-0.991,0.424,29.602,-17.517,-14.954
0.291,-0.996,0.424,33.081,-18.188,-16.052
0.276,-1.001,0.435,36.316,-17.456,-17.944
0.276,-0.999,0.450,38.879,-17.395,-19.714
0.260,-0.992,0.436,42.175,-18.555,-20.630
0.217,-0.995,0.424,45.410,-19.348,-21.545
0.171,-0.982,0.426,47.241,-18.982,-22.461
0.158,-0.965,0.435,48.462,-17.151,-23.254
0.156,-0.949,0.406,50.476,-15.686,-24.475
0.163,-0.969,0.402,52.795,-14.038,-25.513
0.176,-0.975,0.387,54.504,-13.123,-26.978
0.196,-0.970,0.362,55.908,-12.146,-28.503
0.205,-0.990,0.364,57.556,-11.475,-30.029
0.205,-1.001,0.343,58.228,-12.146,-31.128
0.214,-1.009,0.334,58.838,-12.939,-32.349
0.226,-1.002,0.335,58.228,-13.245,-33.264
0.221,-0.989,0.314,58.228,-14.526,-34.180
0.200,-0.982,0.314,59.021,-16.052,-34.729
0.173,-0.971,0.316,59.143,-17.334,-34.973
0.145,-0.931,0.307,59.082,-18.066,-35.339
0.102,-0.878,0.295,60.242,-17.639,-35.400
0.045,-0.834,0.287,62.317,-15.686,-34.973
-0.012,-0.797,0.272,65.796,-12.329,-34.485
-0.060,-0.775,0.250,69.946,-7.202,-33.386
-0.099,-0.789,0.240,75.134,-0.549,-31.982
-0.134,-0.822,0.222,80.017,7.019,-31.006
-0.151,-0.882,0.194,83.923,15.442,-30.029
-0.118,-0.970,0.170,86.914,23.193,-29.907
-0.039,-1.053,0.169,88.989,29.419,-31.128
0.064,-1.113,0.173,89.539,32.654,-33.081
0.190,-1.144,0.222,90.210,30.823,-34.546
0.289,-1.226,0.223,92.224,20.569,-35.095
0.308,-1.325,0.210,92.224,3.235,-34.058
0.288,-1.426,0.213,89.539,-13.428,-32.471
0.244,-1.523,0.227,83.679,-26.184,-29.724
0.187,-1.585,0.255,74.036,-33.447,-25.879
0.148,-1.602,0.271,62.561,-37.231,-21.790
0.096,-1.587,0.220,54.565,-42.297,-17.395
0.081,-1.509,0.196,45.166,-46.204,-16.174
0.097,-1.464,0.185,33.752,-47.241,-17.151
0.100,-1.433,0.155,24.231,-47.180,-17.761
0.110,-1.372,0.116,14.893,-45.410,-17.517
0.118,-1.290,0.083,6.897,-41.260,-16.602
0.111,-1.210,0.072,0.671,-34.241,-15.930
0.102,-1.145,0.073,-5.127,-23.132,-15.564
0.101,-1.105,0.076,-10.498,-9.766,-15.442
0.099,-1.080,0.078,-15.869,4.272,-15.259
0.094,-1.059,0.073,-21.545,18.005,-14.587
0.097,-1.042,0.068,-26.550,30.579,-13.123
0.112,-1.013,0.064,-30.518,41.382,-11.047
0.131,-0.979,0.065,-34.363,50.781,-7.996
0.149,-0.932,0.065,-36.499,57.495,-3.967
0.163,-0.887,0.067,-37.354,61.401,0.366
0.174,-0.852,0.067,-37.048,62.683,5.798
0.182,-0.821,0.068,-35.950,61.584,11.536
0.179,-0.779,0.071,-34.180,58.838,17.151
0.176,-0.764,0.071,-31.982,55.054,22.522
0.169,-0.754,0.066,-29.236,50.110,26.794
0.159,-0.737,0.062,-27.283,44.983,30.151
0.148,-0.719,0.056,-25.391,40.344,32.898
0.136,-0.708,0.053,-22.949,35.889,34.973
0.128,-0.700,0.049,-19.836,31.982,36.499
0.119,-0.687,0.050,-16.968,28.687,37.842
0.117,-0.673,0.055,-14.099,25.574,38.513
0.118,-0.670,0.061,-11.108,22.522,38.757
0.121,-0.674,0.066,-7.874,19.165,38.269
0.121,-0.674,0.069,-5.249,15.808,37.231
0.121,-0.674,0.078,-3.357,12.329,35.706
0.127,-0.675,0.084,-2.319,8.850,34.363
0.134,-0.674,0.090,-1.282,4.700,32.654
0.138,-0.673,0.094,-0.549,0.366,30.884
0.141,-0.679,0.096,-0.061,-3.784,29.114
0.138,-0.690,0.095,0.122,-7.996,27.100
0.132,-0.696,0.091,0.000,-11.841,25.208
0.124,-0.702,0.086,-0.244,-15.076,23.560
0.117,-0.722,0.082,-0.427,-17.090,21.545
0.115,-0.751,0.080,-0.122,-18.127,18.982

-0.578,-0.855,1.286,-16.113,-10.681,-11.475
-0.076,-0.874,1.024,-71.716,31.250,-12.329
0.234,-0.803,0.981,-102.722,44.922,-24.292
0.119,-0.584,0.738,-107.483,22.217,-43.030
0.003,-0.478,0.348,-98.206,-9.705,-46.326
0.042,-0.571,0.108,-86.060,-20.996,-39.124
0.106,-0.547,0.028,-78.552,-17.334,-30.396
0.145,-0.472,-0.059,-73.669,-8.972,-19.226
0.155,-0.536,-0.094,-65.369,-2.075,-7.507
0.083,-0.759,0.076,-60.242,3.235,0.305
0.021,-0.972,0.323,-65.979,12.573,2.991
0.045,-0.973,0.307,-79.712,19.836,2.502
0.084,-1.014,0.182,-87.219,21.606,4.028
0.101,-1.219,0.205,-87.036,30.334,8.484
0.260,-1.414,0.268,-91.797,42.358,15.686
0.463,-1.535,0.303,-101.013,44.189,19.958
0.533,-1.600,0.303,-103.882,28.259,14.282
0.554,-1.633,0.315,-102.905,10.071,10.498
0.416,-1.644,0.174,-103.149,-0.366,12.268
0.305,-1.570,0.117,-107.605,-1.831,18.433
0.277,-1.493,0.185,-117.249,-6.653,28.503
0.134,-1.476,0.223,-123.840,-20.081,36.499
-0.034,-1.415,0.231,-123.596,-26.794,37.537
-0.124,-1.382,0.243,-118.347,-20.691,38.330
-0.064,-1.407,0.319,-109.985,-11.780,38.818
0.082,-1.496,0.357,-103.027,-9.521,39.673
0.074,-1.555,0.322,-95.764,-15.137,33.142
0.131,-1.640,0.402,-91.431,-16.174,24.902
0.153,-1.628,0.422,-91.309,-20.508,16.968
0.085,-1.602,0.450,-90.759,-26.855,9.827
-0.053,-1.495,0.434,-90.271,-31.616,6.775
-0.194,-1.376,0.433,-88.684,-31.677,5.676
-0.304,-1.295,0.427,-86.304,-27.466,5.310
-0.401,-1.202,0.436,-81.055,-16.907,3.845
-0.335,-1.162,0.416,-73.914,-1.465,3.113
-0.162,-1.158,0.389,-65.613,14.587,3.845
0.034,-1.173,0.408,-58.350,25.818,6.531
0.165,-1.195,0.434,-53.223,31.006,10.559
0.291,-1.181,0.468,-49.377,32.471,13.306
0.399,-1.146,0.479,-46.326,31.677,15.015
0.444,-1.078,0.499,-43.274,28.625,15.320
0.445,-0.991,0.564,-39.795,24.109,14.404
0.418,-0.918,0.586,-35.583,19.043,12.695
0.396,-0.854,0.608,-31.189,14.038,10.437
0.353,-0.790,0.615,-25.757,9.094,7.507
0.333,-0.740,0.638,-19.653,5.554,3.967
0.286,-0.720,0.632,-13.489,1.587,0.854
0.244,-0.729,0.639,-6.958,-1.404,-1.648
0.248,-0.776,0.620,0.244,-2.319,-3.845
0.269,-0.866,0.603,7.751,-2.380,-5.859
0.279,-0.946,0.566,13.550,-3.479,-7.751
0.265,-0.999,0.541,17.273,-5.005,-9.460
0.238,-1.026,0.523,19.714,-6.592,-11.292
0.197,-1.018,0.512,21.667,-8.362,-12.634
0.188,-1.005,0.506,24.170,-8.362,-13.000
0.185,-0.991,0.492,27.283,-8.911,-13.184
0.178,-0.986,0.480,30.762,-9.460,-13.184
0.153,-0.992,0.486,34.302,-9.521,-13.123
0.135,-0.998,0.498,37.231,-9.155,-13.306
0.131,-0.993,0.517,39.856,-9.155,-14.160
0.131,-0.988,0.510,42.114,-9.399,-15.625
0.141,-0.983,0.501,44.922,-9.949,-17.212
0.142,-0.999,0.514,47.791,-11.230,-18.799
0.134,-0.993,0.500,50.781,-12.634,-20.447
0.137,-0.977,0.493,53.101,-13.611,-22.278
0.120,-0.956,0.474,55.481,-15.381,-23.926
0.094,-0.933,0.455,57.617,-16.785,-25.085
0.077,-0.917,0.446,59.814,-16.541,-25.879
0.048,-0.924,0.420,62.500,-15.686,-26.367
0.040,-0.945,0.421,64.697,-13.245,-26.489
0.048,-0.946,0.423,66.528,-10.986,-26.672
0.060,-0.937,0.404,68.909,-9.155,-27.100
0.056,-0.953,0.386,70.923,-8.484,-26.917
0.035,-0.965,0.368,72.266,-8.911,-26.611
-0.001,-0.964,0.347,73.547,-9.033,-26.245
-0.041,-0.971,0.323,75.439,-7.812,-25.757
-0.080,-1.007,0.305,78.735,-5.005,-24.902
-0.100,-1.064,0.291,82.886,-1.099,-23.987
-0.103,-1.115,0.261,86.670,4.089,-23.743
-0.089,-1.160,0.233,90.149,9.888,-24.658
-0.069,-1.202,0.231,92.285,15.198,-25.391
-0.066,-1.234,0.232,93.201,19.348,-25.940
-0.080,-1.263,0.215,93.811,22.583,-26.917
-0.081,-1.292,0.216,94.666,26.367,-28.259
-0.047,-1.346,0.246,96.619,30.518,-30.151
0.037,-1.380,0.336,100.647,31.555,-33.752
0.111,-1.463,0.405,107.788,24.414,-38.818
0.076,-1.633,0.417,113.403,9.094,-42.969
0.038,-1.800,0.391,115.601,-8.545,-45.349
0.036,-1.895,0.330,114.197,-26.184,-43.884
0.045,-1.825,0.310,104.614,-37.354,-42.725
0.065,-1.722,0.301,88.562,-40.894,-44.250
0.078,-1.651,0.245,71.411,-41.748,-44.189
0.108,-1.578,0.151,56.213,-41.321,-40.649
0.132,-1.487,0.093,42.175,-39.856,-36.743
0.132,-1.378,0.078,30.212,-33.386,-33.081
0.137,-1.259,0.072,21.973,-22.583,-30.273
0.155,-1.147,0.086,16.418,-10.925,-28.748
0.176,-1.065,0.122,12.573,-0.916,-26.184
0.197,-1.008,0.161,8.606,6.226,-21.179
0.213,-0.955,0.188,3.418,9.094,-14.526
0.207,-0.911,0.204,-2.258,8.423,-6.714
0.194,-0.867,0.209,-7.446,4.761,0.916
0.180,-0.820,0.204,-12.390,-0.549,8.545
0.165,-0.776,0.188,-17.212,-5.981,15.808
0.146,-0.738,0.169,-21.484,-11.353,22.400
0.121,-0.699,0.150,-24.719,-16.113,27.954
0.101,-0.661,0.135,-27.222,-19.958,33.081
0.080,-0.628,0.112,-28.015,-23.010,37.415
0.059,-0.597,0.089,-27.344,-25.024,41.321
0.030,-0.570,0.063,-25.879,-25.085,44.250
0.003,-0.547,0.051,-23.315,-22.705,46.021
-0.020,-0.540,0.041,-19.958,-18.066,47.058
-0.033,-0.541,0.035,-17.151,-11.963,48.035
-0.041,-0.548,0.036,-15.076,-5.554,48.584
-0.047,-0.548,0.040,-14.404,1.282,48.401
-0.043,-0.533,0.047,-14.648,7.935,47.852
-0.028,-0.510,0.053,-15.442,13.123,46.814
-0.006,-0.493,0.063,-15.930,16.296,45.837

0.288,-0.789,1.645,-66.833,100.525,1.709
0.258,-0.457,1.425,-117.859,93.811,-6.531
0.175,-0.145,1.356,-135.132,77.820,-21.484
0.109,-0.083,1.172,-110.291,37.415,-35.278
0.320,-0.139,0.709,-71.472,-25.574,-45.898
0.367,-0.161,0.308,-49.255,-81.848,-36.438
0.085,-0.179,-0.164,-44.739,-78.552,-11.169
0.056,-0.381,-0.414,-43.823,-26.672,13.733
0.087,-0.696,-0.379,-44.800,8.545,24.170
-0.149,-1.037,-0.159,-50.720,19.470,17.639
-0.333,-1.303,0.325,-64.026,39.917,9.277
-0.238,-1.401,0.534,-83.313,63.477,8.911
-0.072,-1.527,0.583,-97.717,73.547,7.019
-0.052,-1.785,0.507,-104.309,62.683,-0.732
0.096,-1.805,0.261,-109.680,51.575,-8.179
0.435,-1.792,0.123,-115.295,60.303,-6.714
0.779,-1.885,0.093,-107.422,53.162,-0.122
0.805,-2.012,-0.056,-86.792,20.020,1.343
0.662,-2.221,0.197,-74.158,5.310,15.503
0.494,-2.292,0.358,-80.017,-8.789,27.405
0.227,-2.096,0.301,-84.778,-37.476,23.010
0.091,-2.213,0.266,-91.248,-39.673,29.297
0.024,-2.042,0.229,-96.558,-45.959,24.292
-0.021,-1.872,0.110,-104.126,-49.194,27.100
-0.086,-2.002,0.152,-109.680,-45.044,37.964
-0.238,-1.976,0.185,-108.398,-45.898,33.569
-0.302,-1.961,0.146,-100.647,-44.495,19.409
-0.315,-1.814,0.183,-91.736,-38.940,3.479
-0.290,-1.523,0.299,-89.661,-29.236,-2.747
-0.347,-1.380,0.299,-86.121,-24.353,1.587
-0.425,-1.235,0.313,-77.698,-19.470,7.812
-0.443,-1.102,0.315,-70.374,-8.911,12.024
-0.335,-1.021,0.364,-63.904,4.822,14.832
-0.173,-0.971,0.402,-56.763,18.005,16.479
-0.021,-0.968,0.418,-50.354,26.794,18.372
0.112,-0.957,0.459,-45.837,31.006,19.043
0.246,-0.920,0.483,-42.053,31.860,18.127
0.359,-0.932,0.495,-36.987,28.870,16.479
0.395,-0.963,0.500,-31.372,23.010,13.062
0.398,-0.976,0.524,-26.917,16.785,8.972
0.390,-0.971,0.534,-23.254,10.193,4.517
0.333,-0.957,0.514,-18.677,3.357,-0.305
0.269,-0.942,0.491,-13.794,-1.282,-4.211
0.204,-0.922,0.465,-10.193,-4.761,-6.470
0.169,-0.904,0.447,-5.676,-6.836,-8.240
0.162,-0.908,0.451,-0.610,-6.775,-9.216
0.149,-0.897,0.455,4.456,-6.897,-10.010
0.142,-0.910,0.463,9.766,-6.287,-10.254
0.134,-0.921,0.456,14.099,-5.920,-10.437
0.141,-0.955,0.446,18.005,-5.432,-10.315
0.150,-0.979,0.460,21.851,-5.127,-9.949
0.144,-1.001,0.452,24.902,-5.371,-9.521
0.148,-1.014,0.455,27.649,-5.432,-9.827
0.154,-1.029,0.459,29.602,-5.676,-10.010
0.148,-1.035,0.459,31.494,-6.653,-10.437
0.136,-1.030,0.465,33.508,-7.751,-10.803
0.139,-1.030,0.451,35.767,-8.850,-11.047
0.134,-1.013,0.425,37.659,-10.254,-11.963
0.102,-1.001,0.412,39.795,-12.024,-13.550
0.098,-1.001,0.390,41.870,-13.611,-15.137
0.078,-1.000,0.393,43.762,-15.198,-16.968
0.063,-1.004,0.394,45.776,-16.235,-18.738
0.047,-1.000,0.415,47.424,-15.808,-20.874
0.055,-0.984,0.416,48.584,-16.113,-22.339
0.044,-0.957,0.424,50.110,-17.273,-23.071
0.023,-0.943,0.413,52.612,-18.127,-22.949
-0.015,-0.931,0.384,54.688,-19.226,-22.400
-0.074,-0.942,0.362,56.641,-20.142,-21.423
-0.118,-0.967,0.340,59.265,-18.799,-20.813
-0.148,-0.983,0.314,61.523,-15.198,-20.630
-0.177,-0.996,0.289,63.660,-10.742,-20.081
-0.198,-1.011,0.295,66.345,-5.371,-18.616
-0.206,-1.046,0.303,69.824,0.427,-16.479
-0.196,-1.080,0.290,73.608,6.042,-14.648
-0.203,-1.130,0.258,77.576,10.437,-13.855
-0.220,-1.194,0.233,81.299,14.587,-13.611
-0.240,-1.276,0.203,85.449,20.203,-14.893
-0.231,-1.391,0.195,90.759,27.344,-18.188
-0.190,-1.479,0.213,94.482,33.569,-24.109
-0.115,-1.522,0.273,96.680,36.621,-31.433
-0.010,-1.581,0.354,100.159,33.813,-37.415
0.032,-1.667,0.390,104.492,24.536,-41.626
0.036,-1.737,0.361,107.361,10.010,-41.321
0.007,-1.757,0.308,106.995,-8.301,-38.147
-0.013,-1.693,0.299,96.375,-22.827,-39.734
-0.001,-1.649,0.269,82.581,-31.799,-42.847
0.023,-1.597,0.255,66.162,-33.447,-41.565
0.067,-1.551,0.270,48.035,-31.616,-36.438
0.101,-1.515,0.271,30.457,-32.837,-29.968
0.121,-1.417,0.241,15.198,-38.025,-26.306
0.131,-1.287,0.194,6.775,-44.006,-26.978
0.121,-1.158,0.178,6.592,-49.011,-30.090
0.096,-1.060,0.187,9.827,-50.537,-32.715
0.087,-0.984,0.192,13.306,-48.950,-33.020
0.081,-0.923,0.193,15.869,-44.312,-30.396
0.073,-0.888,0.207,17.822,-37.781,-25.391
0.080,-0.869,0.212,18.311,-31.494,-19.958
0.082,-0.821,0.203,17.700,-24.963,-15.076
0.070,-0.773,0.194,16.602,-16.663,-8.728
0.051,-0.739,0.182,15.747,-7.324,-1.709
0.052,-0.751,0.185,15.137,2.319,6.104
0.081,-0.773,0.192,13.733,10.559,12.329
0.098,-0.754,0.192,11.353,16.418,16.663
0.094,-0.716,0.186,8.667,20.691,21.667
0.101,-0.714,0.196,6.287,24.048,27.954
0.109,-0.716,0.187,4.272,24.292,32.715
0.102,-0.719,0.171,2.686,23.132,37.109
0.096,-0.722,0.167,1.099,22.461,41.565
0.094,-0.711,0.157,-1.038,20.508,45.471
0.096,-0.700,0.150,-3.601,18.005,49.072
0.096,-0.692,0.137,-6.226,15.625,52.002
0.089,-0.679,0.126,-8.911,13.306,54.382
0.074,-0.654,0.110,-12.146,11.597,56.335
0.064,-0.643,0.105,-14.954,11.169,59.021
0.057,-0.644,0.096,-17.639,11.047,61.584
0.051,-0.648,0.092,-20.203,12.085,63.660
0.040,-0.651,0.090,-23.071,13.611,65.491
0.031,-0.659,0.090,-25.757,15.320,67.139
0.027,-0.660,0.093,-28.320,16.968,68.115

0.347,-2.004,0.166,-134.705,-0.122,-10.864
0.254,-1.973,0.151,-124.146,-12.207,2.625
0.038,-1.994,0.171,-117.676,-22.888,14.404
-0.095,-1.911,0.153,-115.051,-24.780,22.400
-0.161,-1.896,0.163,-112.610,-19.104,26.794
-0.166,-1.858,0.214,-110.718,-11.841,25.696
-0.119,-1.824,0.246,-107.361,-6.409,22.400
-0.073,-1.811,0.272,-100.281,-6.165,17.517
-0.086,-1.724,0.283,-94.360,-6.531,11.963
-0.116,-1.619,0.388,-90.942,-6.042,6.958
-0.140,-1.465,0.424,-87.158,-7.874,5.859
-0.221,-1.324,0.378,-79.285,-9.155,7.324
-0.283,-1.151,0.341,-71.411,-7.385,11.841
-0.285,-1.040,0.310,-67.078,-0.732,17.883
-0.211,-0.951,0.278,-62.500,9.888,21.362
-0.064,-0.898,0.334,-58.350,20.935,22.034
0.103,-0.882,0.447,-54.382,27.283,21.729
0.274,-0.863,0.537,-48.645,29.907,19.409
0.369,-0.861,0.586,-41.321,26.978,15.320
0.407,-0.856,0.612,-34.485,20.264,10.071
0.398,-0.834,0.629,-29.175,12.085,4.089
0.346,-0.814,0.645,-24.902,4.578,-1.465
0.271,-0.813,0.660,-19.836,-1.099,-4.822
0.239,-0.820,0.655,-14.099,-4.395,-7.507
0.234,-0.838,0.629,-7.751,-6.287,-9.094
0.213,-0.840,0.587,-1.038,-8.057,-9.338
0.182,-0.835,0.578,5.798,-9.521,-9.155
0.155,-0.839,0.544,11.414,-9.949,-7.874
0.168,-0.845,0.529,16.418,-9.094,-5.737
0.200,-0.881,0.497,21.729,-8.301,-4.211
0.238,-0.932,0.485,26.611,-8.179,-3.418
0.260,-0.969,0.503,29.907,-9.033,-3.113
0.297,-1.010,0.494,33.691,-11.658,-3.662
0.232,-0.997,0.487,36.682,-14.771,-5.493
0.238,-0.994,0.516,39.551,-18.005,-4.761
0.183,-0.960,0.510,42.603,-22.827,-6.409
0.122,-0.951,0.516,46.631,-26.306,-7.812
0.040,-0.928,0.505,49.683,-29.297,-9.644
-0.012,-0.906,0.488,52.612,-30.945,-11.108
-0.055,-0.907,0.467,55.786,-30.273,-11.536
-0.120,-0.927,0.454,59.265,-28.076,-12.024
-0.143,-0.991,0.435,61.890,-24.353,-12.451
-0.125,-1.033,0.420,63.904,-20.691,-13.367
-0.096,-1.061,0.398,65.918,-18.372,-14.587
-0.082,-1.076,0.383,67.688,-16.785,-15.625
-0.090,-1.072,0.372,67.932,-16.052,-16.663
-0.115,-1.046,0.363,67.566,-15.747,-17.761
-0.140,-1.009,0.372,67.200,-14.465,-17.944
-0.160,-0.986,0.369,67.871,-12.207,-17.395
-0.174,-0.975,0.358,68.970,-9.399,-15.869
-0.168,-0.977,0.347,70.068,-6.348,-13.184
-0.185,-0.996,0.313,71.899,-3.113,-10.071
-0.213,-1.012,0.282,74.646,1.526,-7.202
-0.231,-1.064,0.260,77.209,6.897,-4.517
-0.251,-1.138,0.224,79.041,12.939,-2.441
-0.274,-1.211,0.200,83.313,20.874,-1.831
-0.271,-1.284,0.202,89.478,30.090,-4.150
-0.192,-1.297,0.232,93.628,36.804,-8.484
-0.111,-1.282,0.290,96.008,40.039,-11.963
-0.062,-1.298,0.347,99.121,38.391,-14.832
-0.055,-1.382,0.365,100.281,33.447,-16.357
-0.036,-1.458,0.371,99.365,25.452,-16.663
-0.020,-1.536,0.360,95.093,10.925,-15.930
-0.045,-1.576,0.373,85.266,-4.944,-18.066
-0.053,-1.637,0.384,72.571,-17.578,-23.560
-0.036,-1.665,0.369,60.425,-26.184,-25.818
-0.020,-1.653,0.349,49.683,-28.625,-27.100
-0.020,-1.612,0.319,41.321,-28.992,-27.649
-0.015,-1.558,0.300,33.020,-30.701,-26.550
0.002,-1.471,0.276,25.696,-32.959,-23.926
0.034,-1.376,0.266,20.325,-33.936,-20.447
0.049,-1.265,0.257,15.564,-32.288,-17.090
0.058,-1.181,0.264,11.353,-25.818,-13.489
0.076,-1.111,0.252,7.263,-16.479,-10.620
0.085,-1.039,0.234,2.441,-5.432,-8.179
0.088,-0.974,0.216,-1.709,7.263,-5.798
0.078,-0.896,0.193,-5.493,20.813,-3.662
0.079,-0.853,0.197,-7.996,35.217,-0.977
0.131,-0.825,0.222,-9.949,47.974,0.671
0.173,-0.755,0.218,-11.902,54.932,1.221
0.189,-0.697,0.210,-13.000,59.143,4.822
0.198,-0.681,0.219,-13.000,61.218,10.132
0.201,-0.673,0.212,-12.634,59.448,14.526
0.182,-0.634,0.187,-12.329,56.091,18.372
0.165,-0.596,0.168,-11.169,54.260,23.254
0.154,-0.576,0.159,-9.338,53.284,28.870
0.148,-0.563,0.150,-6.775,52.673,33.752
0.135,-0.553,0.150,-4.272,51.941,38.269
0.135,-0.563,0.156,-2.075,50.781,42.297
0.124,-0.567,0.140,-0.183,49.072,44.983
0.109,-0.576,0.140,0.854,48.035,46.692
0.098,-0.588,0.134,0.244,47.058,48.035
0.093,-0.605,0.123,-1.282,46.265,48.340
0.090,-0.619,0.120,-3.784,45.227,47.852
0.091,-0.631,0.121,-6.653,43.640,46.631
0.096,-0.644,0.119,-9.766,40.588,44.861
0.101,-0.656,0.113,-13.000,36.011,42.969
0.107,-0.683,0.109,-16.174,30.029,41.443
0.114,-0.719,0.105,-19.409,22.644,39.490
0.113,-0.744,0.100,-22.217,14.282,36.926
0.105,-0.747,0.096,-24.475,5.615,34.180
0.095,-0.742,0.088,-26.123,-2.869,31.433
0.082,-0.737,0.080,-26.733,-10.376,28.809
0.069,-0.737,0.073,-27.100,-16.907,26.245
0.056,-0.746,0.066,-26.306,-22.461,23.682
0.043,-0.766,0.059,-25.085,-26.367,21.179
0.030,-0.782,0.052,-23.315,-29.236,18.250
0.018,-0.792,0.047,-21.118,-30.518,15.320
0.007,-0.801,0.043,-18.066,-30.701,12.146
0.003,-0.813,0.043,-14.832,-29.358,9.277
0.008,-0.832,0.047,-10.986,-26.978,5.920
0.020,-0.853,0.055,-6.042,-24.292,2.441
0.033,-0.873,0.066,-1.160,-21.179,-0.671
0.043,-0.888,0.078,3.906,-17.883,-3.418
0.060,-0.902,0.091,9.216,-14.404,-5.920
0.082,-0.920,0.107,14.343,-11.047,-8.667
0.107,-0.935,0.124,19.409,-7.996,-11.353
0.128,-0.948,0.141,23.926,-5.127,-13.611
0.149,-0.957,0.156,27.222,-2.747,-15.442

0.342,-1.753,0.237,-112.610,-29.480,6.042
0.211,-1.847,0.149,-118.713,-36.255,7.385
0.086,-1.946,0.148,-114.319,-31.006,5.981
0.089,-1.939,0.225,-113.098,-26.489,3.174
0.229,-1.977,0.353,-113.647,-19.470,2.991
0.380,-1.881,0.340,-110.596,-17.090,-1.038
0.390,-1.814,0.353,-106.079,-19.531,-0.671
0.397,-1.825,0.365,-104.675,-25.818,8.423
0.323,-1.811,0.389,-107.666,-37.415,16.296
0.011,-1.680,0.291,-110.046,-52.063,15.747
-0.197,-1.511,0.307,-108.398,-50.415,13.855
-0.216,-1.427,0.383,-105.530,-38.391,19.958
-0.309,-1.312,0.414,-97.351,-34.607,21.057
-0.505,-1.245,0.409,-86.670,-32.288,17.883
-0.562,-1.160,0.422,-80.444,-20.264,18.250
-0.475,-1.092,0.431,-76.599,-3.662,20.020
-0.364,-1.075,0.450,-70.923,8.972,17.700
-0.195,-1.120,0.480,-65.063,20.630,13.855
-0.003,-1.139,0.524,-59.570,27.588,9.888
0.137,-1.169,0.539,-54.688,27.527,7.568
0.199,-1.177,0.546,-50.415,23.193,7.141
0.223,-1.178,0.540,-46.204,18.188,7.507
0.247,-1.141,0.526,-42.114,14.465,7.935
0.278,-1.083,0.571,-38.330,13.245,7.446
0.334,-1.012,0.594,-35.522,12.085,6.714
0.375,-0.978,0.623,-30.884,8.118,6.226
0.359,-0.941,0.608,-25.635,2.380,4.395
0.220,-0.832,0.546,-21.118,-2.380,1.770
0.305,-0.857,0.612,-16.968,-2.930,1.709
0.141,-0.759,0.539,-13.245,-6.592,-2.014
0.126,-0.764,0.576,-8.423,-6.104,-1.648
0.067,-0.714,0.547,-3.967,-4.700,-1.709
0.147,-0.777,0.578,1.465,-2.197,-2.563
0.196,-0.805,0.587,6.409,-0.427,-3.662
0.310,-0.870,0.597,10.376,-0.427,-3.418
0.347,-0.915,0.573,14.465,-2.930,-3.418
0.341,-0.949,0.551,17.883,-6.042,-3.235
0.319,-0.979,0.549,20.508,-8.850,-2.808
0.288,-0.974,0.534,22.583,-11.475,-2.441
0.235,-0.959,0.519,25.085,-13.306,-2.869
0.215,-0.949,0.520,27.954,-14.160,-2.869
0.175,-0.931,0.529,30.212,-14.893,-3.540
0.166,-0.915,0.517,32.288,-14.832,-4.395
0.104,-0.910,0.478,34.424,-15.869,-5.554
0.074,-0.903,0.473,36.438,-15.015,-6.165
0.080,-0.904,0.497,38.391,-12.634,-7.080
0.099,-0.913,0.527,41.077,-11.780,-8.484
0.100,-0.911,0.519,43.457,-12.390,-10.559
0.091,-0.918,0.540,44.739,-13.428,-12.573
0.084,-0.935,0.529,46.753,-14.954,-14.038
0.060,-0.937,0.518,48.157,-16.602,-15.930
0.050,-0.939,0.501,48.889,-17.395,-17.334
0.042,-0.944,0.470,50.171,-17.944,-18.555
0.023,-0.949,0.446,51.880,-18.372,-18.860
0.005,-0.956,0.444,54.016,-17.883,-18.433
-0.006,-0.957,0.444,55.786,-16.357,-17.578
-0.018,-0.955,0.429,57.373,-15.015,-16.479
-0.034,-0.955,0.410,58.594,-13.062,-14.648
-0.042,-0.972,0.405,59.753,-11.353,-13.000
-0.037,-0.983,0.405,60.425,-9.094,-10.986
-0.055,-0.994,0.401,61.035,-7.507,-9.521
-0.111,-1.001,0.395,62.378,-4.944,-9.399
-0.154,-1.031,0.371,65.247,-1.404,-10.498
-0.140,-1.052,0.363,68.054,3.723,-12.634
-0.117,-1.061,0.368,71.045,10.132,-15.991
-0.103,-1.078,0.362,74.768,16.174,-19.714
-0.092,-1.109,0.352,78.369,21.118,-22.888
-0.078,-1.122,0.365,80.261,23.315,-26.245
-0.039,-1.101,0.383,80.444,22.644,-28.870
0.014,-1.088,0.399,81.543,19.775,-29.663
0.041,-1.125,0.398,82.947,13.489,-27.039
0.088,-1.195,0.402,80.566,4.333,-21.118
0.111,-1.259,0.411,74.280,-6.165,-13.184
0.087,-1.320,0.416,66.895,-17.944,-6.104
0.076,-1.391,0.411,60.242,-31.006,1.709
0.062,-1.454,0.384,55.237,-47.607,11.963
0.033,-1.503,0.389,49.255,-64.941,19.165
0.027,-1.587,0.395,45.410,-80.017,24.902
0.009,-1.665,0.363,44.250,-92.590,30.579
-0.021,-1.694,0.333,44.006,-100.769,32.410
-0.045,-1.651,0.309,44.312,-103.027,29.541
-0.048,-1.512,0.263,47.485,-100.403,21.667
-0.038,-1.375,0.216,54.443,-91.187,9.949
-0.007,-1.314,0.190,63.660,-75.378,-4.089
0.061,-1.273,0.169,69.885,-55.969,-19.104
0.122,-1.203,0.151,71.899,-36.438,-33.325
0.125,-1.123,0.145,71.899,-16.785,-44.373
0.099,-1.056,0.162,72.266,3.174,-51.819
0.095,-1.002,0.188,72.998,22.217,-54.199
0.134,-0.974,0.208,73.303,37.720,-52.063
0.180,-0.939,0.212,72.449,48.218,-48.157
0.211,-0.880,0.219,70.496,54.443,-41.260
0.225,-0.811,0.225,67.322,56.946,-30.762
0.230,-0.757,0.222,63.721,55.786,-17.822
0.228,-0.723,0.207,59.387,52.551,-3.601
0.213,-0.698,0.191,53.589,48.889,10.071
0.190,-0.673,0.179,47.058,45.654,22.949
0.164,-0.646,0.166,40.466,43.274,34.424
0.142,-0.633,0.149,33.264,42.908,44.373
0.117,-0.620,0.137,25.818,44.922,51.819
0.094,-0.599,0.134,18.127,49.255,57.129
0.089,-0.588,0.129,10.620,54.321,61.646
0.083,-0.577,0.122,3.357,59.204,65.002
0.085,-0.582,0.122,-4.211,63.904,67.261
0.085,-0.582,0.118,-11.963,67.261,68.665
0.088,-0.588,0.115,-19.104,69.092,69.336
0.085,-0.593,0.109,-26.306,69.702,69.580
0.084,-0.597,0.100,-33.508,69.580,69.397
0.082,-0.594,0.092,-40.100,68.176,68.970
0.078,-0.596,0.085,-46.021,66.101,68.298
0.072,-0.601,0.074,-51.392,63.599,67.505
0.067,-0.613,0.066,-56.091,60.059,66.406
0.068,-0.634,0.055,-60.486,56.091,65.002
0.066,-0.659,0.041,-64.514,50.903,63.232
0.053,-0.688,0.026,-67.749,45.044,60.425
0.039,-0.718,0.011,-70.007,39.368,56.824
0.028,-0.746,0.002,-71.289,33.997,52.673
0.021,-0.764,-0.001,-70.984,28.931,47.546
0.016,-0.771,-0.001,-68.787,24.109,41.504

0.491,-2.022,0.177,-101.013,-16.846,24.414
0.259,-1.971,0.200,-102.600,-31.555,23.926
0.144,-1.867,0.238,-105.042,-31.372,18.555
0.195,-1.695,0.351,-110.474,-26.489,19.287
0.026,-1.666,0.326,-113.403,-26.855,26.978
-0.026,-1.767,0.392,-113.159,-27.954,29.846
-0.095,-1.785,0.216,-106.689,-31.921,22.034
-0.033,-1.757,0.204,-98.328,-28.931,6.348
0.056,-1.786,0.297,-91.919,-19.531,2.686
0.105,-1.736,0.243,-85.449,-22.400,-1.282
0.096,-1.657,0.224,-83.191,-27.466,-1.038
0.002,-1.576,0.259,-83.984,-31.677,2.869
-0.166,-1.498,0.250,-83.740,-34.912,7.385
-0.374,-1.340,0.225,-78.979,-31.006,9.644
-0.419,-1.214,0.264,-74.585,-18.066,16.235
-0.380,-1.210,0.284,-63.538,-2.991,22.888
-0.219,-1.211,0.346,-55.115,13.428,27.161
-0.031,-1.239,0.403,-51.270,24.109,29.724
0.124,-1.223,0.465,-49.011,27.405,28.381
0.243,-1.168,0.517,-48.828,26.855,26.917
0.302,-1.103,0.547,-48.767,23.437,25.452
0.292,-1.043,0.542,-47.058,17.212,23.376
0.339,-0.980,0.565,-44.800,12.756,21.057
0.321,-0.910,0.549,-41.443,7.507,19.043
0.324,-0.858,0.561,-36.682,2.380,17.883
0.165,-0.766,0.564,-31.494,-2.991,16.052
0.136,-0.702,0.582,-25.391,-3.296,15.015
0.090,-0.679,0.560,-17.334,-2.625,12.329
0.142,-0.711,0.554,-9.155,0.244,8.728
0.256,-0.748,0.588,-1.953,3.174,5.615
0.364,-0.814,0.627,3.845,3.418,3.601
0.354,-0.868,0.632,8.667,-1.038,1.526
0.308,-0.891,0.634,12.451,-5.920,-1.709
0.324,-0.935,0.626,16.052,-10.132,-3.723
0.256,-0.937,0.597,19.287,-14.221,-6.348
0.236,-0.965,0.579,22.888,-16.846,-6.714
0.181,-0.971,0.566,25.208,-19.348,-7.874
0.125,-0.965,0.552,27.161,-20.935,-8.484
0.075,-0.968,0.536,28.992,-21.973,-9.583
0.058,-0.962,0.532,30.884,-21.423,-11.475
0.048,-0.942,0.525,32.593,-20.020,-13.794
0.068,-0.931,0.518,35.400,-19.226,-15.808
0.073,-0.927,0.508,38.208,-19.958,-18.250
0.081,-0.923,0.509,40.710,-21.301,-20.691
0.056,-0.911,0.496,43.640,-22.461,-22.827
0.064,-0.920,0.489,46.509,-22.827,-23.926
0.043,-0.919,0.490,49.133,-22.644,-24.963
0.045,-0.932,0.496,51.758,-22.278,-25.330
0.029,-0.931,0.493,54.138,-22.766,-26.001
-0.026,-0.937,0.473,56.946,-23.254,-26.978
-0.066,-0.956,0.437,60.364,-22.095,-27.222
-0.075,-0.967,0.404,63.293,-19.409,-26.978
-0.058,-0.999,0.398,66.101,-16.174,-26.611
-0.036,-1.011,0.388,67.261,-14.648,-25.452
-0.010,-1.023,0.371,67.200,-15.015,-22.888
-0.020,-1.026,0.350,66.345,-15.991,-18.555
-0.043,-1.074,0.326,67.688,-15.015,-13.306
-0.079,-1.131,0.308,70.557,-12.451,-10.498
-0.098,-1.158,0.310,71.533,-9.277,-10.742
-0.133,-1.160,0.302,72.693,-4.517,-12.390
-0.181,-1.172,0.305,75.439,2.197,-15.686
-0.191,-1.211,0.328,79.224,10.864,-19.409
-0.163,-1.275,0.366,84.778,19.714,-23.865
-0.089,-1.327,0.443,91.003,25.696,-29.480
-0.029,-1.387,0.491,97.473,26.672,-32.959
-0.026,-1.454,0.497,102.600,21.606,-33.569
-0.020,-1.501,0.493,105.835,10.254,-31.311
-0.016,-1.541,0.448,110.779,-8.545,-23.743
-0.033,-1.559,0.434,112.427,-30.273,-17.029
-0.066,-1.612,0.407,110.352,-47.607,-12.695
-0.095,-1.720,0.376,105.835,-58.350,-7.507
-0.098,-1.809,0.313,98.145,-61.096,-2.258
-0.100,-1.784,0.238,88.379,-57.373,0.244
-0.056,-1.727,0.190,79.407,-48.950,0.427
0.027,-1.638,0.134,73.975,-41.382,-3.540
0.095,-1.548,0.127,69.641,-33.203,-9.155
0.122,-1.426,0.126,63.904,-21.912,-14.771
0.137,-1.281,0.127,57.861,-6.470,-19.287
0.170,-1.155,0.138,53.772,8.789,-23.560
0.222,-1.049,0.145,52.246,20.325,-28.442
0.277,-0.962,0.153,51.758,28.015,-31.616
0.304,-0.865,0.156,50.720,32.715,-31.311
0.311,-0.792,0.161,50.232,34.973,-27.100
0.297,-0.734,0.139,49.683,35.278,-19.897
0.272,-0.671,0.122,49.194,35.828,-10.315
0.256,-0.632,0.126,49.316,37.048,1.282
0.249,-0.622,0.128,49.438,37.231,14.099
0.244,-0.620,0.127,48.950,36.133,26.184
0.235,-0.614,0.131,47.119,34.851,37.048
0.226,-0.602,0.133,44.739,32.898,47.058
0.215,-0.591,0.136,41.626,30.640,55.908
0.200,-0.582,0.133,37.842,28.503,63.660
0.179,-0.580,0.132,33.203,26.794,69.458
0.170,-0.584,0.133,27.710,25.269,73.242
0.161,-0.576,0.128,21.484,23.315,75.256
0.146,-0.564,0.121,15.198,21.301,76.050
0.130,-0.560,0.115,8.545,20.142,76.355
0.116,-0.559,0.107,2.197,18.982,75.928
0.105,-0.554,0.101,-4.395,18.005,74.646
0.096,-0.550,0.095,-10.803,16.907,72.876
0.084,-0.545,0.086,-16.846,15.564,70.862
0.080,-0.552,0.081,-22.888,14.343,68.909
0.085,-0.564,0.073,-28.381,12.268,66.162
0.084,-0.571,0.064,-33.508,9.460,62.500
0.086,-0.577,0.061,-37.781,6.531,58.472
0.093,-0.590,0.058,-40.833,2.136,54.260
0.103,-0.610,0.055,-42.725,-2.869,50.049
0.108,-0.633,0.050,-43.518,-8.911,45.532
0.112,-0.658,0.045,-43.335,-15.869,40.222
0.112,-0.690,0.037,-41.443,-23.376,34.058
0.108,-0.726,0.031,-38.879,-29.663,27.588
0.111,-0.762,0.030,-34.668,-34.607,20.813
0.118,-0.801,0.036,-29.541,-38.696,14.099
0.127,-0.841,0.047,-23.499,-41.870,7.874
0.139,-0.880,0.059,-16.357,-44.189,2.625
0.144,-0.917,0.069,-9.399,-46.204,-1.709
0.146,-0.951,0.073,-3.235,-47.241,-4.761
0.147,-0.977,0.076,2.380,-46.997,-7.812
0.146,-0.996,0.075,7.202,-44.861,-10.681

0.637,-1.583,0.156,-134.521,9.460,-16.235
0.503,-1.511,0.122,-131.348,-1.770,-12.878
0.295,-1.491,0.089,-126.648,-17.334,-6.348
0.139,-1.553,0.090,-119.141,-33.813,-4.211
0.019,-1.613,0.167,-116.272,-30.579,0.366
-0.060,-1.503,0.176,-114.990,-19.775,0.549
-0.000,-1.518,0.305,-113.647,-8.667,5.249
0.004,-1.542,0.390,-110.596,-2.197,13.428
-0.016,-1.625,0.375,-107.971,-2.197,18.616
-0.049,-1.801,0.264,-103.882,-13.123,12.939
-0.064,-1.777,0.254,-99.854,-12.878,0.610
0.077,-1.793,0.314,-98.328,-4.883,-3.174
0.135,-1.703,0.375,-95.215,-4.883,-2.563
0.070,-1.623,0.358,-91.614,-10.376,1.160
-0.035,-1.561,0.295,-88.257,-15.442,8.057
-0.155,-1.439,0.309,-84.229,-14.832,11.963
-0.240,-1.333,0.264,-79.956,-11.230,13.733
-0.218,-1.270,0.286,-74.646,-1.831,15.137
-0.110,-1.208,0.378,-69.092,8.728,17.639
-0.029,-1.144,0.405,-63.965,14.282,19.104
0.024,-1.082,0.467,-61.218,16.907,20.203
0.073,-1.001,0.546,-60.120,18.127,20.630
0.104,-0.942,0.589,-57.251,17.578,19.104
0.151,-0.900,0.612,-52.185,16.357,16.602
0.213,-0.852,0.615,-46.753,14.771,14.160
0.243,-0.814,0.610,-42.053,11.658,12.573
0.259,-0.791,0.624,-36.499,9.094,10.681
0.266,-0.789,0.623,-30.396,6.531,8.667
0.286,-0.793,0.626,-23.560,4.578,6.714
0.287,-0.807,0.628,-16.968,2.808,4.700
0.289,-0.824,0.625,-10.803,0.916,2.991
0.291,-0.847,0.610,-5.188,-0.977,1.343
0.289,-0.882,0.584,-0.122,-3.052,-0.366
0.267,-0.910,0.559,3.235,-5.493,-2.014
0.242,-0.929,0.539,6.348,-7.202,-3.418
0.231,-0.933,0.535,9.460,-8.484,-5.249
0.227,-0.939,0.523,12.451,-9.521,-6.592
0.216,-0.950,0.518,15.503,-10.376,-6.836
0.212,-0.966,0.535,18.860,-10.803,-6.592
0.228,-0.977,0.538,21.973,-10.986,-6.287
0.216,-0.972,0.542,24.475,-12.268,-6.104
0.197,-0.965,0.548,26.794,-14.038,-6.165
0.153,-0.945,0.535,29.053,-15.564,-6.897
0.103,-0.902,0.526,31.189,-15.930,-7.507
0.092,-0.881,0.503,34.729,-15.320,-7.935
0.090,-0.871,0.499,37.964,-13.977,-9.338
0.096,-0.886,0.487,41.077,-13.184,-9.949
0.083,-0.901,0.479,43.457,-12.756,-10.559
0.072,-0.917,0.486,45.654,-12.146,-11.108
0.084,-0.937,0.510,47.363,-12.451,-12.085
0.075,-0.943,0.525,49.133,-13.428,-14.404
0.064,-0.953,0.516,51.147,-14.893,-16.785
0.064,-0.957,0.496,52.856,-15.869,-18.494
0.042,-0.962,0.482,54.016,-16.602,-19.409
0.016,-0.993,0.463,54.199,-16.418,-18.982
0.002,-1.031,0.445,55.359,-15.808,-18.433
0.000,-1.043,0.456,54.932,-15.503,-18.250
0.006,-1.050,0.444,53.711,-15.442,-16.968
0.001,-1.061,0.434,54.749,-15.198,-16.785
-0.010,-1.057,0.425,55.664,-15.747,-16.602
-0.033,-1.058,0.420,56.274,-14.404,-15.137
-0.058,-1.064,0.420,58.044,-12.573,-13.733
-0.096,-1.055,0.418,59.875,-10.254,-13.367
-0.130,-1.073,0.396,62.439,-7.324,-12.634
-0.190,-1.100,0.363,66.101,-2.197,-12.268
-0.230,-1.140,0.347,70.190,5.188,-12.817
-0.250,-1.163,0.364,72.815,14.465,-15.259
-0.253,-1.192,0.397,75.623,24.292,-19.165
-0.231,-1.230,0.453,79.468,33.325,-24.353
-0.171,-1.282,0.498,83.618,39.124,-30.579
-0.102,-1.377,0.505,86.060,38.330,-37.292
-0.028,-1.430,0.502,84.534,31.494,-43.274
0.060,-1.479,0.471,81.543,17.578,-44.861
0.115,-1.480,0.462,78.979,-2.808,-43.152
0.124,-1.458,0.469,74.158,-24.719,-41.931
0.106,-1.452,0.436,70.679,-45.349,-40.710
0.077,-1.465,0.396,68.359,-61.829,-38.208
0.045,-1.467,0.379,66.467,-72.388,-34.302
0.029,-1.408,0.348,63.049,-78.308,-30.579
0.039,-1.325,0.302,61.646,-81.055,-27.466
0.039,-1.264,0.284,61.279,-79.468,-23.254
0.025,-1.209,0.265,60.486,-73.853,-18.372
0.007,-1.158,0.245,58.960,-64.209,-13.428
-0.006,-1.119,0.228,56.030,-50.415,-8.484
-0.006,-1.081,0.211,52.002,-33.386,-4.211
0.009,-1.042,0.193,47.729,-14.832,-1.587
0.033,-0.997,0.181,44.067,3.235,0.671
0.055,-0.949,0.172,40.833,20.996,2.319
0.073,-0.901,0.164,38.208,37.170,4.211
0.089,-0.857,0.163,36.621,51.025,6.287
0.109,-0.828,0.167,35.767,62.378,8.972
0.140,-0.816,0.175,34.973,70.129,11.108
0.168,-0.796,0.180,33.630,73.730,12.817
0.184,-0.762,0.171,32.043,74.646,14.526
0.191,-0.726,0.167,30.579,73.608,16.907
0.193,-0.703,0.167,29.114,71.289,19.836
0.194,-0.685,0.157,27.466,67.505,22.461
0.186,-0.658,0.143,25.452,63.477,24.902
0.177,-0.639,0.129,23.193,59.875,27.222
0.171,-0.625,0.119,21.118,56.641,29.541
0.165,-0.612,0.104,18.860,53.528,30.945
0.158,-0.595,0.094,16.052,51.025,32.349
0.156,-0.578,0.087,13.184,48.889,33.630
0.150,-0.567,0.077,10.376,46.692,34.790
0.153,-0.567,0.072,7.568,44.373,36.377
0.150,-0.567,0.070,4.578,41.931,37.109
0.148,-0.565,0.069,1.953,39.368,37.231
0.142,-0.559,0.066,-1.221,36.560,37.476
0.140,-0.555,0.065,-4.089,33.875,37.537
0.138,-0.557,0.064,-6.348,30.945,37.170
0.138,-0.566,0.064,-8.423,27.893,36.865
0.135,-0.578,0.062,-10.437,24.353,36.316
0.134,-0.599,0.063,-12.024,20.569,35.156
0.136,-0.628,0.065,-13.123,16.357,34.058
0.138,-0.663,0.071,-13.855,11.597,32.593
0.136,-0.704,0.077,-14.282,6.104,30.396
0.131,-0.740,0.078,-13.977,0.732,27.771
0.126,-0.772,0.078,-13.672,-4.456,24.963
0.118,-0.805,0.075,-13.062,-9.460,21.484

0.592,-1.903,0.432,-71.960,2.319,-3.662
0.675,-2.036,0.518,-84.656,-9.460,-3.967
0.586,-1.976,0.301,-98.511,-37.781,-12.024
0.420,-1.939,0.286,-100.830,-61.646,-28.076
0.287,-1.957,0.257,-106.689,-69.641,-34.180
0.217,-1.854,0.253,-113.464,-72.571,-37.659
-0.007,-1.635,0.033,-115.234,-70.129,-36.621
-0.128,-1.426,0.148,-105.652,-49.133,-27.039
0.045,-1.442,0.478,-91.431,-33.752,-6.042
-0.258,-1.416,0.053,-75.745,-51.025,8.362
-0.575,-1.493,0.050,-56.702,-47.424,16.479
-0.505,-1.494,0.157,-42.786,-20.935,21.362
-0.378,-1.448,0.201,-36.194,4.028,21.790
-0.263,-1.455,0.228,-34.119,21.057,24.292
-0.090,-1.477,0.280,-30.823,34.363,27.710
0.088,-1.512,0.326,-29.358,44.434,31.128
0.210,-1.469,0.347,-31.128,47.119,30.334
0.319,-1.401,0.412,-36.316,46.509,28.931
0.442,-1.326,0.451,-41.992,44.128,27.344
0.545,-1.227,0.474,-47.058,36.926,25.146
0.575,-1.103,0.459,-50.415,24.902,22.705
0.534,-0.968,0.462,-50.598,10.437,19.775
0.446,-0.852,0.490,-48.096,-2.747,16.541
0.320,-0.734,0.499,-43.579,-12.817,11.963
0.200,-0.641,0.524,-36.499,-18.555,7.935
0.131,-0.596,0.536,-26.062,-18.982,4.333
0.131,-0.618,0.549,-14.221,-15.808,1.160
0.184,-0.687,0.571,-2.930,-11.597,-2.258
0.253,-0.776,0.567,6.897,-9.338,-4.517
0.275,-0.874,0.554,14.893,-10.498,-6.287
0.255,-0.921,0.535,20.630,-13.062,-8.972
0.227,-0.964,0.518,24.902,-15.320,-10.315
0.226,-0.993,0.509,27.771,-16.602,-11.169
0.214,-1.023,0.505,29.663,-18.311,-11.780
0.172,-1.050,0.493,30.579,-20.203,-12.451
0.128,-1.057,0.473,30.640,-21.057,-12.512
0.113,-1.067,0.455,30.945,-21.057,-12.390
0.064,-1.040,0.437,31.372,-21.179,-14.099
0.038,-1.035,0.429,31.738,-19.958,-14.160
0.030,-1.014,0.427,33.264,-17.883,-14.709
0.023,-0.996,0.431,35.278,-15.381,-16.052
0.031,-0.989,0.418,37.537,-12.512,-16.785
0.040,-1.000,0.418,39.612,-9.216,-17.639
0.074,-1.024,0.426,41.321,-6.104,-18.250
0.107,-1.043,0.426,41.260,-4.517,-18.677
0.119,-1.045,0.421,40.771,-4.639,-19.470
0.118,-1.032,0.428,40.222,-5.188,-20.447
0.112,-1.026,0.435,40.161,-6.348,-20.752
0.100,-1.012,0.418,40.649,-8.423,-20.935
0.082,-0.998,0.393,41.382,-10.559,-21.484
0.058,-0.976,0.368,42.419,-12.085,-21.240
0.032,-0.964,0.352,45.044,-13.062,-20.996
0.010,-0.964,0.339,49.194,-13.062,-20.447
-0.003,-0.994,0.325,54.199,-11.169,-20.020
-0.008,-1.016,0.314,59.082,-7.996,-19.775
-0.017,-1.037,0.317,64.087,-3.235,-20.508
-0.009,-1.051,0.320,67.322,1.404,-21.606
0.018,-1.065,0.325,70.862,5.066,-22.461
0.057,-1.079,0.341,74.280,7.385,-22.705
0.083,-1.093,0.345,77.637,7.629,-22.217
0.067,-1.116,0.340,80.811,6.897,-20.630
0.031,-1.149,0.351,82.520,5.554,-18.127
0.014,-1.202,0.358,84.167,2.930,-13.245
0.029,-1.270,0.361,87.463,-2.197,-8.240
0.072,-1.361,0.360,91.858,-11.963,-2.136
0.110,-1.463,0.356,97.473,-27.710,6.165
0.130,-1.535,0.356,99.670,-46.509,12.512
0.112,-1.602,0.352,98.267,-64.270,15.991
0.092,-1.672,0.348,94.482,-78.796,19.287
0.082,-1.723,0.346,89.233,-88.562,21.545
0.069,-1.708,0.340,83.862,-93.689,22.095
0.065,-1.662,0.296,80.200,-94.666,19.348
0.054,-1.631,0.297,77.759,-89.050,15.503
0.034,-1.540,0.307,73.975,-75.989,9.766
0.031,-1.400,0.278,72.205,-60.181,-0.488
0.053,-1.314,0.259,75.500,-42.969,-13.184
0.077,-1.270,0.239,81.360,-26.367,-27.283
0.104,-1.241,0.234,85.510,-9.216,-39.551
0.127,-1.186,0.242,86.487,7.996,-48.767
0.157,-1.142,0.235,84.229,25.024,-54.993
0.194,-1.115,0.232,80.505,38.818,-59.509
0.229,-1.078,0.228,75.012,49.316,-61.462
0.259,-1.021,0.214,67.505,56.396,-60.364
0.280,-0.963,0.195,59.021,60.730,-55.847
0.294,-0.918,0.180,50.415,62.622,-47.485
0.300,-0.872,0.165,41.321,62.073,-36.560
0.303,-0.835,0.151,31.738,58.960,-23.804
0.302,-0.798,0.137,21.851,54.688,-10.132
0.289,-0.757,0.121,12.085,49.744,2.869
0.276,-0.723,0.103,2.869,45.349,16.479
0.253,-0.687,0.087,-5.554,42.053,28.625
0.230,-0.661,0.078,-13.306,40.649,39.429
0.210,-0.637,0.075,-20.203,40.222,47.974
0.192,-0.611,0.074,-26.978,40.710,54.871
0.177,-0.586,0.074,-32.593,41.504,60.364
0.164,-0.564,0.074,-37.048,42.297,64.636
0.154,-0.552,0.074,-40.771,43.030,67.871
0.147,-0.544,0.075,-43.823,43.152,70.251
0.143,-0.540,0.075,-45.593,42.603,71.594
0.140,-0.537,0.072,-46.997,41.016,72.266
0.135,-0.535,0.066,-47.852,38.452,72.449
0.129,-0.533,0.060,-47.729,35.339,72.205
0.123,-0.535,0.055,-46.631,31.860,71.838
0.118,-0.538,0.052,-45.166,28.137,71.228
0.111,-0.547,0.049,-43.213,23.987,70.251
0.101,-0.559,0.044,-40.955,19.592,69.092
0.089,-0.573,0.042,-38.330,15.198,67.444
0.074,-0.590,0.037,-35.706,10.986,65.552
0.056,-0.606,0.034,-33.447,7.385,63.538
0.036,-0.619,0.030,-31.006,4.150,61.218
0.014,-0.638,0.022,-28.870,1.770,58.350
-0.005,-0.662,0.013,-27.222,0.610,55.176
-0.021,-0.695,0.006,-25.574,0.305,51.147
-0.032,-0.729,0.001,-23.987,1.099,46.265
-0.041,-0.759,-0.000,-22.888,2.625,40.894
-0.040,-0.790,0.000,-21.545,4.456,34.668
-0.030,-0.823,0.006,-19.653,5.859,27.527
-0.011,-0.861,0.011,-17.029,6.958,19.470
0.010,-0.903,0.020,-13.550,7.080,10.254

0.774,-1.604,0.242,-145.935,71.777,-44.434
0.770,-1.658,0.172,-142.273,48.889,-39.185
0.637,-1.667,0.108,-141.235,19.958,-31.860
0.439,-1.640,0.119,-141.846,-10.986,-21.606
0.175,-1.680,0.224,-140.808,-31.616,-12.390
-0.097,-1.607,0.318,-137.817,-38.818,-11.108
-0.246,-1.525,0.362,-131.714,-32.471,-11.108
-0.229,-1.506,0.383,-121.033,-20.630,-10.681
-0.197,-1.487,0.407,-110.046,-8.484,-12.878
-0.114,-1.476,0.465,-101.929,4.700,-10.376
0.030,-1.583,0.561,-98.694,16.907,-1.282
0.025,-1.540,0.552,-94.727,14.465,3.174
-0.021,-1.518,0.566,-90.881,8.484,6.226
-0.077,-1.454,0.520,-87.158,6.531,9.216
-0.154,-1.347,0.458,-83.374,3.357,7.324
-0.161,-1.306,0.399,-80.322,4.272,7.080
-0.141,-1.251,0.387,-75.195,7.507,6.104
-0.067,-1.207,0.411,-69.702,12.756,5.432
0.071,-1.196,0.472,-64.087,17.944,7.324
0.100,-1.185,0.471,-59.387,17.761,8.545
0.153,-1.145,0.511,-55.359,18.005,11.169
0.187,-1.080,0.547,-51.208,17.700,13.123
0.229,-1.036,0.572,-46.570,18.127,13.489
0.295,-0.993,0.611,-42.419,19.165,12.939
0.330,-0.912,0.641,-38.696,18.066,12.085
0.378,-0.860,0.660,-33.569,14.832,11.414
0.369,-0.818,0.663,-27.466,9.705,10.254
0.341,-0.791,0.643,-22.278,5.188,9.644
0.288,-0.713,0.639,-18.250,1.587,7.263
0.259,-0.663,0.639,-11.902,0.000,4.456
0.265,-0.657,0.637,-4.211,-0.488,1.831
0.305,-0.689,0.644,3.052,-1.709,-0.488
0.331,-0.746,0.630,10.498,-3.906,-2.380
0.340,-0.818,0.632,17.090,-6.287,-3.601
0.323,-0.893,0.630,23.010,-8.667,-4.456
0.279,-0.964,0.621,27.405,-12.451,-5.432
0.228,-1.000,0.602,30.579,-16.663,-6.531
0.162,-1.012,0.550,33.813,-19.897,-8.057
0.106,-1.026,0.530,36.377,-22.217,-9.033
0.043,-1.020,0.510,38.696,-23.132,-9.460
0.027,-1.027,0.515,41.138,-21.729,-9.705
0.038,-1.013,0.496,44.312,-20.996,-10.315
0.015,-1.010,0.504,46.570,-20.752,-11.353
-0.005,-1.005,0.503,48.157,-20.569,-12.146
-0.046,-1.000,0.507,49.255,-19.775,-13.489
-0.065,-0.999,0.501,51.208,-18.005,-14.099
-0.067,-0.985,0.464,53.467,-15.503,-15.015
-0.056,-0.983,0.437,56.152,-11.658,-15.564
-0.050,-1.001,0.433,57.861,-7.874,-15.625
-0.046,-1.003,0.409,59.326,-5.310,-16.052
-0.034,-0.991,0.406,59.998,-2.686,-16.907
-0.028,-0.968,0.409,61.096,-0.549,-17.273
-0.036,-0.948,0.414,62.927,1.526,-16.907
-0.038,-0.931,0.415,64.819,3.479,-15.564
-0.064,-0.906,0.416,66.162,5.981,-13.794
-0.080,-0.936,0.427,68.665,8.484,-11.230
-0.093,-0.970,0.398,71.533,9.827,-9.766
-0.104,-0.989,0.366,73.669,13.489,-8.972
-0.089,-1.002,0.359,75.256,19.287,-7.507
-0.058,-1.030,0.341,78.979,25.391,-6.042
-0.047,-1.063,0.312,84.412,31.250,-6.348
-0.073,-1.067,0.298,89.355,38.269,-8.728
-0.105,-1.075,0.297,92.651,47.119,-10.742
-0.128,-1.089,0.290,94.788,56.213,-12.268
-0.150,-1.143,0.263,97.107,65.002,-13.977
-0.153,-1.221,0.250,101.257,73.242,-15.381
-0.092,-1.312,0.282,107.910,78.857,-16.418
0.006,-1.425,0.317,115.295,78.369,-17.090
0.115,-1.548,0.363,120.789,68.542,-16.235
0.090,-1.660,0.364,123.596,45.410,-11.902
0.027,-1.693,0.374,121.155,21.240,-10.315
0.041,-1.749,0.374,117.065,-0.854,-10.742
0.109,-1.808,0.375,110.046,-20.325,-9.216
0.167,-1.825,0.387,98.816,-35.950,-8.362
0.192,-1.765,0.366,87.341,-47.058,-9.827
0.196,-1.633,0.311,78.064,-53.284,-13.489
0.206,-1.497,0.274,73.059,-54.260,-19.714
0.217,-1.400,0.247,70.984,-50.720,-28.809
0.217,-1.303,0.210,69.458,-42.908,-40.771
0.220,-1.212,0.200,65.918,-31.250,-52.979
0.251,-1.141,0.195,59.326,-17.273,-62.500
0.287,-1.050,0.176,50.537,-4.517,-70.435
0.305,-0.952,0.152,42.175,7.385,-74.890
0.313,-0.868,0.135,34.180,19.165,-74.402
0.318,-0.797,0.123,27.649,29.358,-69.580
0.322,-0.736,0.116,22.339,36.621,-60.486
0.326,-0.687,0.110,17.761,41.199,-47.546
0.329,-0.643,0.109,13.611,43.213,-31.128
0.326,-0.609,0.110,9.583,42.480,-12.085
0.314,-0.587,0.113,5.310,40.344,8.667
0.296,-0.582,0.120,0.916,36.499,30.273
0.266,-0.588,0.115,-2.747,31.799,49.805
0.228,-0.588,0.117,-6.287,27.466,66.956
0.204,-0.607,0.123,-9.888,23.987,81.543
0.180,-0.630,0.119,-13.489,21.057,92.285
0.130,-0.617,0.112,-18.005,19.409,99.731
0.112,-0.623,0.116,-22.339,18.921,105.591
0.078,-0.622,0.099,-26.672,18.860,108.826
0.059,-0.634,0.094,-31.067,20.996,110.291
0.035,-0.629,0.081,-35.217,23.682,109.070
0.025,-0.632,0.075,-39.124,27.100,106.506
0.016,-0.630,0.069,-42.847,30.823,103.027
0.016,-0.634,0.064,-45.715,34.180,98.877
0.013,-0.632,0.060,-47.607,36.438,94.055
0.012,-0.629,0.054,-49.194,37.781,89.233
0.013,-0.625,0.047,-50.110,38.086,83.862
0.013,-0.627,0.038,-50.293,37.598,78.491
0.014,-0.635,0.029,-50.293,36.194,72.937
0.021,-0.653,0.025,-49.316,33.936,67.139
0.033,-0.682,0.025,-47.241,30.579,60.791
0.042,-0.715,0.024,-44.312,26.245,53.772
0.052,-0.742,0.025,-40.649,20.752,46.448
0.062,-0.760,0.028,-36.316,14.526,38.757
0.079,-0.779,0.035,-31.128,7.141,30.762
0.100,-0.804,0.045,-25.146,-0.671,22.339
0.115,-0.830,0.049,-18.005,-8.972,13.428
0.124,-0.856,0.054,-10.864,-17.578,3.845
0.134,-0.877,0.060,-3.418,-25.452,-4.822
0.148,-0.894,0.066,3.662,-31.860,-13.062

0.605,-1.977,0.514,-130.066,88.806,2.319
0.692,-1.941,0.210,-134.277,69.275,-10.559
0.822,-1.969,0.081,-133.423,53.406,-14.343
0.786,-1.964,0.022,-124.817,24.414,-12.451
0.623,-1.991,0.101,-115.723,-3.906,-10.803
0.359,-2.012,0.194,-113.281,-28.931,-5.066
0.091,-1.948,0.172,-111.450,-47.913,-7.019
-0.030,-1.834,0.182,-112.610,-46.814,-6.226
-0.054,-1.707,0.224,-114.990,-37.842,-1.099
-0.023,-1.673,0.248,-112.305,-32.288,1.221
0.007,-1.637,0.205,-107.178,-31.311,-1.343
0.027,-1.570,0.165,-105.774,-29.053,-1.831
-0.019,-1.524,0.199,-105.042,-23.926,3.113
-0.017,-1.511,0.299,-103.882,-12.817,12.817
0.006,-1.413,0.392,-99.854,-5.798,20.325
-0.116,-1.446,0.351,-92.712,-7.690,23.437
-0.225,-1.405,0.312,-83.069,-7.690,18.738
-0.185,-1.278,0.341,-78.064,1.038,16.724
-0.103,-1.173,0.377,-74.585,9.705,19.958
-0.095,-1.104,0.399,-70.313,11.230,22.766
-0.112,-1.057,0.418,-66.467,13.000,23.682
-0.067,-1.001,0.473,-62.683,18.555,22.156
0.033,-0.955,0.520,-58.777,23.682,19.897
0.117,-0.913,0.538,-54.871,26.611,17.639
0.212,-0.898,0.558,-50.049,27.405,14.587
0.312,-0.889,0.547,-45.776,26.733,11.719
0.386,-0.875,0.583,-42.603,23.865,9.583
0.443,-0.907,0.641,-38.086,20.081,9.094
0.454,-0.904,0.672,-33.569,15.076,7.996
0.439,-0.887,0.686,-27.893,9.033,6.409
0.390,-0.858,0.664,-21.545,2.136,4.456
0.316,-0.830,0.640,-15.686,-3.723,2.258
0.251,-0.799,0.606,-10.315,-7.629,-0.488
0.219,-0.774,0.586,-5.859,-8.911,-2.747
0.186,-0.751,0.571,-1.160,-8.728,-4.333
0.176,-0.760,0.555,4.028,-7.568,-5.371
0.173,-0.786,0.568,9.155,-5.554,-5.249
0.206,-0.831,0.579,14.282,-4.150,-5.432
0.206,-0.879,0.572,19.775,-3.479,-6.409
0.232,-0.931,0.568,23.987,-2.686,-7.324
0.245,-0.966,0.546,26.978,-3.601,-9.705
0.256,-0.979,0.540,28.870,-5.188,-10.864
0.230,-0.979,0.535,30.701,-7.568,-11.963
0.200,-0.979,0.542,33.081,-10.254,-13.062
0.170,-0.973,0.543,35.767,-12.695,-14.282
0.122,-0.960,0.520,38.330,-15.076,-15.869
0.077,-0.949,0.514,40.894,-15.747,-17.273
0.048,-0.934,0.520,43.640,-15.442,-18.677
0.029,-0.915,0.502,46.631,-13.855,-20.142
0.029,-0.905,0.482,49.866,-11.780,-21.606
0.033,-0.901,0.454,53.345,-9.888,-22.888
0.033,-0.902,0.452,56.152,-8.301,-23.865
0.023,-0.910,0.445,58.777,-6.958,-24.658
-0.000,-0.923,0.442,61.096,-5.432,-25.085
-0.002,-0.928,0.444,62.561,-3.235,-25.574
0.021,-0.941,0.436,64.331,-1.587,-25.879
0.033,-0.959,0.427,67.078,-1.160,-26.184
0.047,-0.967,0.420,68.909,-1.099,-26.367
0.042,-0.978,0.410,70.435,-1.099,-27.283
0.035,-0.991,0.397,71.350,-1.160,-27.832
0.008,-1.001,0.391,72.083,-1.038,-28.381
-0.019,-1.013,0.386,73.425,-0.732,-28.687
-0.050,-1.026,0.364,74.707,0.305,-28.503
-0.076,-1.045,0.330,76.050,2.441,-27.466
-0.098,-1.059,0.303,77.393,4.517,-25.146
-0.119,-1.079,0.271,79.102,7.324,-22.461
-0.145,-1.109,0.232,83.130,11.353,-20.447
-0.168,-1.153,0.200,86.853,16.235,-18.982
-0.180,-1.199,0.174,90.027,23.315,-16.174
-0.176,-1.255,0.157,94.055,32.715,-13.611
-0.211,-1.316,0.152,97.900,43.579,-11.780
-0.236,-1.406,0.197,101.135,57.495,-11.047
-0.208,-1.496,0.257,105.774,71.289,-10.376
-0.124,-1.578,0.290,113.525,79.041,-10.315
-0.061,-1.725,0.277,124.573,75.562,-8.728
-0.093,-1.874,0.250,133.850,59.082,-4.089
-0.120,-1.949,0.311,131.104,40.894,-4.395
-0.061,-2.042,0.329,124.146,23.132,-9.338
0.038,-2.071,0.349,112.793,9.583,-16.602
0.137,-1.989,0.368,97.107,1.953,-27.893
0.217,-1.797,0.357,80.383,-2.380,-40.710
0.272,-1.555,0.306,67.139,-4.517,-52.917
0.290,-1.385,0.251,58.655,-4.761,-63.965
0.281,-1.228,0.166,51.147,-3.540,-75.317
0.275,-1.072,0.087,43.823,1.587,-85.693
0.264,-0.953,0.031,37.231,10.193,-93.140
0.261,-0.846,-0.034,30.212,21.179,-96.130
0.256,-0.747,-0.051,24.231,33.325,-93.384
0.303,-0.743,-0.026,20.325,42.175,-86.182
0.365,-0.707,-0.032,16.296,43.701,-78.430
0.380,-0.629,-0.021,13.184,44.373,-64.270
0.370,-0.601,0.009,11.963,43.457,-42.358
0.336,-0.584,0.035,10.315,39.429,-18.188
0.292,-0.567,0.062,8.362,34.119,5.676
0.263,-0.556,0.089,6.165,28.809,29.175
0.240,-0.566,0.098,4.272,23.621,49.805
0.201,-0.588,0.092,2.930,19.348,66.895
0.154,-0.613,0.090,1.587,16.968,80.505
0.120,-0.634,0.083,-0.732,15.930,91.248
0.104,-0.644,0.072,-2.930,16.907,98.877
0.086,-0.636,0.065,-4.761,18.982,103.638
0.059,-0.634,0.057,-5.371,21.606,106.750
0.057,-0.661,0.060,-5.676,24.658,108.215
0.036,-0.655,0.040,-6.531,27.527,106.201
0.023,-0.650,0.041,-7.935,31.494,102.600
0.016,-0.638,0.040,-9.827,35.217,97.534
0.014,-0.630,0.038,-11.841,38.208,91.980
0.021,-0.630,0.041,-14.038,40.466,85.938
0.031,-0.633,0.041,-16.418,41.138,79.163
0.043,-0.634,0.042,-18.982,40.833,72.083
0.052,-0.632,0.039,-21.729,38.940,64.880
0.059,-0.635,0.037,-23.743,35.522,57.922
0.062,-0.641,0.031,-25.208,30.823,51.453
0.060,-0.644,0.026,-26.001,25.085,45.654
0.056,-0.641,0.023,-26.062,18.677,40.222
0.052,-0.648,0.020,-25.635,12.207,35.217
0.038,-0.662,0.017,-24.597,5.798,30.334
0.022,-0.679,0.016,-22.583,-0.244,26.001
0.006,-0.701,0.014,-19.958,-5.371,21.423

0.435,-0.919,1.011,8.789,137.817,60.364
0.188,-0.489,0.518,-36.377,69.275,33.142
0.299,-0.345,0.003,-68.542,22.949,19.897
0.383,-0.346,-0.261,-77.942,2.930,15.930
0.397,-0.407,-0.345,-78.186,-0.244,21.057
0.394,-0.598,-0.272,-75.623,10.498,32.043
0.296,-0.807,-0.183,-77.148,28.503,40.527
0.259,-0.858,-0.183,-83.008,49.561,45.837
0.306,-0.970,-0.206,-83.008,68.237,53.223
0.296,-1.069,-0.209,-79.346,88.440,62.988
0.281,-1.120,-0.250,-72.021,109.558,70.740
0.279,-1.264,-0.172,-57.129,121.704,76.965
0.336,-1.428,-0.020,-45.166,127.747,81.116
0.387,-1.582,0.168,-46.326,123.718,74.585
0.362,-1.589,0.236,-53.223,96.558,56.702
0.434,-1.425,0.082,-67.688,55.359,44.312
0.443,-1.358,-0.085,-78.735,16.541,46.082
0.357,-1.439,-0.261,-84.290,-13.794,55.420
0.160,-1.476,-0.275,-86.609,-27.405,68.665
-0.022,-1.333,-0.309,-88.135,-19.714,81.055
-0.137,-1.327,-0.286,-81.604,-0.549,94.910
-0.104,-1.303,-0.257,-61.584,22.827,103.821
-0.012,-1.430,-0.188,-30.212,42.175,103.394
0.057,-1.606,-0.119,-4.272,55.054,95.215
0.197,-1.683,-0.193,8.972,57.129,79.468
0.485,-1.737,-0.240,10.925,51.086,67.261
0.704,-1.736,-0.187,2.747,38.879,65.796
0.747,-1.670,-0.184,-5.493,17.578,67.932
0.638,-1.767,-0.114,-9.399,-1.831,71.289
0.525,-1.825,-0.230,-17.395,-17.517,72.327
0.444,-1.810,-0.302,-29.907,-31.372,69.275
0.330,-1.651,-0.405,-44.189,-40.466,64.514
0.175,-1.509,-0.479,-54.016,-42.603,59.998
0.033,-1.450,-0.442,-53.467,-35.706,53.833
0.041,-1.381,-0.333,-49.377,-24.780,43.762
0.165,-1.281,-0.230,-44.800,-14.832,36.865
0.335,-1.234,-0.180,-40.283,-7.202,35.339
0.390,-1.167,-0.128,-35.706,-5.066,35.767
0.397,-1.179,-0.087,-32.104,-3.784,37.170
0.410,-1.117,-0.047,-31.738,-1.099,36.804
0.487,-1.041,0.006,-32.593,3.235,34.790
0.571,-0.999,0.060,-30.640,5.737,32.410
0.601,-0.985,0.075,-27.222,5.249,29.907
0.614,-0.994,0.073,-25.085,3.418,27.588
0.590,-1.005,0.073,-23.499,0.427,23.682
0.554,-0.990,0.089,-23.560,-2.197,18.127
0.517,-0.969,0.109,-23.254,-3.723,13.062
0.448,-0.961,0.109,-21.240,-4.883,8.240
0.386,-0.936,0.102,-18.494,-4.944,3.967
0.366,-0.936,0.099,-14.709,-2.563,0.610
0.424,-0.987,0.121,-9.216,2.319,-2.197
0.522,-1.017,0.144,-4.578,6.653,-4.517
0.578,-1.051,0.141,-1.465,7.263,-7.141
0.573,-1.079,0.137,-0.305,5.859,-9.888
0.543,-1.062,0.135,-0.916,4.456,-13.184
0.531,-1.045,0.120,-1.099,3.906,-16.052
0.493,-1.037,0.101,0.549,2.625,-18.982
0.445,-1.039,0.075,2.075,1.099,-21.240
0.411,-1.004,0.053,3.601,0.549,-23.804
0.381,-0.995,0.039,6.775,0.854,-26.428
0.345,-0.993,0.025,10.803,1.953,-29.114
0.336,-1.003,0.028,14.526,3.967,-31.860
0.361,-1.047,0.028,16.602,5.615,-34.363
0.397,-1.056,0.013,16.174,5.066,-37.781
0.444,-1.036,-0.008,15.564,2.869,-41.626
0.471,-1.024,-0.026,16.602,0.061,-45.227
0.482,-1.035,-0.011,17.944,-2.380,-48.462
0.496,-1.038,0.018,18.188,-4.700,-51.270
0.497,-1.016,0.050,18.005,-7.019,-53.650
0.469,-0.997,0.069,17.761,-9.583,-55.481
0.429,-0.968,0.074,18.127,-13.184,-56.824
0.390,-0.932,0.077,19.470,-16.113,-57.434
0.372,-0.894,0.071,20.508,-17.578,-56.641
0.340,-0.865,0.071,22.583,-18.005,-53.894
0.289,-0.895,0.104,25.940,-17.822,-50.232
0.237,-0.941,0.092,30.518,-19.287,-49.988
0.200,-0.981,0.075,34.790,-21.912,-53.162
0.161,-1.013,0.034,37.598,-22.278,-56.274
0.116,-1.044,-0.012,38.879,-19.287,-58.167
0.086,-1.071,-0.057,38.513,-14.465,-58.289
0.078,-1.140,-0.123,38.025,-7.324,-57.312
0.053,-1.187,-0.161,36.072,1.770,-57.312
0.019,-1.218,-0.162,33.203,13.977,-57.678
0.008,-1.253,-0.146,31.189,28.381,-58.777
0.021,-1.277,-0.113,28.748,43.213,-60.425
0.054,-1.305,-0.069,25.635,56.885,-63.049
0.083,-1.331,-0.034,20.264,67.505,-66.284
0.091,-1.359,-0.033,12.573,74.402,-68.726
0.094,-1.371,-0.044,2.991,78.796,-69.519
0.104,-1.404,-0.018,-5.615,80.872,-69.092
0.116,-1.493,0.025,-13.977,77.454,-68.420
0.079,-1.650,0.054,-23.499,64.880,-67.810
0.050,-1.826,0.073,-33.508,45.288,-67.810
0.081,-1.984,0.071,-43.335,21.729,-70.190
0.171,-2.105,0.081,-53.101,-1.038,-74.219
0.277,-2.198,0.084,-61.035,-23.865,-80.017
0.388,-2.214,0.096,-64.819,-49.988,-90.454
0.532,-2.136,0.109,-60.486,-77.759,-103.638
0.682,-1.984,0.090,-50.842,-106.567,-115.479
0.707,-1.775,0.020,-42.542,-132.690,-123.962
0.595,-1.538,-0.069,-38.330,-148.926,-129.211
0.489,-1.330,-0.156,-37.720,-152.771,-132.507
0.427,-1.138,-0.245,-41.992,-147.705,-134.277
0.386,-0.943,-0.308,-50.293,-133.911,-134.033
0.398,-0.760,-0.303,-60.059,-113.037,-131.897
0.448,-0.615,-0.251,-65.796,-91.797,-125.427
0.470,-0.504,-0.186,-65.430,-75.317,-111.816
0.453,-0.427,-0.121,-59.082,-64.331,-90.088
0.428,-0.354,-0.060,-49.072,-59.509,-60.669
0.401,-0.283,-0.009,-36.682,-60.059,-26.123
0.371,-0.223,0.036,-22.827,-65.308,11.047
0.334,-0.215,0.084,-8.484,-75.439,50.110
0.291,-0.246,0.070,4.761,-89.172,88.440
0.263,-0.345,0.059,16.907,-104.187,122.131
0.198,-0.462,0.072,27.222,-123.291,148.865
0.108,-0.574,0.105,34.851,-145.569,166.931
0.042,-0.655,0.125,38.452,-166.565,176.453
-0.001,-0.704,0.131,39.246,-184.875,177.246
-0.027,-0.731,0.151,37.598,-198.120,170.532

0.715,-1.906,0.244,-98.450,48.096,35.767
0.719,-1.782,0.126,-101.563,10.559,15.625
0.616,-1.637,0.095,-90.454,-23.010,1.526
0.580,-1.527,0.202,-83.923,-34.241,2.991
0.586,-1.498,0.178,-79.712,-31.677,20.142
0.396,-1.333,-0.080,-63.477,-29.114,35.645
-0.151,-0.970,-0.249,-8.789,-23.071,39.185
0.341,-1.657,0.287,46.997,-14.221,32.043
-0.171,-2.925,0.938,42.114,2.502,34.302
-0.003,-2.020,0.336,-32.227,-3.418,-1.404
0.241,-1.348,-0.239,-79.407,-20.142,-23.315
0.178,-1.392,-0.158,-69.885,-9.094,-18.494
0.264,-1.479,-0.022,-53.528,4.333,-3.296
0.257,-1.524,-0.013,-40.344,0.671,12.512
0.231,-1.559,-0.031,-31.006,-6.470,19.714
0.145,-1.472,-0.145,-24.109,-13.245,18.311
0.126,-1.333,-0.095,-20.142,-10.376,17.761
0.232,-1.218,0.118,-17.273,-3.357,25.024
0.303,-1.229,0.152,-14.038,-3.784,38.147
0.209,-1.320,0.070,-11.719,-6.653,44.922
0.147,-1.344,0.072,-10.803,-5.615,40.710
0.309,-1.257,0.157,-17.029,0.427,35.522
0.410,-1.192,0.186,-24.963,3.357,34.424
0.359,-1.120,0.182,-30.579,-0.488,33.325
0.320,-1.065,0.157,-34.485,-2.441,30.701
0.374,-1.008,0.141,-37.170,0.183,26.733
0.446,-0.961,0.147,-36.987,3.723,21.484
0.540,-0.929,0.186,-34.180,6.958,16.846
0.624,-0.893,0.226,-30.457,8.240,13.123
0.657,-0.864,0.278,-26.367,6.897,9.583
0.638,-0.831,0.308,-22.156,4.211,5.554
0.567,-0.779,0.324,-17.395,0.549,0.366
0.510,-0.788,0.330,-11.780,-1.709,-3.601
0.486,-0.813,0.339,-5.859,-2.747,-8.057
0.477,-0.848,0.338,0.000,-4.028,-12.756
0.486,-0.915,0.320,6.287,-5.066,-15.625
0.498,-0.983,0.303,11.230,-6.226,-17.334
0.451,-1.002,0.268,14.709,-8.606,-19.958
0.389,-1.033,0.241,17.090,-10.559,-22.278
0.335,-1.054,0.208,19.104,-11.414,-25.024
0.297,-1.043,0.175,20.691,-11.597,-28.442
0.289,-1.045,0.158,22.766,-10.620,-31.006
0.281,-1.052,0.162,24.536,-9.460,-32.593
0.273,-1.061,0.167,25.757,-8.911,-34.180
0.272,-1.062,0.188,26.794,-8.179,-35.522
0.268,-1.077,0.201,28.015,-7.080,-36.743
0.287,-1.089,0.213,28.625,-6.409,-38.025
0.325,-1.107,0.224,28.381,-7.446,-39.429
0.343,-1.091,0.217,25.269,-11.108,-40.100
0.347,-1.068,0.223,23.010,-16.296,-40.039
0.341,-1.065,0.225,21.057,-22.034,-38.818
0.317,-1.065,0.206,20.691,-27.405,-37.231
0.278,-1.057,0.197,20.996,-31.921,-36.682
0.239,-1.021,0.183,21.729,-35.339,-37.537
0.193,-0.977,0.189,23.315,-37.781,-37.720
0.143,-0.921,0.205,26.123,-38.757,-37.109
0.083,-0.881,0.209,30.334,-37.476,-35.889
0.035,-0.881,0.210,36.072,-33.875,-34.363
-0.012,-0.943,0.200,42.480,-29.114,-33.142
-0.025,-1.086,0.191,47.791,-23.254,-32.471
0.021,-1.265,0.185,49.988,-17.090,-32.471
0.090,-1.401,0.179,46.265,-11.719,-33.020
0.149,-1.447,0.208,37.720,-8.728,-34.485
0.220,-1.475,0.245,28.931,-8.423,-36.865
0.260,-1.509,0.268,17.090,-12.207,-38.635
0.260,-1.502,0.304,1.404,-18.616,-39.978
0.248,-1.452,0.334,-13.428,-25.818,-40.161
0.204,-1.406,0.326,-24.841,-34.424,-39.490
0.159,-1.359,0.323,-31.799,-42.297,-39.001
0.109,-1.346,0.276,-31.250,-50.476,-36.865
0.080,-1.330,0.236,-25.574,-59.204,-33.875
0.057,-1.304,0.206,-18.250,-67.993,-30.701
0.057,-1.269,0.188,-10.559,-74.890,-27.161
0.083,-1.237,0.180,-1.709,-77.271,-22.461
0.117,-1.224,0.169,7.812,-76.660,-15.137
0.118,-1.253,0.175,18.555,-75.623,-6.592
0.103,-1.319,0.185,31.128,-75.134,-0.061
0.102,-1.392,0.207,43.701,-72.815,4.944
0.103,-1.436,0.234,54.810,-68.359,6.897
0.099,-1.429,0.256,63.477,-62.500,3.296
0.112,-1.383,0.275,70.251,-55.725,-5.859
0.141,-1.299,0.272,74.036,-47.485,-18.616
0.168,-1.200,0.259,76.294,-37.476,-33.447
0.188,-1.119,0.238,76.782,-26.184,-48.340
0.204,-1.048,0.216,75.073,-14.343,-61.523
0.226,-0.986,0.191,70.862,-2.625,-71.472
0.250,-0.925,0.166,64.758,8.850,-77.332
0.274,-0.871,0.148,57.922,19.226,-79.529
0.294,-0.821,0.137,50.720,27.710,-78.125
0.312,-0.778,0.135,43.335,34.119,-72.571
0.325,-0.742,0.141,36.804,37.415,-63.660
0.332,-0.712,0.147,30.640,37.842,-52.063
0.330,-0.688,0.154,25.391,35.645,-38.086
0.320,-0.669,0.161,20.813,31.311,-22.339
0.301,-0.663,0.164,16.602,25.452,-6.226
0.278,-0.665,0.163,11.963,18.738,9.460
0.253,-0.674,0.158,7.812,11.536,23.682
0.226,-0.693,0.150,4.456,4.761,35.095
0.193,-0.714,0.141,1.221,-0.916,43.579
0.163,-0.732,0.130,-1.648,-5.493,49.500
0.138,-0.743,0.114,-4.456,-8.362,53.467
0.118,-0.755,0.099,-7.141,-9.705,55.542
0.103,-0.766,0.083,-9.827,-10.071,56.152
0.093,-0.776,0.071,-12.207,-9.338,55.237
0.085,-0.777,0.064,-14.038,-8.057,53.406
0.084,-0.770,0.060,-15.259,-6.592,50.842
0.089,-0.759,0.056,-16.479,-5.371,48.096
0.095,-0.750,0.052,-17.212,-4.700,45.288
0.100,-0.747,0.050,-17.395,-4.578,42.480
0.105,-0.744,0.047,-17.700,-5.066,39.734
0.105,-0.748,0.044,-17.639,-6.226,37.170
0.105,-0.753,0.041,-17.395,-7.874,34.729
0.100,-0.749,0.036,-17.334,-9.338,32.654
0.093,-0.734,0.031,-17.334,-11.108,30.884
0.085,-0.719,0.028,-16.724,-12.146,29.358
0.076,-0.711,0.026,-15.503,-13.123,28.198
0.068,-0.714,0.027,-13.794,-13.428,26.611
0.065,-0.711,0.031,-11.475,-13.489,24.597
0.061,-0.710,0.032,-8.911,-13.000,22.339

0.812,-2.171,-0.159,-125.244,28.870,27.405
0.719,-2.373,-0.132,-121.460,5.981,35.034
0.532,-2.490,0.098,-122.192,-16.174,39.795
0.380,-2.510,0.287,-125.977,-27.161,42.175
0.277,-2.209,0.513,-123.413,-21.545,39.001
0.324,-1.884,0.514,-116.150,-16.785,37.537
0.416,-1.837,0.374,-102.112,-21.606,35.461
0.278,-1.798,0.273,-89.233,-30.762,31.372
0.151,-1.711,0.267,-84.167,-34.790,27.588
0.151,-1.668,0.292,-87.524,-33.875,27.893
0.126,-1.635,0.258,-96.191,-35.034,28.442
0.071,-1.456,0.220,-103.882,-36.133,27.283
0.026,-1.228,0.189,-105.957,-36.438,29.663
-0.057,-1.039,0.144,-101.807,-35.339,33.081
-0.193,-0.907,0.180,-94.727,-32.349,36.255
-0.259,-0.825,0.319,-88.440,-21.912,37.964
-0.228,-0.721,0.458,-80.811,-4.578,34.241
-0.030,-0.694,0.600,-68.176,17.456,30.334
0.294,-0.761,0.705,-51.636,37.537,28.137
0.599,-0.884,0.724,-35.095,48.523,26.855
0.887,-1.049,0.700,-23.193,46.631,26.733
0.961,-1.114,0.633,-19.104,29.846,23.376
0.829,-1.105,0.616,-21.484,6.592,17.944
0.556,-1.000,0.564,-26.428,-14.587,10.681
0.363,-0.857,0.525,-29.114,-25.879,3.845
0.254,-0.749,0.554,-27.527,-27.283,0.427
0.207,-0.685,0.581,-22.949,-23.804,-1.404
0.180,-0.659,0.599,-17.517,-18.311,-2.808
0.186,-0.677,0.601,-11.536,-12.268,-3.784
0.232,-0.714,0.607,-4.211,-5.310,-6.165
0.319,-0.779,0.584,4.028,0.854,-7.935
0.389,-0.825,0.564,11.230,4.578,-9.827
0.469,-0.874,0.547,16.541,6.775,-11.536
0.554,-0.919,0.529,21.423,6.958,-12.634
0.590,-0.948,0.508,25.757,4.028,-12.695
0.614,-0.979,0.583,28.381,0.244,-11.841
0.566,-0.929,0.566,30.029,-8.484,-13.916
0.449,-0.901,0.514,31.616,-17.456,-15.137
0.356,-0.863,0.509,34.058,-21.362,-15.198
0.233,-0.820,0.450,37.598,-24.841,-17.944
0.198,-0.830,0.428,42.419,-24.048,-18.372
0.152,-0.810,0.428,46.997,-20.996,-20.325
0.158,-0.844,0.432,52.429,-17.090,-21.179
0.177,-0.849,0.457,57.739,-12.329,-22.278
0.199,-0.867,0.447,62.500,-9.460,-23.132
0.201,-0.894,0.421,66.406,-8.423,-23.682
0.189,-0.938,0.406,68.542,-8.301,-24.414
0.189,-0.984,0.397,69.641,-7.629,-25.208
0.206,-1.021,0.387,69.153,-7.751,-26.428
0.230,-1.041,0.388,67.871,-8.911,-28.015
0.224,-1.031,0.397,65.491,-11.292,-29.724
0.212,-1.010,0.417,64.453,-14.465,-31.555
0.188,-1.001,0.436,64.880,-18.188,-32.227
0.141,-0.991,0.447,66.101,-21.729,-32.471
0.080,-0.985,0.428,68.359,-24.109,-32.654
0.011,-1.004,0.383,71.716,-24.841,-32.593
-0.039,-1.053,0.337,75.623,-23.926,-31.677
-0.065,-1.106,0.295,79.773,-21.118,-30.823
-0.099,-1.154,0.233,83.008,-16.846,-29.785
-0.152,-1.186,0.171,84.900,-10.620,-27.771
-0.184,-1.214,0.125,86.182,-2.563,-25.696
-0.176,-1.240,0.124,87.769,7.019,-25.146
-0.150,-1.266,0.151,88.989,17.151,-26.550
-0.090,-1.256,0.220,90.149,26.917,-29.236
0.005,-1.284,0.289,93.323,33.752,-31.555
0.037,-1.368,0.328,95.642,34.485,-32.471
0.046,-1.504,0.348,98.328,29.175,-32.898
0.064,-1.666,0.349,100.342,17.029,-31.738
0.066,-1.785,0.317,98.206,-2.014,-27.832
0.071,-1.804,0.274,89.294,-22.278,-24.414
0.073,-1.824,0.234,76.721,-39.551,-22.278
0.080,-1.878,0.208,63.293,-51.331,-19.592
0.100,-1.900,0.205,49.133,-57.495,-16.724
0.154,-1.877,0.202,35.217,-60.364,-15.076
0.199,-1.769,0.206,23.437,-62.683,-17.578
0.226,-1.623,0.208,17.456,-64.087,-23.437
0.248,-1.474,0.185,18.433,-63.965,-31.982
0.266,-1.332,0.186,25.269,-61.340,-42.236
0.284,-1.196,0.206,34.668,-58.105,-52.673
0.303,-1.087,0.223,43.457,-54.443,-60.791
0.311,-1.000,0.227,50.476,-50.659,-66.711
0.306,-0.933,0.222,54.565,-46.082,-69.336
0.294,-0.872,0.209,55.603,-40.405,-68.726
0.284,-0.821,0.194,54.199,-33.020,-65.063
0.271,-0.776,0.175,51.575,-24.170,-58.655
0.256,-0.735,0.155,46.753,-15.076,-49.438
0.244,-0.699,0.135,41.016,-6.287,-37.842
0.231,-0.661,0.120,35.217,2.258,-24.536
0.222,-0.622,0.109,29.236,10.742,-10.071
0.216,-0.584,0.102,23.621,18.799,4.211
0.213,-0.552,0.102,19.409,25.269,18.799
0.208,-0.525,0.106,15.808,30.945,32.349
0.204,-0.504,0.109,13.489,35.095,44.067
0.199,-0.490,0.110,11.475,38.208,54.199
0.195,-0.482,0.114,9.888,40.405,62.744
0.196,-0.472,0.120,8.179,41.199,69.458
0.192,-0.466,0.123,6.653,41.138,74.524
0.188,-0.462,0.127,5.005,39.978,78.918
0.183,-0.468,0.129,3.418,38.025,81.909
0.173,-0.481,0.128,1.587,35.034,83.923
0.161,-0.494,0.122,-0.610,31.921,85.449
0.151,-0.502,0.121,-3.235,29.114,86.243
0.137,-0.500,0.112,-6.958,26.062,86.182
0.119,-0.505,0.102,-11.292,23.376,85.938
0.106,-0.533,0.089,-15.381,20.447,85.449
0.093,-0.574,0.073,-20.569,18.250,84.045
0.083,-0.624,0.059,-26.550,16.663,81.665
0.071,-0.661,0.043,-33.142,15.259,78.491
0.059,-0.697,0.031,-39.917,13.977,74.951
0.053,-0.740,0.026,-46.204,12.695,71.533
0.054,-0.781,0.023,-51.331,10.986,67.810
0.056,-0.820,0.023,-55.054,7.996,63.599
0.065,-0.860,0.027,-57.373,3.662,58.350
0.077,-0.897,0.034,-57.312,-1.770,51.819
0.089,-0.931,0.038,-55.481,-7.812,43.884
0.095,-0.964,0.042,-52.063,-13.977,34.912
0.097,-0.998,0.045,-47.241,-20.325,25.452
0.104,-1.023,0.049,-41.687,-26.123,15.320
0.116,-1.045,0.053,-35.156,-30.823,4.822

-0.002,-0.870,1.513,-86.670,162.109,9.216
0.353,-0.574,1.547,-126.831,190.491,16.235
0.487,-0.284,1.480,-141.602,161.438,12.817
0.488,-0.189,0.980,-130.432,85.632,3.052
0.554,-0.101,0.506,-115.784,11.292,12.512
0.433,-0.155,0.182,-96.008,-25.085,38.574
0.132,-0.417,0.046,-68.970,-17.212,62.073
0.185,-0.677,0.074,-50.781,13.977,73.669
0.312,-0.884,0.198,-49.927,34.546,74.890
0.282,-1.071,0.232,-57.373,31.372,60.852
0.133,-1.270,0.104,-61.218,14.832,35.950
0.025,-1.317,0.066,-64.148,14.648,16.357
0.169,-1.600,0.298,-71.533,37.964,15.930
0.196,-1.811,0.329,-87.585,56.824,16.968
0.415,-1.710,0.199,-103.333,61.340,9.583
0.520,-1.658,-0.083,-106.323,37.537,4.700
0.500,-1.623,-0.163,-92.896,5.432,-8.057
0.358,-1.845,-0.003,-75.989,-10.864,-13.367
0.377,-2.148,0.420,-70.374,7.019,-2.258
0.589,-2.213,0.466,-85.571,28.870,7.446
0.460,-2.587,0.425,-83.618,11.719,-9.033
0.436,-2.495,0.357,-89.661,-22.705,-34.302
0.528,-1.929,-0.013,-99.731,-65.063,-58.167
0.303,-1.600,-0.278,-90.027,-83.374,-61.401
0.154,-1.714,-0.030,-66.162,-72.083,-44.617
0.357,-1.653,0.107,-55.603,-55.908,-18.677
0.267,-1.568,0.205,-55.542,-63.354,5.310
-0.070,-1.698,0.244,-47.729,-78.064,27.832
-0.282,-1.724,0.250,-46.143,-79.407,50.110
-0.349,-1.623,0.151,-49.133,-75.867,66.467
-0.373,-1.537,0.069,-53.833,-67.932,74.829
-0.284,-1.498,0.074,-59.570,-54.016,74.646
-0.199,-1.446,0.133,-69.031,-39.612,67.810
-0.131,-1.324,0.173,-79.346,-28.503,55.481
-0.008,-1.161,0.256,-87.524,-18.860,44.983
0.069,-1.018,0.332,-89.050,-12.024,39.124
0.080,-0.880,0.392,-86.243,-7.935,36.560
0.044,-0.747,0.470,-78.796,-3.479,34.485
0.029,-0.697,0.535,-65.918,1.648,34.485
0.055,-0.723,0.612,-53.833,6.836,34.119
0.107,-0.740,0.656,-45.166,11.047,30.212
0.203,-0.791,0.630,-37.476,13.611,24.719
0.292,-0.869,0.624,-29.907,13.489,20.142
0.326,-0.952,0.626,-23.437,10.376,15.198
0.318,-0.993,0.589,-19.287,5.127,8.179
0.286,-0.981,0.563,-18.005,0.244,0.122
0.260,-0.927,0.544,-17.883,-3.052,-7.019
0.225,-0.898,0.512,-16.785,-4.944,-12.695
0.199,-0.874,0.470,-15.137,-4.700,-15.991
0.223,-0.870,0.494,-12.695,-1.526,-17.090
0.270,-0.872,0.507,-9.033,1.648,-15.869
0.277,-0.874,0.499,-4.333,2.563,-13.916
0.266,-0.902,0.499,0.854,3.357,-12.268
0.273,-0.900,0.525,6.165,4.272,-11.963
0.286,-0.893,0.543,12.329,4.578,-12.024
0.296,-0.917,0.536,19.104,2.625,-12.329
0.281,-0.911,0.522,23.682,-0.427,-13.855
0.247,-0.878,0.509,26.855,-4.333,-15.808
0.213,-0.869,0.518,30.090,-7.263,-17.944
0.187,-0.889,0.515,34.058,-9.399,-20.264
0.157,-0.888,0.499,37.903,-10.925,-22.583
0.124,-0.883,0.479,41.016,-11.353,-24.597
0.117,-0.893,0.443,44.922,-11.414,-26.306
0.093,-0.907,0.418,48.401,-11.658,-27.954
0.074,-0.907,0.419,49.988,-11.169,-29.236
0.071,-0.903,0.413,51.453,-10.681,-29.968
0.058,-0.900,0.402,53.284,-10.132,-30.640
0.038,-0.907,0.420,54.688,-9.460,-30.884
0.010,-0.955,0.416,56.274,-9.033,-31.311
-0.003,-1.006,0.387,57.800,-7.874,-32.715
-0.002,-1.065,0.356,57.983,-5.310,-34.668
0.030,-1.111,0.348,56.702,-2.258,-36.804
0.059,-1.150,0.346,54.260,0.183,-38.391
0.084,-1.162,0.344,51.697,1.831,-40.527
0.119,-1.153,0.354,49.255,2.441,-42.175
0.127,-1.129,0.369,46.692,1.404,-43.274
0.110,-1.079,0.371,44.922,-0.549,-44.373
0.104,-1.008,0.370,43.701,-2.075,-44.373
0.103,-0.972,0.357,44.556,-4.456,-43.579
0.098,-0.966,0.353,47.668,-7.141,-42.542
0.088,-0.987,0.340,52.734,-9.338,-40.894
0.057,-1.011,0.307,57.190,-11.414,-38.452
0.005,-1.045,0.264,61.279,-13.123,-35.095
-0.054,-1.125,0.222,66.162,-12.817,-31.555
-0.112,-1.227,0.203,71.167,-10.010,-28.870
-0.113,-1.330,0.224,77.026,-4.944,-28.564
-0.115,-1.441,0.199,81.787,0.305,-29.541
-0.165,-1.476,0.193,80.627,3.784,-30.762
-0.192,-1.481,0.214,81.177,7.751,-29.419
-0.166,-1.501,0.186,87.463,10.803,-22.644
-0.140,-1.550,0.119,96.924,7.935,-9.949
-0.128,-1.573,0.115,101.807,2.441,-0.916
-0.145,-1.630,0.127,104.919,-2.563,2.991
-0.163,-1.761,0.132,108.398,-7.141,6.775
-0.140,-1.928,0.139,113.159,-12.268,9.277
-0.088,-2.075,0.174,115.906,-17.700,8.179
-0.009,-2.164,0.259,112.549,-20.752,3.845
0.108,-2.138,0.385,102.478,-20.752,-2.747
0.265,-1.973,0.507,88.623,-22.949,-11.414
0.409,-1.665,0.530,76.721,-32.532,-22.949
0.457,-1.395,0.411,74.341,-53.345,-38.147
0.398,-1.319,0.357,74.829,-72.632,-52.673
0.326,-1.174,0.288,70.740,-75.012,-61.523
0.299,-0.941,0.160,67.322,-74.890,-69.336
0.279,-0.797,0.068,69.153,-68.909,-73.425
0.275,-0.747,0.050,70.679,-57.373,-72.998
0.291,-0.712,0.032,68.115,-46.570,-69.092
0.300,-0.670,-0.003,62.012,-36.865,-60.486
0.299,-0.633,-0.012,53.711,-26.978,-46.692
0.286,-0.621,-0.010,44.739,-18.921,-29.175
0.252,-0.639,-0.001,35.095,-12.695,-8.362
0.231,-0.627,0.035,23.499,-5.676,14.343
0.211,-0.621,0.070,11.292,-2.075,36.560
0.182,-0.633,0.097,-0.671,0.488,57.800
0.153,-0.649,0.111,-13.794,3.113,76.416
0.120,-0.653,0.110,-26.917,5.859,91.736
0.087,-0.644,0.096,-39.490,9.827,104.492
0.066,-0.639,0.077,-49.622,14.404,115.112
0.049,-0.633,0.057,-57.678,19.409,123.047

0.426,-1.723,1.045,-135.559,114.563,2.625
0.636,-1.418,0.615,-146.545,88.318,-4.456
0.656,-1.346,0.257,-139.038,55.237,-8.057
0.624,-1.526,0.129,-118.835,32.410,-7.507
0.624,-1.870,0.168,-98.389,17.761,-4.089
0.652,-2.177,0.456,-80.872,9.705,-5.371
0.677,-2.544,0.703,-75.012,-3.601,-11.414
0.468,-2.614,0.622,-86.487,-26.367,-28.442
0.338,-2.056,0.497,-109.131,-40.955,-50.110
0.202,-1.829,0.366,-119.385,-48.462,-49.866
0.118,-1.910,0.450,-118.286,-47.424,-36.743
0.097,-1.784,0.448,-122.559,-52.979,-27.405
-0.024,-1.769,0.351,-119.446,-61.035,-19.409
-0.182,-1.733,0.346,-110.962,-59.937,-9.521
-0.374,-1.625,0.374,-104.370,-53.345,0.610
-0.529,-1.417,0.322,-102.051,-42.358,10.376
-0.702,-1.240,0.287,-98.328,-26.062,20.813
-0.782,-1.126,0.278,-91.614,-4.395,28.137
-0.666,-1.093,0.230,-85.083,21.973,32.471
-0.362,-1.086,0.297,-76.782,48.462,29.480
0.055,-1.087,0.439,-72.266,69.885,24.414
0.474,-1.037,0.568,-70.862,80.505,21.362
0.778,-0.960,0.642,-70.190,77.454,23.621
0.869,-0.871,0.663,-69.397,64.697,28.015
0.853,-0.759,0.651,-66.711,48.767,30.090
0.757,-0.647,0.635,-61.890,33.752,29.480
0.642,-0.563,0.657,-54.810,22.827,26.428
0.620,-0.524,0.726,-46.204,15.991,22.217
0.626,-0.539,0.745,-36.865,7.568,17.883
0.557,-0.607,0.699,-26.611,-2.930,12.024
0.515,-0.656,0.651,-18.982,-11.597,5.737
0.470,-0.692,0.618,-12.939,-18.799,0.671
0.367,-0.722,0.599,-8.179,-25.024,-2.625
0.282,-0.763,0.591,-3.174,-27.344,-3.479
0.259,-0.838,0.599,1.831,-26.306,-4.456
0.210,-0.877,0.584,5.005,-24.292,-6.897
0.264,-0.932,0.598,7.263,-21.057,-6.042
0.254,-0.955,0.607,8.972,-18.494,-6.226
0.235,-0.953,0.638,10.193,-16.174,-6.287
0.266,-0.948,0.674,11.536,-13.306,-4.089
0.235,-0.909,0.670,13.062,-13.916,-3.540
0.193,-0.872,0.675,14.648,-15.015,-3.357
0.161,-0.821,0.680,16.846,-15.564,-3.967
0.148,-0.796,0.672,19.409,-16.479,-5.005
0.134,-0.769,0.639,22.400,-17.944,-7.080
0.114,-0.728,0.613,24.353,-19.104,-9.338
0.098,-0.712,0.603,27.832,-19.592,-11.658
0.090,-0.707,0.618,32.166,-19.226,-14.099
0.092,-0.715,0.649,36.926,-18.372,-17.761
0.095,-0.741,0.654,41.260,-17.273,-21.606
0.099,-0.799,0.637,44.983,-16.724,-24.841
0.148,-0.844,0.610,47.424,-15.747,-27.710
0.199,-0.882,0.609,48.950,-15.991,-29.602
0.218,-0.918,0.599,50.537,-18.921,-31.006
0.215,-0.952,0.561,51.941,-23.132,-32.410
0.206,-0.964,0.527,52.063,-26.367,-33.264
0.203,-0.927,0.517,51.331,-29.114,-33.447
0.161,-0.903,0.507,52.551,-31.616,-33.264
0.127,-0.912,0.501,55.786,-32.166,-32.410
0.124,-0.936,0.512,58.105,-31.433,-31.189
0.094,-0.924,0.522,58.594,-31.860,-30.762
0.046,-0.920,0.533,58.655,-32.288,-30.029
0.005,-0.920,0.508,60.364,-32.166,-29.358
-0.024,-0.932,0.491,61.584,-30.762,-28.320
-0.046,-0.931,0.464,61.829,-29.541,-27.039
-0.071,-0.921,0.431,62.805,-27.588,-25.452
-0.093,-0.911,0.404,65.063,-23.193,-23.743
-0.105,-0.907,0.419,67.993,-16.785,-21.118
-0.117,-0.930,0.438,72.510,-10.620,-18.860
-0.119,-0.971,0.438,77.759,-5.554,-17.151
-0.118,-1.034,0.415,82.947,-2.625,-15.930
-0.110,-1.110,0.378,89.233,-0.732,-14.954
-0.104,-1.192,0.339,95.459,1.404,-13.367
-0.112,-1.288,0.308,101.685,3.967,-12.024
-0.105,-1.377,0.278,107.300,7.263,-12.573
-0.092,-1.437,0.297,109.497,13.306,-14.282
-0.093,-1.476,0.362,109.741,22.461,-16.602
-0.006,-1.518,0.486,113.708,30.945,-18.616
0.117,-1.589,0.567,122.925,31.982,-19.226
0.189,-1.661,0.605,137.756,19.409,-17.578
0.171,-1.737,0.515,154.114,-6.104,-10.986
0.162,-1.713,0.485,157.043,-31.433,-7.874
0.181,-1.729,0.491,152.344,-48.706,-7.568
0.212,-1.805,0.486,145.752,-61.401,-2.625
0.250,-1.829,0.495,132.385,-71.350,5.615
0.313,-1.715,0.466,114.624,-79.834,13.367
0.365,-1.567,0.403,100.281,-88.013,20.020
0.343,-1.474,0.334,90.637,-95.398,22.949
0.275,-1.409,0.266,80.566,-97.046,20.325
0.225,-1.305,0.216,66.589,-89.233,14.160
0.199,-1.179,0.169,49.255,-73.425,7.141
0.197,-1.056,0.123,32.776,-55.481,1.099
0.191,-0.977,0.090,18.250,-37.720,-1.953
0.172,-0.918,0.057,4.517,-18.677,-1.770
0.137,-0.858,0.035,-8.179,0.183,1.770
0.103,-0.796,0.019,-19.226,18.433,8.057
0.087,-0.742,0.010,-27.832,35.583,17.456
0.093,-0.697,0.015,-33.569,50.964,28.992
0.107,-0.664,0.029,-36.499,63.354,41.260
0.113,-0.646,0.051,-37.231,72.693,53.406
0.117,-0.631,0.073,-36.560,78.613,64.575
0.119,-0.614,0.089,-34.546,80.994,73.486
0.121,-0.594,0.099,-31.982,80.994,80.200
0.121,-0.571,0.102,-28.076,78.735,85.083
0.119,-0.550,0.102,-23.254,75.256,88.013
0.114,-0.534,0.097,-18.372,71.106,89.539
0.104,-0.521,0.089,-13.184,66.833,89.478
0.094,-0.509,0.082,-8.484,62.927,88.257
0.081,-0.499,0.074,-4.578,59.753,86.182
0.069,-0.486,0.067,-0.732,57.007,83.435
0.058,-0.473,0.059,1.831,54.932,80.200
0.051,-0.460,0.056,4.089,53.589,76.721
0.055,-0.450,0.057,5.554,52.124,72.998
0.054,-0.441,0.054,6.409,50.415,68.970
0.062,-0.452,0.053,6.531,48.218,64.758
0.060,-0.459,0.051,6.165,45.166,59.875
0.056,-0.467,0.046,5.066,42.053,54.932
0.050,-0.476,0.042,3.906,38.696,49.988
0.044,-0.484,0.038,2.747,35.217,45.166

0.471,-1.602,0.537,-114.197,-19.348,17.090
0.272,-1.605,0.399,-105.591,-31.982,21.545
0.083,-1.634,0.377,-104.187,-40.955,25.024
-0.051,-1.662,0.410,-107.849,-42.175,25.574
-0.100,-1.516,0.421,-112.061,-37.903,21.667
-0.178,-1.358,0.477,-113.892,-32.410,19.348
-0.336,-1.166,0.524,-107.971,-25.757,18.127
-0.471,-1.019,0.535,-99.060,-15.137,19.714
-0.458,-0.934,0.544,-92.529,1.587,26.367
-0.346,-0.923,0.469,-85.205,19.836,33.997
-0.113,-0.998,0.494,-77.515,36.621,39.612
0.130,-1.094,0.511,-69.519,48.035,42.786
0.349,-1.228,0.564,-66.650,51.941,43.701
0.513,-1.272,0.580,-65.063,49.744,41.687
0.629,-1.260,0.609,-62.561,42.603,36.316
0.680,-1.168,0.607,-60.974,30.884,31.067
0.558,-0.998,0.616,-61.096,17.273,25.879
0.406,-0.831,0.615,-60.486,7.324,22.034
0.266,-0.688,0.640,-57.434,2.686,19.348
0.178,-0.575,0.679,-52.002,3.540,17.456
0.168,-0.544,0.752,-44.006,8.972,15.015
0.258,-0.558,0.777,-34.912,15.686,13.245
0.348,-0.605,0.751,-27.039,19.592,12.451
0.403,-0.657,0.717,-20.569,20.752,11.658
0.437,-0.742,0.638,-15.076,20.813,10.010
0.484,-0.799,0.618,-12.512,21.240,7.446
0.555,-0.836,0.590,-9.399,20.447,4.089
0.579,-0.865,0.587,-6.531,15.381,0.732
0.552,-0.863,0.610,-4.761,8.484,-1.038
0.512,-0.846,0.640,-1.221,1.221,-2.563
0.422,-0.790,0.668,3.052,-5.249,-3.601
0.324,-0.732,0.709,6.714,-9.277,-4.456
0.273,-0.701,0.726,11.414,-10.620,-5.005
0.246,-0.693,0.727,17.029,-10.132,-5.249
0.244,-0.714,0.720,22.705,-8.972,-5.554
0.246,-0.740,0.728,26.917,-7.874,-6.226
0.259,-0.746,0.712,30.090,-7.141,-6.714
0.239,-0.751,0.682,32.959,-7.263,-7.263
0.202,-0.758,0.663,36.072,-7.446,-8.362
0.201,-0.741,0.651,38.330,-6.714,-9.644
0.216,-0.748,0.638,40.833,-5.249,-11.292
0.240,-0.769,0.619,42.480,-4.272,-13.367
0.234,-0.800,0.592,43.884,-3.296,-17.029
0.277,-0.801,0.602,44.861,-2.441,-20.630
0.297,-0.824,0.583,46.997,-3.662,-23.987
0.274,-0.856,0.559,50.293,-5.859,-27.039
0.284,-0.882,0.566,51.880,-7.629,-29.480
0.295,-0.885,0.577,52.490,-10.559,-31.006
0.282,-0.926,0.557,54.321,-13.611,-31.677
0.277,-0.946,0.546,55.603,-15.808,-32.227
0.289,-0.957,0.567,56.763,-17.761,-33.203
0.283,-0.945,0.567,57.617,-21.484,-34.241
0.240,-0.946,0.564,59.021,-26.123,-34.363
0.158,-0.927,0.530,59.509,-28.870,-35.217
0.110,-0.868,0.491,57.373,-30.579,-36.560
0.057,-0.799,0.484,55.786,-32.288,-37.354
0.022,-0.800,0.487,57.678,-31.738,-37.354
0.040,-0.836,0.503,59.143,-29.297,-36.743
0.091,-0.852,0.526,58.411,-28.198,-37.476
0.177,-0.862,0.542,54.993,-31.006,-38.818
0.212,-0.860,0.526,51.758,-37.720,-39.795
0.163,-0.827,0.523,50.659,-44.312,-41.504
0.124,-0.813,0.533,48.279,-50.232,-42.114
0.058,-0.824,0.515,47.974,-53.040,-41.138
-0.056,-0.861,0.489,49.133,-54.565,-41.931
-0.130,-0.967,0.431,51.025,-54.688,-42.236
-0.182,-1.157,0.389,54.138,-53.345,-42.908
-0.208,-1.353,0.378,56.335,-49.133,-45.837
-0.175,-1.456,0.369,55.176,-43.640,-48.157
-0.068,-1.496,0.385,50.720,-40.344,-47.058
0.068,-1.472,0.453,45.776,-41.138,-43.274
0.154,-1.413,0.482,41.199,-49.500,-36.316
0.172,-1.363,0.476,39.490,-65.308,-25.696
0.145,-1.362,0.441,41.992,-83.496,-12.756
0.085,-1.420,0.468,43.945,-99.182,0.732
0.011,-1.525,0.519,44.861,-114.563,16.785
-0.088,-1.648,0.510,50.781,-131.104,34.424
-0.158,-1.738,0.513,60.059,-143.066,46.509
-0.163,-1.785,0.507,68.726,-148.437,52.979
-0.168,-1.765,0.488,76.965,-145.874,54.810
-0.202,-1.663,0.448,84.534,-136.230,51.270
-0.207,-1.518,0.405,92.651,-119.080,42.725
-0.176,-1.389,0.344,100.830,-95.215,30.334
-0.146,-1.318,0.282,104.736,-63.477,16.357
-0.132,-1.237,0.222,100.525,-22.156,2.319
-0.120,-1.134,0.167,91.736,23.987,-11.292
-0.081,-1.031,0.122,81.177,70.557,-23.621
-0.017,-0.944,0.098,71.289,113.464,-31.372
0.051,-0.857,0.089,62.073,150.391,-33.386
0.128,-0.776,0.088,54.810,179.260,-29.602
0.228,-0.700,0.107,49.316,197.571,-20.996
0.329,-0.624,0.146,46.448,203.674,-8.362
0.404,-0.563,0.193,45.471,197.388,6.531
0.451,-0.525,0.234,45.654,180.420,23.193
0.475,-0.518,0.266,45.837,155.090,39.612
0.474,-0.536,0.286,45.715,124.207,54.993
0.453,-0.565,0.295,44.434,91.370,68.298
0.408,-0.586,0.288,41.565,58.289,78.735
0.345,-0.599,0.270,38.025,27.893,86.365
0.272,-0.609,0.244,33.936,2.380,91.553
0.204,-0.610,0.215,29.419,-17.639,93.994
0.145,-0.615,0.190,23.560,-32.776,94.482
0.101,-0.619,0.171,17.395,-42.664,93.506
0.078,-0.621,0.157,11.353,-49.133,90.881
0.057,-0.628,0.143,5.859,-53.223,86.609
0.018,-0.623,0.123,1.831,-55.298,80.933
0.027,-0.658,0.137,-1.526,-54.688,74.158
0.017,-0.632,0.142,-4.456,-54.321,65.369
0.029,-0.641,0.156,-6.348,-53.650,58.350
0.043,-0.651,0.157,-7.812,-54.321,50.720
0.038,-0.658,0.159,-9.399,-55.298,42.847
0.038,-0.670,0.160,-11.658,-56.152,36.072
0.031,-0.681,0.151,-13.977,-56.946,30.579
0.015,-0.698,0.138,-17.944,-56.885,26.672
0.000,-0.715,0.126,-22.217,-55.664,23.254
-0.003,-0.740,0.116,-26.550,-53.223,20.386
0.001,-0.758,0.113,-31.006,-49.988,17.151
0.007,-0.757,0.112,-34.546,-46.814,13.855
0.010,-0.749,0.115,-36.682,-44.495,10.193

0.430,-1.816,1.519,-20.569,182.556,13.367
1.001,-1.480,1.406,-44.312,159.607,11.353
1.111,-1.168,0.694,-78.064,94.360,14.587
0.811,-1.289,0.117,-84.167,38.086,19.470
0.720,-1.662,-0.062,-74.463,2.075,25.696
0.786,-1.833,-0.020,-71.411,-21.362,33.142
0.768,-1.887,0.203,-78.491,-32.776,41.870
0.604,-1.866,0.358,-93.140,-45.410,48.401
0.275,-1.786,0.321,-104.858,-69.458,45.105
-0.025,-1.605,0.300,-112.610,-86.914,32.227
-0.189,-1.434,0.253,-114.868,-88.623,17.944
-0.214,-1.356,0.280,-108.276,-71.472,6.531
-0.076,-1.387,0.368,-96.191,-43.884,-2.258
0.102,-1.448,0.507,-87.830,-23.804,-5.615
0.199,-1.413,0.571,-88.928,-16.052,-4.944
0.263,-1.201,0.405,-93.384,-15.076,-1.404
-0.038,-0.869,0.067,-85.571,-1.770,12.451
0.123,-1.004,0.681,-61.035,36.560,40.710
0.468,-1.550,0.722,-52.002,30.762,60.303
0.078,-1.480,0.206,-58.228,-8.057,43.640
-0.163,-1.317,0.277,-57.861,-16.113,15.869
0.173,-1.049,0.345,-54.443,2.502,1.160
0.433,-1.082,0.381,-46.143,21.118,6.592
0.457,-1.179,0.416,-39.063,24.109,16.968
0.432,-1.158,0.375,-37.048,16.235,22.339
0.404,-1.097,0.346,-38.696,13.794,24.292
0.499,-1.072,0.402,-37.842,16.663,24.109
0.540,-0.973,0.427,-36.926,12.939,21.484
0.521,-0.903,0.436,-35.095,7.080,20.264
0.524,-0.858,0.477,-31.189,5.188,20.569
0.576,-0.819,0.534,-26.428,5.737,19.836
0.622,-0.798,0.570,-21.057,3.174,17.273
0.575,-0.753,0.573,-16.663,-3.174,14.099
0.446,-0.719,0.546,-12.573,-9.277,11.536
0.315,-0.716,0.526,-8.301,-12.512,9.033
0.253,-0.747,0.515,-2.930,-12.146,6.042
0.285,-0.827,0.491,3.052,-9.521,2.808
0.349,-0.945,0.497,7.812,-6.836,-0.671
0.441,-1.021,0.519,8.728,-5.188,-3.296
0.487,-1.042,0.532,7.751,-6.592,-5.371
0.451,-1.017,0.544,6.836,-9.827,-7.385
0.394,-0.976,0.539,7.690,-12.817,-8.667
0.326,-0.941,0.533,9.277,-15.076,-9.766
0.265,-0.911,0.525,11.230,-16.418,-11.230
0.215,-0.883,0.528,13.855,-16.296,-13.306
0.180,-0.871,0.504,17.212,-14.771,-15.442
0.179,-0.849,0.499,21.118,-11.414,-17.639
0.205,-0.849,0.503,25.208,-7.202,-19.104
0.259,-0.858,0.515,28.137,-3.235,-19.348
0.301,-0.873,0.493,30.029,-1.892,-18.616
0.320,-0.865,0.480,31.067,-2.197,-18.494
0.297,-0.880,0.467,31.921,-3.357,-18.799
0.287,-0.892,0.459,32.532,-4.883,-18.738
0.276,-0.889,0.488,31.982,-5.432,-18.738
0.249,-0.897,0.489,32.349,-5.859,-18.860
0.237,-0.883,0.483,32.959,-6.714,-19.531
0.239,-0.886,0.481,34.485,-7.080,-20.508
0.268,-0.910,0.468,36.865,-7.507,-21.667
0.285,-0.908,0.458,38.635,-8.972,-23.560
0.275,-0.885,0.431,40.649,-10.254,-25.391
0.274,-0.900,0.423,45.532,-10.559,-26.733
0.271,-0.904,0.428,49.561,-13.062,-27.710
0.260,-0.914,0.435,53.528,-16.052,-28.259
0.244,-0.920,0.446,57.312,-19.043,-28.992
0.243,-0.950,0.453,60.730,-22.827,-28.687
0.249,-0.989,0.438,64.636,-25.940,-27.893
0.249,-1.023,0.442,66.650,-28.503,-26.489
0.227,-1.044,0.418,65.979,-30.701,-23.437
0.204,-1.105,0.404,65.552,-29.724,-19.165
0.204,-1.151,0.403,65.002,-25.085,-15.198
0.228,-1.170,0.413,64.087,-18.982,-12.573
0.263,-1.139,0.441,64.026,-14.832,-11.230
0.314,-1.090,0.494,65.979,-15.991,-10.132
0.286,-1.090,0.509,69.336,-24.109,-7.996
0.232,-1.086,0.534,72.266,-35.278,-4.272
0.190,-1.170,0.555,76.477,-47.852,1.526
0.173,-1.343,0.552,82.092,-62.988,10.193
0.150,-1.563,0.523,89.783,-81.848,21.118
0.130,-1.757,0.487,97.229,-101.257,32.776
0.153,-1.869,0.548,95.947,-116.089,41.504
0.182,-1.933,0.565,89.172,-127.808,49.255
0.136,-1.911,0.546,82.031,-135.986,54.688
0.088,-1.811,0.518,73.792,-136.292,52.124
0.146,-1.664,0.444,63.171,-129.272,41.931
0.207,-1.516,0.406,53.345,-117.065,25.452
0.204,-1.350,0.387,42.664,-99.487,5.371
0.165,-1.203,0.393,31.128,-75.745,-14.954
0.140,-1.068,0.360,17.822,-46.387,-35.156
0.142,-0.954,0.313,4.333,-13.062,-52.673
0.160,-0.871,0.290,-7.141,20.203,-66.040
0.179,-0.809,0.253,-16.479,50.842,-74.280
0.203,-0.756,0.217,-24.414,78.918,-75.928
0.239,-0.698,0.196,-30.334,103.333,-71.899
0.271,-0.643,0.187,-33.875,122.742,-62.927
0.304,-0.597,0.188,-35.034,137.512,-50.110
0.332,-0.562,0.187,-34.363,148.132,-35.217
0.346,-0.545,0.182,-32.166,154.419,-20.813
0.351,-0.548,0.177,-28.870,157.410,-8.057
0.351,-0.556,0.174,-25.269,156.982,1.648
0.347,-0.568,0.169,-21.973,153.992,9.094
0.340,-0.579,0.159,-19.348,148.865,14.526
0.329,-0.592,0.144,-17.151,142.090,18.433
0.316,-0.602,0.125,-15.564,134.094,21.301
0.302,-0.606,0.105,-14.099,125.122,23.682
0.291,-0.607,0.090,-13.000,115.662,25.940
0.282,-0.604,0.078,-11.902,105.591,28.320
0.277,-0.600,0.073,-11.047,94.727,30.762
0.274,-0.597,0.073,-10.071,83.069,33.386
0.269,-0.589,0.070,-8.179,70.862,35.767
0.259,-0.575,0.068,-6.287,58.228,37.842
0.249,-0.569,0.061,-3.723,45.654,39.673
0.237,-0.558,0.062,-0.488,33.752,40.588
0.235,-0.547,0.072,2.563,22.278,41.504
0.234,-0.538,0.074,6.042,10.010,41.870
0.219,-0.532,0.079,9.644,-2.319,42.419
0.228,-0.560,0.079,13.428,-14.160,42.480
0.213,-0.574,0.081,16.541,-26.062,40.527
0.187,-0.585,0.077,19.043,-37.109,37.659
0.161,-0.590,0.075,21.179,-46.143,34.119

0.571,-1.682,0.553,-79.224,69.702,-3.540
0.567,-1.640,0.266,-95.947,55.298,-3.479
0.582,-1.818,0.262,-105.591,45.105,-2.197
0.743,-2.030,0.398,-114.014,30.090,-1.343
0.799,-1.941,0.489,-120.667,5.676,-2.258
0.689,-1.737,0.489,-121.033,-19.897,1.892
0.512,-1.656,0.453,-114.319,-37.415,12.390
0.338,-1.584,0.435,-104.126,-44.983,23.071
0.170,-1.490,0.446,-94.604,-44.006,30.884
0.033,-1.369,0.506,-87.402,-37.537,35.095
-0.036,-1.262,0.541,-80.139,-28.503,36.865
-0.060,-1.217,0.562,-72.998,-19.348,37.109
-0.142,-1.124,0.555,-67.078,-12.451,35.156
-0.224,-1.034,0.476,-61.951,-4.333,33.936
-0.228,-0.995,0.448,-56.946,8.972,33.997
-0.171,-0.973,0.423,-51.880,21.790,33.508
-0.083,-0.989,0.466,-47.668,33.081,29.907
0.074,-1.019,0.520,-43.335,42.175,24.292
0.239,-1.063,0.548,-38.025,48.584,18.799
0.418,-1.099,0.561,-34.363,52.063,15.015
0.555,-1.121,0.580,-32.471,50.049,12.939
0.646,-1.127,0.585,-29.846,42.175,11.963
0.670,-1.137,0.599,-27.893,32.349,11.841
0.630,-1.100,0.559,-26.123,20.935,11.414
0.506,-1.056,0.486,-25.818,10.315,10.681
0.404,-0.992,0.482,-25.696,3.906,9.949
0.334,-0.966,0.463,-23.437,1.282,7.935
0.289,-0.929,0.479,-19.592,2.136,4.333
0.318,-0.920,0.535,-15.442,5.066,1.099
0.335,-0.926,0.555,-11.230,7.690,-1.343
0.351,-0.905,0.574,-7.568,8.118,-2.625
0.365,-0.897,0.573,-4.211,7.935,-3.052
0.372,-0.887,0.590,-1.221,7.751,-3.235
0.387,-0.874,0.592,1.465,7.629,-3.723
0.399,-0.856,0.578,3.967,5.920,-4.944
0.369,-0.816,0.549,7.080,3.601,-6.592
0.402,-0.832,0.564,10.986,4.028,-6.531
0.425,-0.852,0.555,15.808,3.906,-7.874
0.447,-0.882,0.542,19.714,2.747,-9.888
0.471,-0.911,0.547,22.095,1.038,-11.597
0.444,-0.925,0.544,23.499,-2.014,-13.733
0.395,-0.917,0.541,24.414,-6.042,-15.625
0.342,-0.913,0.521,24.963,-9.827,-17.517
0.298,-0.914,0.496,25.879,-12.512,-19.897
0.260,-0.900,0.502,27.222,-14.099,-22.217
0.244,-0.902,0.511,28.381,-14.465,-24.048
0.225,-0.891,0.501,29.663,-13.916,-25.879
0.206,-0.856,0.504,30.579,-12.756,-27.100
0.211,-0.858,0.521,32.715,-11.108,-26.978
0.213,-0.878,0.512,36.011,-8.911,-26.550
0.218,-0.914,0.504,38.086,-7.324,-26.123
0.225,-0.929,0.492,39.368,-6.775,-26.367
0.218,-0.926,0.487,40.466,-7.141,-27.222
0.213,-0.945,0.464,43.030,-7.385,-28.076
0.220,-0.962,0.457,44.617,-7.263,-28.748
0.232,-0.958,0.469,44.983,-8.179,-29.236
0.236,-0.949,0.477,46.326,-9.827,-30.762
0.225,-0.944,0.455,48.584,-12.268,-32.593
0.197,-0.918,0.453,50.293,-14.587,-34.241
0.166,-0.896,0.440,51.758,-15.442,-35.400
0.144,-0.875,0.408,53.467,-14.709,-35.461
0.118,-0.858,0.383,56.091,-11.963,-35.278
0.091,-0.846,0.364,60.486,-7.568,-34.912
0.068,-0.843,0.343,64.880,-2.014,-34.729
0.041,-0.853,0.329,69.214,4.089,-34.302
0.024,-0.903,0.328,71.899,10.315,-32.410
0.023,-1.006,0.302,74.768,16.235,-30.762
0.017,-1.083,0.294,76.660,23.132,-31.616
0.019,-1.144,0.291,76.294,31.128,-32.654
0.038,-1.205,0.264,77.148,39.246,-33.997
0.068,-1.223,0.255,77.209,47.180,-35.645
0.102,-1.234,0.250,78.247,53.345,-36.133
0.170,-1.227,0.280,83.008,56.091,-36.499
0.223,-1.252,0.293,89.050,52.002,-35.461
0.279,-1.270,0.345,95.093,40.710,-33.508
0.311,-1.333,0.411,102.905,20.691,-29.114
0.231,-1.510,0.380,112.610,-9.033,-22.034
0.136,-1.682,0.355,119.934,-37.354,-17.761
0.126,-1.835,0.353,122.620,-60.913,-15.991
0.172,-1.952,0.365,119.263,-79.285,-14.343
0.209,-1.979,0.369,108.765,-91.614,-14.587
0.228,-1.892,0.367,92.834,-98.938,-18.433
0.231,-1.728,0.360,75.378,-102.295,-25.085
0.220,-1.561,0.307,59.570,-101.746,-33.752
0.204,-1.432,0.251,47.241,-97.290,-44.373
0.209,-1.302,0.193,34.668,-88.989,-54.993
0.218,-1.175,0.149,22.644,-77.515,-64.026
0.222,-1.064,0.115,11.536,-64.697,-70.313
0.216,-0.966,0.082,1.953,-49.438,-72.144
0.207,-0.870,0.059,-5.981,-32.410,-70.190
0.205,-0.795,0.047,-10.559,-15.625,-64.392
0.198,-0.739,0.040,-11.780,-0.305,-54.688
0.184,-0.693,0.035,-11.658,14.526,-40.833
0.172,-0.656,0.036,-10.437,28.076,-23.804
0.164,-0.629,0.043,-8.484,40.222,-4.944
0.164,-0.613,0.056,-6.226,49.866,14.771
0.163,-0.612,0.075,-4.089,57.007,33.997
0.161,-0.621,0.092,-1.892,61.829,50.720
0.155,-0.626,0.108,0.061,64.514,64.392
0.147,-0.625,0.119,1.953,65.125,74.951
0.141,-0.624,0.123,3.601,64.575,82.520
0.137,-0.623,0.126,5.249,62.805,87.585
0.130,-0.620,0.123,6.409,60.181,90.210
0.121,-0.614,0.119,7.385,57.495,90.759
0.111,-0.614,0.111,7.751,54.626,89.661
0.104,-0.614,0.104,7.751,51.819,87.463
0.098,-0.614,0.096,7.263,49.622,84.412
0.093,-0.612,0.090,6.104,47.119,80.444
0.087,-0.613,0.085,4.578,44.617,76.233
0.088,-0.616,0.088,3.174,42.175,71.960
0.100,-0.628,0.096,1.343,38.940,67.688
0.099,-0.614,0.099,-0.366,34.119,63.110
0.112,-0.627,0.104,-2.441,28.259,59.326
0.112,-0.636,0.101,-4.700,21.240,54.810
0.104,-0.645,0.096,-7.324,13.916,50.049
0.086,-0.644,0.088,-10.071,6.592,44.922
0.070,-0.651,0.081,-12.573,0.549,40.100
0.053,-0.665,0.074,-13.855,-4.272,35.400
0.036,-0.687,0.071,-15.564,-7.568,30.701

0.088,-1.238,1.346,-45.166,112.366,39.795
0.464,-0.866,0.957,-98.328,107.056,45.837
0.465,-0.648,0.368,-118.713,73.547,47.241
0.334,-0.591,-0.054,-114.258,42.725,51.636
0.205,-0.687,-0.187,-96.375,34.729,53.040
0.154,-0.863,-0.172,-76.843,37.720,49.255
0.143,-0.969,0.014,-65.979,51.147,41.260
0.186,-1.006,0.272,-65.674,77.759,37.170
0.143,-0.843,0.289,-68.909,99.426,32.410
0.100,-0.811,0.187,-57.068,93.811,19.287
0.218,-1.139,0.045,-36.865,77.942,13.000
0.229,-1.317,-0.119,-34.119,71.777,17.578
0.073,-1.549,-0.285,-39.429,63.782,24.597
0.252,-1.760,-0.196,-36.438,58.167,26.917
0.646,-2.015,0.072,-35.156,61.462,38.330
0.696,-2.146,0.165,-38.025,46.021,39.917
0.618,-2.027,0.133,-38.940,14.587,32.654
0.566,-2.031,0.118,-40.833,-10.010,35.706
0.373,-1.975,0.114,-44.373,-31.738,40.405
0.220,-1.797,0.057,-50.781,-45.105,42.969
0.081,-1.679,0.013,-53.833,-49.133,46.753
-0.056,-1.546,0.043,-52.917,-50.110,49.194
-0.161,-1.462,0.110,-52.429,-45.715,52.124
-0.267,-1.353,0.150,-52.795,-37.354,55.481
-0.346,-1.257,0.103,-52.734,-27.527,57.068
-0.339,-1.251,0.044,-48.950,-13.550,56.396
-0.251,-1.259,0.059,-42.786,4.211,52.612
-0.057,-1.300,0.042,-36.255,20.325,47.363
0.119,-1.344,0.045,-29.541,30.884,43.823
0.344,-1.405,0.081,-26.550,36.682,41.626
0.505,-1.411,0.113,-25.757,36.255,38.635
0.634,-1.379,0.156,-30.212,30.457,35.583
0.682,-1.292,0.184,-37.048,20.691,31.921
0.685,-1.211,0.209,-43.152,10.132,28.442
0.624,-1.073,0.211,-46.143,1.404,23.743
0.571,-1.022,0.229,-45.227,-4.944,20.142
0.468,-0.941,0.201,-43.335,-10.315,16.113
0.396,-0.876,0.189,-40.100,-12.024,13.184
0.368,-0.876,0.184,-33.569,-10.071,10.742
0.358,-0.917,0.161,-26.184,-6.714,8.240
0.392,-0.935,0.162,-20.874,-3.357,5.615
0.424,-0.952,0.191,-15.747,0.305,2.991
0.440,-0.962,0.187,-9.705,2.258,0.610
0.438,-0.980,0.213,-3.784,3.479,-1.465
0.438,-1.014,0.216,1.526,3.174,-3.296
0.447,-1.036,0.231,5.676,1.953,-5.615
0.416,-1.032,0.217,9.766,-0.183,-9.155
0.364,-1.066,0.217,13.855,-1.953,-12.451
0.369,-1.081,0.232,17.273,-3.418,-16.174
0.318,-1.047,0.193,18.921,-6.226,-21.790
0.295,-1.065,0.210,21.729,-6.104,-25.024
0.273,-1.075,0.212,24.231,-5.615,-28.503
0.238,-1.093,0.211,26.123,-5.005,-32.349
0.221,-1.152,0.206,27.954,-3.662,-35.339
0.232,-1.209,0.204,28.442,-2.319,-38.696
0.268,-1.238,0.205,27.039,-2.075,-42.053
0.270,-1.225,0.189,24.963,-4.272,-44.434
0.262,-1.208,0.206,23.376,-6.592,-45.166
0.253,-1.199,0.233,22.278,-8.179,-44.983
0.218,-1.170,0.227,21.484,-10.925,-45.837
0.169,-1.112,0.215,19.897,-14.526,-47.363
0.118,-1.057,0.197,19.043,-16.724,-47.913
0.073,-1.025,0.180,21.057,-16.113,-48.523
0.038,-1.025,0.145,25.391,-13.245,-49.011
0.025,-1.016,0.122,29.724,-9.094,-50.232
0.018,-1.003,0.107,34.241,-5.066,-51.941
0.034,-1.012,0.119,38.391,-0.671,-53.101
0.079,-1.057,0.158,41.809,2.869,-53.589
0.130,-1.065,0.182,42.114,3.235,-54.749
0.159,-1.046,0.191,40.955,1.343,-56.458
0.169,-1.035,0.182,41.382,-0.977,-57.312
0.166,-1.024,0.185,42.786,-4.089,-57.190
0.149,-1.044,0.166,44.556,-7.996,-55.908
0.119,-1.086,0.129,46.326,-11.475,-54.260
0.090,-1.113,0.106,46.021,-13.428,-52.612
0.060,-1.163,0.094,44.495,-13.184,-50.415
0.013,-1.240,0.084,42.419,-11.658,-48.767
-0.037,-1.322,0.076,38.330,-8.240,-48.279
-0.073,-1.387,0.089,32.471,-1.831,-49.194
-0.070,-1.423,0.116,24.841,5.737,-52.185
-0.062,-1.459,0.147,15.381,11.230,-56.030
-0.043,-1.480,0.168,5.737,13.855,-60.181
-0.018,-1.487,0.178,-1.648,11.963,-64.331
0.015,-1.444,0.217,-4.150,5.554,-68.909
0.043,-1.438,0.219,1.160,-8.179,-67.322
0.038,-1.437,0.182,12.634,-29.114,-59.570
0.027,-1.435,0.191,22.949,-49.377,-52.246
0.036,-1.468,0.200,32.776,-67.444,-44.189
0.044,-1.495,0.210,40.100,-81.360,-35.828
0.043,-1.478,0.198,43.518,-88.623,-28.625
0.053,-1.447,0.152,43.884,-88.989,-22.400
0.061,-1.417,0.114,42.114,-84.534,-17.761
0.056,-1.370,0.082,36.438,-76.477,-16.418
0.061,-1.289,0.033,26.978,-64.636,-17.456
0.073,-1.200,-0.000,15.747,-49.988,-20.264
0.091,-1.114,-0.025,3.601,-35.034,-23.743
0.118,-1.032,-0.050,-8.484,-20.386,-26.428
0.138,-0.956,-0.068,-19.348,-7.080,-27.405
0.158,-0.883,-0.071,-28.442,4.333,-25.757
0.180,-0.827,-0.061,-34.485,13.733,-21.423
0.194,-0.784,-0.047,-37.048,20.264,-14.648
0.204,-0.758,-0.028,-37.537,23.987,-6.409
0.212,-0.726,-0.008,-36.438,25.330,2.808
0.212,-0.684,0.011,-34.058,24.475,13.428
0.204,-0.658,0.029,-30.579,21.484,23.926
0.195,-0.653,0.037,-26.550,16.785,33.752
0.180,-0.646,0.039,-22.583,11.169,42.419
0.162,-0.634,0.036,-18.738,5.493,49.255
0.146,-0.621,0.030,-15.076,0.488,53.955
0.130,-0.608,0.028,-11.230,-3.845,57.373
0.115,-0.613,0.029,-7.080,-7.690,59.875
0.100,-0.625,0.029,-2.747,-11.108,61.035
0.084,-0.629,0.030,1.648,-14.038,60.852
0.072,-0.614,0.030,5.127,-15.930,59.082
0.066,-0.598,0.032,7.996,-17.456,57.129
0.062,-0.602,0.036,11.292,-18.677,55.115
0.056,-0.612,0.038,13.916,-19.897,53.162
0.049,-0.625,0.038,15.259,-20.813,51.636
0.042,-0.628,0.034,15.564,-22.034,50.232

-0.151,-1.577,-0.854,39.124,-17.578,108.093
-0.021,-1.574,-0.784,25.208,-7.141,99.854
0.023,-1.633,-0.761,9.216,-5.737,93.140
0.011,-1.578,-0.686,-5.554,-7.812,87.646
-0.104,-1.542,-0.667,-11.841,-10.010,82.886
-0.065,-1.449,-0.674,-11.780,-7.507,77.759
0.167,-1.386,-0.659,-7.263,-4.028,75.378
0.072,-1.358,-0.635,-1.465,-7.812,78.491
-0.038,-1.421,-0.690,5.737,-17.029,69.885
-0.017,-1.445,-0.699,15.015,-17.273,55.481
0.086,-1.360,-0.683,15.686,-10.925,46.570
0.128,-1.320,-0.673,13.672,-10.071,42.175
0.168,-1.305,-0.652,13.489,-10.010,39.368
0.202,-1.284,-0.605,12.268,-10.803,36.926
0.229,-1.306,-0.604,8.423,-13.062,35.522
0.187,-1.259,-0.612,3.662,-16.846,30.762
0.217,-1.231,-0.634,-1.526,-16.357,26.245
0.209,-1.209,-0.625,-5.249,-14.771,22.644
0.235,-1.188,-0.621,-7.446,-13.000,18.127
0.266,-1.141,-0.625,-10.620,-10.437,14.526
0.271,-1.125,-0.619,-13.367,-9.644,12.329
0.255,-1.105,-0.610,-17.273,-9.033,10.864
0.216,-1.097,-0.607,-21.790,-7.080,8.240
0.203,-1.058,-0.628,-26.489,-3.113,3.418
0.207,-1.002,-0.634,-29.114,2.014,-1.892
0.313,-1.079,-0.562,-29.846,5.737,-5.249
0.206,-0.990,-0.551,-31.006,6.836,-11.414
0.207,-0.973,-0.522,-29.419,11.414,-14.587
0.227,-1.026,-0.505,-25.452,15.259,-15.869
0.239,-1.052,-0.461,-21.484,19.104,-17.822
0.258,-1.045,-0.449,-18.066,20.630,-20.874
0.268,-1.086,-0.453,-12.939,19.165,-21.423
0.246,-1.099,-0.466,-8.423,17.517,-23.437
0.247,-1.116,-0.473,-5.005,16.113,-25.635
0.225,-1.129,-0.479,-4.150,13.794,-28.137
0.191,-1.145,-0.483,-4.761,10.986,-31.067
0.188,-1.146,-0.479,-6.470,9.766,-34.668
0.171,-1.145,-0.457,-9.521,8.667,-38.269
0.160,-1.137,-0.438,-13.428,8.423,-41.626
0.156,-1.118,-0.426,-16.602,8.423,-44.739
0.147,-1.101,-0.421,-18.311,8.728,-47.607
0.131,-1.093,-0.422,-19.043,8.911,-49.255
0.113,-1.084,-0.426,-19.592,9.033,-49.988
0.076,-1.070,-0.415,-20.569,10.071,-50.171
0.031,-1.053,-0.412,-21.301,12.939,-50.110
0.015,-1.007,-0.403,-20.691,16.846,-49.683
0.004,-0.982,-0.389,-20.142,20.630,-47.668
-0.007,-0.954,-0.366,-18.250,22.034,-45.105
-0.031,-0.946,-0.326,-15.320,22.034,-42.053
-0.040,-0.980,-0.278,-11.414,23.743,-39.673
-0.025,-1.059,-0.259,-8.301,25.513,-38.513
-0.001,-1.157,-0.275,-8.850,24.597,-39.063
0.043,-1.223,-0.292,-14.343,23.132,-41.443
0.080,-1.256,-0.321,-23.560,21.545,-44.250
0.105,-1.251,-0.326,-34.119,19.592,-46.631
0.105,-1.244,-0.304,-45.166,17.456,-47.852
0.098,-1.227,-0.275,-56.702,14.221,-49.622
0.064,-1.223,-0.245,-67.505,9.766,-51.208
0.036,-1.221,-0.209,-77.942,8.118,-53.162
0.017,-1.233,-0.168,-87.463,6.775,-54.810
-0.004,-1.281,-0.163,-95.154,5.615,-55.969
-0.018,-1.353,-0.148,-101.257,4.578,-55.908
-0.005,-1.441,-0.152,-105.164,0.305,-53.284
0.029,-1.443,-0.150,-107.849,-6.836,-46.814
0.122,-1.495,-0.115,-109.436,-19.348,-34.851
0.195,-1.484,-0.118,-110.474,-40.833,-26.917
0.236,-1.459,-0.101,-111.511,-63.110,-20.142
0.257,-1.470,-0.071,-111.145,-84.656,-12.939
0.257,-1.453,-0.054,-111.755,-105.347,-9.766
0.276,-1.411,-0.052,-111.816,-122.070,-10.559
0.346,-1.347,-0.057,-110.229,-134.949,-12.329
0.397,-1.301,-0.077,-105.896,-150.696,-13.489
0.414,-1.260,-0.107,-100.708,-168.396,-14.526
0.397,-1.194,-0.158,-95.703,-185.791,-15.869
0.363,-1.127,-0.204,-90.515,-199.829,-15.930
0.331,-1.070,-0.235,-85.388,-210.022,-14.893
0.301,-1.014,-0.246,-81.421,-216.125,-12.878
0.279,-0.952,-0.251,-79.163,-217.590,-9.644
0.254,-0.890,-0.248,-77.515,-214.844,-5.188
0.227,-0.839,-0.239,-76.294,-209.290,-0.244
0.199,-0.795,-0.226,-74.463,-201.294,5.615
0.174,-0.762,-0.205,-71.655,-190.918,12.024
0.150,-0.729,-0.178,-67.383,-179.077,19.226
0.129,-0.698,-0.150,-61.768,-166.443,26.917
0.103,-0.680,-0.123,-54.321,-153.748,35.400
0.079,-0.660,-0.101,-46.265,-140.808,44.434
0.054,-0.637,-0.078,-37.964,-127.869,53.040
0.030,-0.630,-0.059,-30.273,-114.502,61.584
0.012,-0.636,-0.049,-22.888,-100.708,68.970
-0.007,-0.639,-0.040,-15.686,-86.365,74.829
-0.024,-0.642,-0.032,-9.888,-71.472,78.979
-0.036,-0.647,-0.026,-4.639,-56.274,81.604
-0.045,-0.648,-0.022,0.000,-41.382,82.581
-0.051,-0.650,-0.020,3.113,-26.367,82.458
-0.049,-0.655,-0.016,5.310,-12.024,81.421
-0.048,-0.657,-0.014,6.775,0.671,80.078
-0.044,-0.656,-0.012,7.751,12.512,78.857
-0.037,-0.654,-0.009,8.362,22.522,77.271
-0.031,-0.648,-0.007,8.789,30.640,75.989
-0.021,-0.643,-0.007,8.606,37.170,75.073
-0.010,-0.644,-0.006,8.667,41.687,73.730
-0.000,-0.650,-0.004,8.667,44.556,72.205
0.012,-0.663,0.003,8.362,45.532,70.251
0.039,-0.686,0.011,8.179,44.067,68.115
0.060,-0.706,0.020,8.240,39.307,65.796
0.075,-0.726,0.031,8.850,32.104,62.866
0.087,-0.754,0.039,10.132,22.583,58.655
0.095,-0.780,0.043,11.292,11.292,53.101
0.099,-0.804,0.043,12.573,-0.732,46.692
0.103,-0.816,0.043,14.221,-12.634,39.124
0.103,-0.836,0.039,15.930,-24.414,30.945
0.097,-0.869,0.034,17.456,-34.790,22.827
0.097,-0.906,0.030,18.799,-43.091,14.954
0.098,-0.929,0.025,19.531,-49.072,7.507
0.102,-0.946,0.021,19.531,-52.734,0.916
0.115,-0.963,0.016,18.921,-54.810,-3.845
0.125,-0.974,0.011,17.212,-55.054,-7.629
0.135,-0.980,0.005,15.015,-53.955,-10.315
0.151,-0.985,0.001,12.512,-51.575,-11.780

0.309,-0.830,1.327,-105.957,95.459,-0.366
0.423,-0.393,1.023,-137.573,91.187,-14.526
0.283,-0.103,0.604,-130.432,46.814,-28.809
0.288,-0.195,0.328,-106.262,-5.310,-34.119
0.364,-0.372,0.138,-87.891,-60.120,-31.799
0.217,-0.442,-0.066,-78.369,-98.572,-23.437
0.116,-0.413,-0.107,-73.730,-91.797,-10.132
0.141,-0.480,-0.101,-70.984,-51.819,4.333
0.168,-0.706,-0.054,-67.139,-17.151,12.573
0.149,-0.795,0.044,-63.904,-5.493,9.705
0.074,-0.765,0.161,-61.890,-8.057,0.366
-0.020,-0.779,0.345,-58.777,-13.123,-5.737
-0.082,-0.938,0.515,-57.129,-13.611,-4.456
-0.081,-1.127,0.586,-63.171,-8.240,-2.380
0.047,-1.110,0.648,-78.857,0.122,-3.662
0.239,-1.147,0.636,-101.501,5.920,0.305
0.268,-1.209,0.469,-118.530,3.113,5.249
0.255,-1.067,0.234,-119.873,-2.258,4.883
0.212,-1.282,0.164,-119.263,2.136,15.808
0.090,-1.433,0.227,-117.188,12.329,22.827
0.139,-1.463,0.319,-113.953,19.409,22.827
0.161,-1.727,0.413,-107.422,22.888,23.010
0.138,-1.808,0.571,-99.121,21.240,5.127
0.180,-1.745,0.387,-104.919,17.700,-6.348
0.209,-1.413,0.024,-103.333,22.766,-15.442
0.196,-1.603,0.021,-78.186,29.419,-22.949
0.224,-1.702,0.130,-52.734,27.466,-27.954
0.465,-2.096,0.443,-42.664,17.334,-25.024
0.330,-1.916,0.359,-32.959,-18.494,-41.748
0.186,-1.931,0.234,-32.288,-47.607,-49.011
0.059,-1.801,0.224,-27.649,-54.871,-47.668
-0.005,-1.693,0.176,-22.217,-55.115,-41.687
-0.084,-1.560,0.081,-20.386,-50.659,-28.503
-0.168,-1.471,0.111,-22.156,-40.466,-13.611
-0.290,-1.334,0.125,-19.714,-29.358,-1.282
-0.310,-1.318,0.174,-15.076,-16.113,13.428
-0.316,-1.312,0.222,-11.597,-4.639,21.423
-0.301,-1.362,0.302,-9.705,4.761,22.156
-0.211,-1.428,0.384,-11.841,14.099,20.752
-0.102,-1.445,0.441,-19.958,23.132,18.250
0.049,-1.384,0.454,-32.959,29.602,17.395
0.185,-1.249,0.425,-45.044,31.128,18.555
0.247,-1.133,0.391,-52.490,26.978,20.569
0.271,-1.024,0.375,-55.176,22.278,20.752
0.271,-0.921,0.369,-52.917,17.700,17.639
0.287,-0.832,0.402,-47.791,14.465,12.634
0.273,-0.734,0.438,-40.710,11.353,7.812
0.254,-0.670,0.474,-31.311,9.644,4.333
0.262,-0.658,0.492,-19.104,8.240,2.075
0.307,-0.701,0.507,-5.188,6.226,0.488
0.365,-0.767,0.487,8.667,3.052,-1.343
0.341,-0.852,0.460,20.996,-3.540,-4.272
0.300,-0.944,0.432,30.396,-10.193,-7.263
0.263,-1.006,0.394,36.011,-16.235,-11.719
0.201,-1.051,0.371,38.513,-21.545,-16.479
0.135,-1.088,0.355,39.124,-26.184,-20.691
0.077,-1.089,0.334,38.696,-28.320,-24.048
0.068,-1.091,0.328,38.147,-27.649,-25.330
0.061,-1.099,0.325,38.513,-26.550,-25.269
0.049,-1.094,0.322,38.879,-25.818,-25.452
0.024,-1.086,0.326,38.940,-26.245,-25.513
-0.011,-1.083,0.328,38.452,-27.222,-25.879
-0.054,-1.052,0.316,37.781,-28.198,-27.161
-0.082,-1.019,0.307,36.682,-27.283,-27.649
-0.090,-1.005,0.299,36.255,-24.597,-27.405
-0.095,-1.010,0.313,35.645,-20.813,-26.245
-0.091,-1.025,0.326,33.875,-15.442,-23.987
-0.100,-1.025,0.320,31.433,-10.681,-21.484
-0.117,-1.045,0.323,29.175,-6.897,-18.677
-0.133,-1.075,0.322,27.466,-2.869,-15.442
-0.142,-1.101,0.306,27.588,0.549,-13.428
-0.142,-1.113,0.299,29.053,3.662,-13.123
-0.139,-1.127,0.284,31.555,7.141,-13.550
-0.147,-1.163,0.275,35.278,10.986,-14.526
-0.166,-1.212,0.268,39.063,16.602,-14.893
-0.176,-1.245,0.286,41.321,25.696,-14.771
-0.156,-1.300,0.348,43.945,34.912,-12.451
-0.095,-1.396,0.425,47.729,41.504,-8.972
-0.057,-1.541,0.426,52.124,41.809,-4.883
-0.036,-1.631,0.427,55.420,36.133,-1.892
0.029,-1.709,0.408,60.974,24.048,4.639
0.102,-1.769,0.392,69.824,2.747,17.273
0.149,-1.809,0.456,75.623,-21.790,24.048
0.185,-1.855,0.473,83.130,-49.622,26.978
0.212,-1.905,0.444,90.576,-79.285,31.860
0.181,-1.933,0.417,95.886,-103.577,36.072
0.119,-1.870,0.425,97.961,-117.737,36.194
0.072,-1.842,0.391,100.891,-127.441,35.461
0.018,-1.845,0.379,104.187,-122.864,35.889
-0.042,-1.729,0.411,96.924,-102.356,32.593
-0.077,-1.504,0.479,80.933,-73.669,25.635
-0.025,-1.237,0.415,66.589,-44.312,14.587
0.087,-1.112,0.270,62.134,-19.836,1.343
0.117,-1.117,0.198,61.218,1.099,-8.423
0.092,-1.147,0.186,56.641,25.391,-15.625
0.082,-1.082,0.193,45.166,53.467,-20.752
0.129,-0.986,0.171,32.471,76.660,-24.414
0.201,-0.906,0.160,21.973,92.590,-24.841
0.246,-0.842,0.166,13.611,102.783,-21.118
0.260,-0.774,0.173,6.958,107.849,-14.771
0.263,-0.715,0.176,1.282,109.253,-6.775
0.269,-0.669,0.178,-3.601,108.276,1.892
0.282,-0.632,0.181,-7.141,104.309,11.719
0.286,-0.600,0.179,-9.338,97.290,21.057
0.282,-0.577,0.169,-11.536,88.806,29.907
0.263,-0.559,0.152,-12.634,79.468,37.231
0.236,-0.540,0.134,-13.367,70.679,43.152
0.209,-0.520,0.115,-13.977,63.721,47.791
0.182,-0.500,0.097,-14.282,58.411,51.086
0.158,-0.478,0.080,-14.343,54.993,53.406
0.137,-0.454,0.070,-14.160,53.955,54.993
0.123,-0.433,0.063,-13.550,53.772,55.847
0.112,-0.416,0.061,-12.268,54.443,56.213
0.103,-0.402,0.060,-10.742,55.542,56.091
0.097,-0.388,0.061,-8.667,56.335,55.603
0.094,-0.371,0.059,-6.775,57.434,54.688
0.085,-0.354,0.056,-5.676,58.289,53.772
0.075,-0.335,0.053,-4.761,58.838,53.162
0.088,-0.351,0.061,-4.150,58.777,53.162

0.375,-1.304,1.109,-50.903,58.655,11.597
0.404,-1.308,0.964,-67.749,38.696,2.625
0.314,-1.220,0.645,-83.130,16.968,-4.272
0.257,-1.112,0.396,-93.506,5.554,-5.676
0.313,-1.202,0.223,-100.098,2.808,0.488
0.381,-1.281,0.063,-99.915,-0.183,3.601
0.403,-1.390,0.060,-94.055,-3.235,4.333
0.475,-1.694,0.143,-90.637,-11.597,2.258
0.444,-1.946,0.188,-92.163,-25.085,-10.437
0.404,-2.067,0.412,-96.497,-29.846,-27.771
0.413,-2.217,0.644,-106.201,-32.410,-40.649
0.381,-2.026,0.531,-121.033,-36.316,-50.476
0.432,-1.553,0.360,-129.639,-32.776,-50.293
0.492,-1.417,0.275,-122.620,-38.757,-40.955
0.270,-1.364,0.197,-106.201,-53.223,-27.039
0.176,-1.491,0.243,-95.581,-54.810,-3.418
0.001,-1.608,0.387,-73.181,-58.533,1.953
-0.187,-1.525,0.257,-61.829,-68.787,-7.629
-0.114,-1.502,0.264,-58.228,-59.448,-10.498
-0.120,-1.446,0.265,-55.298,-47.729,-16.113
-0.090,-1.342,0.280,-51.453,-45.410,-22.461
-0.073,-1.276,0.330,-48.462,-42.847,-19.470
-0.069,-1.229,0.409,-43.884,-35.706,-10.864
-0.087,-1.161,0.450,-39.429,-30.823,-2.930
-0.063,-1.147,0.480,-34.180,-23.437,6.775
-0.035,-1.140,0.430,-29.663,-13.733,16.174
0.020,-1.128,0.422,-25.208,-4.822,22.156
0.096,-1.137,0.442,-21.484,-0.427,26.550
0.127,-1.158,0.434,-20.203,1.770,27.771
0.190,-1.172,0.421,-21.729,4.883,26.123
0.274,-1.176,0.431,-24.353,7.751,21.667
0.350,-1.155,0.453,-27.344,8.240,15.320
0.381,-1.117,0.491,-31.616,5.493,9.277
0.347,-1.043,0.527,-36.621,0.610,4.578
0.293,-0.949,0.544,-39.429,-4.150,0.671
0.233,-0.861,0.548,-38.086,-8.057,-2.441
0.183,-0.785,0.546,-32.715,-9.827,-3.906
0.165,-0.740,0.559,-24.719,-9.338,-4.028
0.154,-0.726,0.560,-15.137,-8.972,-3.418
0.151,-0.732,0.545,-4.517,-8.789,-2.869
0.158,-0.771,0.538,6.042,-8.789,-1.770
0.168,-0.822,0.542,15.442,-8.789,-0.916
0.168,-0.871,0.548,23.193,-9.827,-0.977
0.166,-0.921,0.547,28.748,-11.475,-2.075
0.166,-0.974,0.520,32.654,-13.794,-4.028
0.168,-1.004,0.500,34.729,-16.357,-6.714
0.153,-1.013,0.475,35.889,-18.555,-9.216
