aX,aY,aZ,gX,gY,gZ
0.832,1.025,1.126,-37.109,104.492,-16.052
0.881,0.968,1.258,-14.771,87.769,-8.606
0.833,0.810,1.310,-1.465,61.279,3.296
0.750,0.647,1.254,-1.160,31.372,15.442
0.629,0.573,1.128,-12.329,3.479,22.217
0.409,0.558,1.021,-25.574,-15.015,21.423
0.123,0.695,0.986,-34.302,-11.353,16.602
0.092,1.009,1.198,-31.677,20.752,10.498
0.348,1.217,1.673,-13.672,75.378,11.536
0.926,1.275,2.314,13.672,126.099,26.184
1.421,1.031,2.845,34.424,141.418,51.819
1.730,0.599,3.089,29.053,104.980,83.618
1.636,0.355,3.017,-7.263,27.344,112.000
1.168,0.394,2.588,-58.838,-59.387,130.005
0.546,0.602,1.982,-103.210,-118.408,135.071
0.068,0.822,1.441,-125.122,-130.615,126.831
-0.129,0.966,1.023,-123.718,-104.980,112.000
-0.113,1.090,0.814,-101.746,-62.134,95.642
0.099,1.193,0.883,-62.561,-25.085,83.069
0.399,1.179,1.105,-7.812,-12.939,77.332
0.504,0.900,1.459,52.917,-30.090,81.726
0.502,0.409,1.754,102.661,-66.040,97.961
0.316,-0.344,2.003,128.601,-101.868,116.821
0.015,-0.753,2.144,125.305,-124.878,122.131
-0.210,-0.983,2.217,102.783,-125.671,111.084
-0.184,-1.050,2.243,76.233,-102.417,84.106
-0.020,-1.059,2.334,57.373,-69.946,51.514
0.279,-0.946,2.394,52.124,-45.837,20.996
0.482,-0.683,2.504,59.265,-43.335,10.132
0.623,-0.567,2.650,72.266,-62.378,31.067
0.547,-0.472,2.542,87.036,-102.661,68.909
0.298,-0.661,2.377,99.976,-138.062,105.225
-0.079,-0.913,2.148,103.516,-149.597,123.108
-0.260,-1.116,1.902,100.159,-126.831,117.737
-0.346,-1.505,1.824,88.501,-77.515,90.515
-0.221,-1.576,1.746,63.965,-16.174,40.771
-0.101,-1.454,1.687,35.400,37.231,-21.118
0.164,-1.244,1.634,9.766,74.951,-66.711
0.438,-1.105,1.562,-8.057,88.989,-93.567
0.622,-0.982,1.475,-17.517,83.618,-105.835
0.704,-0.969,1.375,-20.203,64.209,-100.220
0.671,-1.097,1.199,-19.287,35.828,-80.750
0.577,-1.219,1.024,-20.752,9.705,-55.054
0.421,-1.283,0.820,-24.231,-10.559,-28.076
0.312,-1.242,0.688,-28.809,-21.667,-0.061
0.261,-1.219,0.549,-32.898,-30.457,32.227
0.151,-1.148,0.448,-34.241,-39.612,58.167
0.047,-1.085,0.372,-30.518,-46.143,74.463
-0.001,-1.040,0.346,-21.667,-48.706,78.735
-0.182,-0.883,0.362,-10.864,-45.166,73.914
-0.267,-0.863,0.445,2.258,-30.640,72.083
-0.241,-0.853,0.596,12.512,-5.005,72.266
-0.122,-0.851,0.824,17.090,23.193,74.280
0.035,-0.808,1.020,14.465,44.556,77.454
0.218,-0.714,1.185,5.737,52.673,83.618
0.370,-0.595,1.314,-4.761,45.471,86.731
0.341,-0.505,1.323,-11.963,24.597,82.825
0.223,-0.509,1.244,-14.465,2.930,75.684
0.089,-0.631,1.112,-15.381,-7.385,66.589
-0.015,-0.712,0.984,-18.433,-1.709,51.208
-0.056,-0.675,0.905,-22.400,17.822,32.349
0.012,-0.602,0.907,-23.621,43.518,15.930
0.102,-0.483,0.954,-20.203,64.270,4.761
0.209,-0.330,1.055,-13.123,74.280,2.441
0.326,-0.239,1.186,-2.014,68.359,11.719
0.364,-0.247,1.267,11.963,48.401,26.001
0.326,-0.316,1.288,24.170,22.156,39.124
0.198,-0.393,1.252,32.166,-1.770,46.875
0.055,-0.442,1.182,37.415,-14.832,44.495
-0.075,-0.531,1.120,41.199,-13.000,31.555
-0.206,-0.629,1.024,41.016,5.310,11.108
-0.210,-0.596,0.978,34.424,39.368,-8.606
-0.073,-0.450,1.017,25.513,77.209,-21.606
0.122,-0.301,1.103,21.423,102.295,-25.696
0.318,-0.180,1.201,22.705,107.239,-20.447
0.442,-0.086,1.307,26.428,91.492,-6.287
0.442,-0.061,1.360,32.532,60.669,11.780
0.340,-0.095,1.360,38.818,26.001,28.442
0.198,-0.173,1.330,42.297,-0.061,38.269
0.055,-0.263,1.290,41.504,-10.864,37.231
-0.068,-0.341,1.236,36.621,-5.493,24.536
-0.152,-0.305,1.187,25.269,15.015,3.235
-0.113,-0.146,1.173,9.705,46.082,-15.930
0.029,0.001,1.205,-3.113,74.219,-25.024
0.179,0.157,1.281,-8.118,87.463,-25.513
0.300,0.268,1.378,-5.310,82.703,-20.569
0.364,0.249,1.436,2.930,61.157,-14.282
0.327,0.153,1.428,10.193,31.860,-11.719
0.228,0.062,1.379,13.611,6.592,-16.602
0.095,-0.010,1.286,13.733,-6.348,-29.480
-0.016,-0.029,1.185,9.644,-3.113,-48.401
-0.077,0.081,1.056,4.761,15.747,-70.007
0.072,0.020,1.313,-5.432,55.664,-83.740
0.247,0.243,1.033,4.211,80.444,-102.417
0.355,0.275,1.134,1.160,86.548,-100.708
0.453,0.233,1.109,-4.211,80.994,-85.999
0.578,0.314,1.233,-5.676,64.758,-71.777
0.524,0.282,1.111,-3.052,34.241,-54.932
0.490,0.244,1.111,-3.418,7.690,-36.926
0.431,0.215,1.022,-6.287,-18.250,-27.466
0.332,0.203,0.943,-7.446,-38.513,-24.597
0.228,0.248,0.837,-7.568,-50.842,-28.381
0.151,0.301,0.790,-5.188,-53.345,-33.325
0.133,0.301,0.751,3.662,-49.866,-40.466
0.153,0.324,0.735,15.625,-43.884,-50.415
0.179,0.343,0.727,29.907,-38.330,-59.326
0.187,0.330,0.723,46.204,-33.630,-66.833
0.178,0.272,0.719,61.157,-31.433,-70.679
0.170,0.192,0.728,72.083,-30.884,-71.411
0.153,0.089,0.688,77.026,-30.884,-68.848
0.141,-0.005,0.682,74.890,-29.358,-63.843
0.143,-0.043,0.707,67.261,-26.978,-58.228
0.130,-0.031,0.722,56.702,-25.513,-51.025
0.131,-0.040,0.720,46.021,-24.414,-42.664
0.132,-0.062,0.739,34.668,-22.888,-34.363
0.097,-0.081,0.740,23.132,-19.958,-24.963
0.078,-0.098,0.713,12.207,-15.320,-14.832
0.097,-0.088,0.706,3.113,-9.033,-6.592
0.113,-0.048,0.697,-2.075,-3.418,-1.038

0.540,1.988,0.767,-52.917,37.354,29.724
0.679,2.128,0.902,-54.688,39.307,36.316
0.849,2.140,1.010,-54.688,39.429,40.161
0.980,2.073,1.046,-56.824,35.034,41.321
1.047,2.011,1.004,-62.622,26.550,40.649
1.103,1.914,0.930,-70.374,17.700,39.673
1.105,2.031,0.912,-76.477,9.460,34.546
1.078,1.654,0.775,-75.073,-1.526,37.659
1.151,1.677,0.781,-63.843,-13.611,42.419
1.125,1.859,0.849,-46.875,-34.302,45.288
1.066,1.266,1.025,-23.804,-58.105,73.242
0.980,0.877,1.149,-10.376,-79.895,106.750
0.917,0.463,1.400,-19.165,-86.853,144.043
0.978,0.270,1.620,-38.513,-95.276,165.161
1.038,0.126,1.781,-57.129,-112.854,164.001
0.731,-0.026,1.580,-70.618,-143.066,146.851
0.434,-0.002,1.607,-80.383,-155.884,125.610
0.238,0.026,1.753,-75.806,-148.621,112.366
0.135,-0.117,2.013,-56.335,-134.705,109.192
-0.126,-0.302,2.234,-31.006,-120.972,109.070
0.024,-0.610,2.574,-6.165,-106.995,111.450
0.235,-0.990,2.716,12.451,-104.065,97.656
0.282,-1.107,2.827,18.250,-105.713,65.308
0.233,-1.147,2.780,10.681,-112.915,20.569
0.301,-1.149,2.596,-1.465,-114.441,-22.888
0.305,-1.060,2.376,-12.390,-104.370,-65.247
0.298,-0.868,2.161,-13.062,-82.581,-98.938
0.443,-0.825,2.110,5.310,-53.345,-119.568
0.744,-0.871,2.018,32.471,-32.715,-127.136
0.805,-0.827,1.974,62.805,-25.085,-123.413
1.000,-1.026,1.960,96.985,-27.222,-115.479
0.849,-1.265,1.751,127.014,-35.583,-102.417
0.639,-1.313,1.796,143.311,-35.522,-80.444
0.677,-1.974,1.785,145.996,-31.494,-35.339
0.639,-2.159,1.547,120.789,-26.123,-5.554
0.616,-2.084,1.663,68.665,-24.292,14.893
0.461,-1.719,1.410,15.503,-41.626,30.273
0.232,-1.243,1.313,-26.917,-61.096,43.213
0.046,-0.976,1.180,-47.180,-79.224,53.650
-0.102,-0.854,1.040,-48.096,-92.590,55.786
-0.281,-0.747,0.886,-41.077,-98.755,45.288
-0.346,-0.782,0.822,-30.762,-92.468,30.762
-0.342,-0.818,0.779,-22.278,-79.895,15.015
-0.320,-0.753,0.771,-18.005,-63.232,3.540
-0.321,-0.660,0.765,-21.484,-43.091,0.610
-0.292,-0.632,0.771,-28.992,-20.813,10.498
-0.178,-0.550,0.806,-39.978,-0.610,24.170
-0.087,-0.434,0.888,-46.570,7.996,31.128
-0.093,-0.380,0.871,-47.302,3.784,31.921
-0.104,-0.290,0.861,-45.227,-3.479,30.762
-0.116,-0.134,0.897,-38.147,-10.376,28.564
-0.101,-0.054,0.937,-25.452,-15.686,28.442
-0.082,-0.073,1.020,-11.108,-18.433,30.884
-0.094,-0.219,1.118,0.305,-19.226,32.532
-0.119,-0.401,1.216,2.808,-13.000,34.302
-0.125,-0.524,1.227,-5.737,-1.587,38.208
-0.106,-0.494,1.189,-20.081,10.620,41.138
-0.064,-0.351,1.133,-31.311,19.043,38.940
-0.027,-0.257,1.092,-31.250,21.240,28.625
-0.021,-0.250,1.010,-20.569,16.479,12.085
-0.010,-0.284,0.904,-6.470,10.681,-5.371
0.030,-0.262,0.875,6.653,10.132,-20.020
0.091,-0.195,0.932,18.555,14.099,-23.376
0.214,-0.110,1.050,28.931,18.066,-11.658
0.318,-0.083,1.202,39.185,15.015,10.132
0.338,-0.159,1.313,47.729,2.869,37.537
0.313,-0.281,1.387,51.270,-14.465,63.416
0.208,-0.403,1.396,48.645,-32.227,79.102
0.061,-0.518,1.319,42.847,-45.471,80.200
-0.097,-0.611,1.185,35.767,-47.363,65.796
-0.200,-0.672,1.053,29.968,-34.241,37.292
-0.219,-0.703,0.953,26.062,-7.324,1.831
-0.195,-0.584,0.936,23.132,29.480,-30.151
-0.054,-0.335,1.019,22.827,67.688,-44.739
0.216,-0.084,1.179,29.907,91.736,-38.330
0.462,0.043,1.337,43.579,90.149,-16.296
0.570,0.023,1.428,59.082,63.354,15.015
0.557,-0.081,1.477,69.580,22.095,48.279
0.427,-0.186,1.458,73.853,-20.508,74.219
0.247,-0.284,1.394,73.547,-53.284,89.111
0.060,-0.362,1.314,70.190,-68.542,90.942
-0.060,-0.431,1.233,65.063,-62.866,79.468
-0.179,-0.394,1.160,57.617,-39.429,57.922
-0.192,-0.220,1.197,48.950,-3.967,37.109
-0.014,-0.056,1.329,45.959,27.893,29.236
0.152,-0.054,1.380,50.781,42.175,29.053
0.188,-0.053,1.424,55.969,40.588,26.550
0.172,-0.110,1.432,59.753,30.640,25.391
0.157,-0.188,1.411,61.218,21.545,24.597
0.131,-0.305,1.379,59.143,18.250,20.081
0.104,-0.390,1.322,52.429,23.560,10.742
0.103,-0.423,1.249,41.077,37.415,0.244
0.125,-0.370,1.191,27.405,56.763,-10.498
0.170,-0.156,1.174,15.015,75.378,-17.761
0.290,-0.070,1.174,10.071,85.999,-16.174
0.395,0.096,1.231,14.038,82.214,-7.385
0.420,0.068,1.275,23.804,65.857,7.019
0.407,0.081,1.268,35.461,43.518,16.602
0.326,0.017,1.261,46.021,23.926,27.588
0.229,-0.066,1.205,53.650,14.709,34.241
0.138,-0.164,1.156,58.167,20.508,32.532
0.064,-0.273,1.080,59.875,40.039,22.217
0.062,-0.320,1.089,56.702,69.946,7.385
0.159,-0.334,1.153,48.157,100.891,-1.587
0.341,-0.286,1.256,33.875,121.399,-1.831
0.615,0.158,1.359,18.005,122.559,3.845
0.509,-0.257,1.386,7.996,103.027,20.142
0.546,-0.103,1.327,-1.221,71.289,33.325
0.375,-0.056,1.350,-7.019,43.640,35.706
0.278,0.027,1.191,-7.202,21.667,36.743
0.079,-0.057,1.031,-5.676,16.418,34.790
-0.090,-0.127,0.927,-4.517,33.447,21.301
-0.022,-0.001,0.943,-0.671,62.683,2.441
0.129,0.215,0.980,7.263,90.881,-15.869
0.140,-0.021,0.781,17.517,108.398,-23.804
0.268,0.125,0.945,16.357,123.596,-30.457
0.382,-0.022,0.934,22.705,125.488,-28.137
0.418,0.039,0.977,22.522,114.441,-25.024
0.431,0.044,1.037,16.235,93.628,-13.000

1.228,0.835,0.539,-3.418,-71.838,40.039
1.261,0.631,0.715,-13.306,-83.557,75.500
1.492,0.560,0.947,-38.452,-85.266,116.516
1.636,0.448,1.106,-65.613,-86.365,152.344
1.599,0.392,1.186,-91.064,-95.215,169.373
1.448,0.423,1.172,-110.535,-108.948,169.495
1.237,0.354,1.200,-115.662,-119.568,157.776
1.035,0.278,1.068,-114.990,-124.512,140.198
1.032,0.380,1.231,-112.183,-112.305,120.605
0.937,0.163,1.157,-98.145,-96.558,111.145
1.131,0.280,1.549,-84.045,-69.397,105.408
1.376,0.221,1.764,-60.425,-52.002,114.746
1.601,0.026,2.013,-32.959,-51.880,127.380
1.736,-0.113,2.264,-7.751,-66.223,125.977
1.782,-0.293,2.463,8.850,-90.088,112.854
1.619,-0.461,2.417,16.479,-127.930,90.088
1.236,-0.610,2.148,13.306,-161.072,59.875
0.990,-0.612,1.964,1.404,-165.405,25.879
0.849,-0.595,1.815,-4.395,-150.879,-11.169
0.773,-0.532,1.727,-2.625,-122.620,-49.805
0.814,-0.470,1.754,6.470,-88.928,-84.106
0.994,-0.496,1.903,22.888,-57.739,-106.995
1.161,-0.612,2.045,39.368,-38.269,-113.647
1.282,-0.758,2.066,46.997,-32.532,-104.492
1.365,-0.812,2.013,43.396,-35.828,-87.891
1.380,-0.763,1.881,35.583,-44.128,-71.228
1.242,-0.703,1.681,28.992,-51.636,-58.167
1.196,-0.435,1.637,27.832,-53.406,-47.546
0.832,-0.626,1.300,37.598,-55.969,-32.898
0.719,-0.825,1.238,39.490,-39.490,-32.593
0.658,-0.829,1.281,36.499,-13.733,-43.884
0.627,-0.941,1.278,33.447,2.014,-48.401
0.681,-0.968,1.245,21.912,11.047,-41.321
0.765,-0.950,1.168,7.019,9.033,-24.048
0.829,-0.934,1.076,-7.629,-5.676,-5.737
0.761,-0.709,1.064,-21.057,-26.672,4.883
0.578,-0.519,1.036,-25.452,-47.913,20.752
0.465,-0.537,0.920,-19.592,-65.369,38.635
0.338,-0.597,0.828,-14.038,-69.885,46.021
0.244,-0.602,0.805,-10.132,-61.768,41.199
0.241,-0.624,0.777,-5.493,-45.532,31.921
0.297,-0.617,0.786,-2.014,-24.292,18.127
0.415,-0.533,0.855,0.549,-3.296,2.930
0.580,-0.510,0.951,3.296,12.207,-6.042
0.672,-0.481,1.010,5.615,19.592,-7.690
0.739,-0.423,1.160,4.211,23.437,2.686
0.854,-0.417,1.253,1.343,20.508,26.245
0.898,-0.395,1.259,-2.808,7.507,49.988
0.864,-0.357,1.218,-6.531,-11.780,65.552
0.756,-0.335,1.157,-7.141,-32.349,69.092
0.613,-0.321,1.098,-5.005,-46.448,64.270
0.541,-0.357,1.057,-2.258,-49.255,55.786
0.527,-0.299,1.044,-1.648,-40.222,47.119
0.562,-0.200,1.064,-2.075,-25.574,45.532
0.644,-0.138,1.137,0.488,-13.000,47.974
0.704,-0.109,1.225,5.066,-7.812,51.331
0.703,-0.158,1.282,8.850,-10.681,56.946
0.673,-0.225,1.298,9.705,-18.982,64.209
0.625,-0.195,1.298,5.676,-29.175,68.542
0.525,-0.189,1.194,2.686,-37.354,67.261
0.406,-0.131,1.170,1.282,-39.368,57.800
0.356,-0.159,1.112,1.587,-35.278,46.204
0.303,-0.112,1.056,5.371,-22.827,31.006
0.349,-0.033,1.112,7.568,-3.723,16.479
0.459,-0.028,1.112,11.841,14.893,4.944
0.556,-0.043,1.126,15.625,31.677,-4.639
0.683,-0.017,1.162,15.625,45.105,-7.202
0.839,0.074,1.177,13.062,49.438,2.136
0.958,0.194,1.203,12.390,39.917,20.569
0.941,0.304,1.210,17.456,17.578,39.429
0.817,0.322,1.184,28.442,-7.935,54.199
0.640,0.231,1.166,40.771,-26.428,62.927
0.464,0.103,1.163,50.232,-31.555,61.462
0.328,-0.003,1.123,52.429,-21.240,49.072
0.323,-0.009,1.101,47.058,0.061,29.175
0.384,0.068,1.144,38.147,23.865,10.742
0.473,0.161,1.206,32.532,41.077,-1.831
0.562,0.246,1.261,31.677,49.255,-7.507
0.626,0.260,1.310,34.790,49.316,-7.568
0.630,0.226,1.329,38.452,44.128,-4.578
0.591,0.157,1.327,40.771,39.551,-2.075
0.535,0.105,1.275,39.795,40.222,-2.319
0.539,0.031,1.264,34.180,49.744,-4.333
0.493,0.072,1.126,26.367,58.838,-12.695
0.599,0.101,1.124,17.395,63.660,-22.034
0.509,0.171,1.090,10.132,60.303,-32.166
0.361,0.403,1.021,7.324,55.725,-41.626
0.511,0.224,1.070,9.705,58.960,-44.067
0.436,0.274,1.068,11.658,66.040,-51.697
0.563,0.308,1.137,12.024,70.984,-53.650
0.639,0.338,1.160,8.972,71.533,-51.758
0.663,0.279,1.125,6.165,64.880,-46.448
0.645,0.285,1.099,0.854,58.411,-45.044
0.588,0.328,1.053,-4.089,53.711,-47.729
0.550,0.351,0.994,-7.751,51.758,-50.598
0.484,0.366,0.922,-10.498,53.711,-54.016
0.456,0.371,0.855,-12.085,61.157,-57.678
0.439,0.360,0.782,-12.207,70.862,-62.439
0.411,0.393,0.750,-12.207,81.543,-69.580
0.439,0.448,0.737,-10.681,91.003,-73.364
0.545,0.383,0.711,-6.470,94.177,-69.824
0.520,0.355,0.668,-2.930,90.881,-67.566
0.523,0.393,0.687,-2.319,86.853,-65.613
0.514,0.327,0.653,0.488,79.285,-61.707
0.494,0.395,0.656,0.183,70.862,-58.899
0.492,0.249,0.698,-1.892,61.340,-49.744
0.422,0.206,0.641,-7.629,52.002,-44.006
0.368,0.203,0.620,-17.700,49.805,-38.940
0.298,0.197,0.578,-29.236,52.185,-34.851
0.260,0.195,0.517,-40.466,61.707,-34.790
0.234,0.219,0.449,-49.805,75.439,-39.856
0.239,0.238,0.393,-56.458,89.233,-47.913
0.219,0.222,0.328,-60.425,101.196,-59.143
0.149,0.219,0.258,-63.232,114.502,-70.679
0.121,0.313,0.188,-64.575,133.789,-80.078
0.199,0.329,0.137,-62.012,158.691,-86.426
0.245,0.347,0.136,-56.702,183.105,-93.323
0.323,0.313,0.096,-50.598,201.233,-99.243
0.386,0.262,0.104,-45.837,213.928,-104.797

0.769,1.088,0.696,-70.557,-45.654,82.397
0.742,1.129,0.706,-74.219,-43.823,82.764
0.751,1.148,0.737,-76.050,-34.546,81.299
0.826,1.156,0.784,-76.782,-22.217,76.538
0.994,1.136,0.840,-75.073,-13.062,72.632
1.159,1.079,0.910,-72.693,-14.648,70.618
1.264,0.989,0.936,-69.641,-29.724,70.801
1.246,0.938,0.957,-65.552,-52.734,72.205
1.223,0.894,0.963,-57.373,-76.294,71.289
1.118,0.885,1.011,-42.297,-92.773,65.979
1.054,0.765,1.183,-22.461,-98.633,63.171
1.045,0.543,1.501,-4.028,-90.454,66.650
1.213,0.370,1.808,6.287,-69.641,79.224
1.488,0.199,2.114,8.606,-53.528,97.412
1.681,0.021,2.332,5.615,-57.861,107.971
1.697,-0.129,2.362,-1.099,-84.961,101.440
1.531,-0.228,2.264,-7.568,-119.873,78.735
1.290,-0.340,2.195,-11.108,-141.785,46.326
1.066,-0.553,2.180,-13.733,-134.033,15.015
1.072,-0.676,2.135,-24.658,-98.633,-7.141
1.209,-0.699,2.130,-40.710,-56.519,-23.499
1.401,-0.678,2.109,-52.856,-28.503,-41.748
1.572,-0.665,2.083,-58.655,-20.264,-60.669
1.713,-0.667,2.069,-60.303,-26.794,-69.458
1.728,-0.730,1.985,-59.021,-43.030,-62.378
1.666,-0.793,1.828,-57.129,-60.791,-48.828
1.553,-0.802,1.642,-53.711,-72.693,-34.912
1.395,-0.797,1.446,-46.082,-76.660,-20.813
1.253,-0.809,1.278,-33.203,-73.730,-8.057
1.113,-0.894,1.135,-14.954,-67.871,-0.549
0.972,-1.039,1.026,5.737,-61.035,2.808
0.822,-1.240,0.952,24.170,-53.772,3.906
0.658,-1.366,0.900,36.560,-44.373,3.540
0.482,-1.478,0.854,41.809,-30.945,6.836
0.357,-1.499,0.808,39.185,-12.817,12.146
0.382,-1.446,0.810,30.396,8.484,18.311
0.494,-1.315,0.824,18.188,23.132,28.809
0.569,-1.134,0.813,5.249,19.714,41.809
0.555,-0.931,0.755,-4.639,-0.427,52.368
0.445,-0.865,0.651,-8.240,-27.222,56.763
0.267,-0.856,0.542,-5.737,-47.913,51.086
0.059,-0.725,0.482,-4.639,-52.307,35.217
0.004,-0.672,0.494,0.732,-36.926,23.071
0.046,-0.647,0.530,7.690,-9.399,10.193
0.183,-0.571,0.647,12.146,24.292,1.221
0.388,-0.543,0.716,16.663,50.293,-3.662
0.564,-0.443,0.850,19.836,65.186,-7.385
0.730,-0.338,0.994,22.156,64.575,-3.052
0.815,-0.298,1.110,24.902,48.096,9.277
0.792,-0.260,1.157,27.222,22.217,25.391
0.691,-0.283,1.129,29.297,-3.540,41.504
0.544,-0.335,1.067,31.189,-20.569,52.307
0.408,-0.398,1.009,32.288,-25.940,54.626
0.315,-0.436,0.966,32.776,-19.897,47.485
0.298,-0.462,0.917,33.142,-5.615,33.447
0.324,-0.434,0.878,33.630,12.146,16.357
0.421,-0.353,0.905,35.278,28.015,0.427
0.546,-0.295,0.958,41.138,37.048,-9.766
0.629,-0.263,0.970,49.072,38.208,-13.428
0.678,-0.224,0.979,55.786,34.729,-10.986
0.724,-0.187,1.019,60.059,29.236,-3.296
0.743,-0.171,1.073,64.514,21.973,7.874
0.720,-0.183,1.109,69.275,13.000,19.409
0.673,-0.245,1.111,73.364,4.700,27.283
0.587,-0.330,1.076,74.646,0.610,27.649
0.502,-0.367,1.042,71.960,4.211,19.348
0.473,-0.359,1.035,65.857,16.907,5.859
0.525,-0.297,1.088,58.594,33.264,-7.019
0.633,-0.234,1.174,53.406,45.471,-15.259
0.756,-0.207,1.256,51.086,49.011,-17.700
0.815,-0.209,1.299,48.767,45.227,-14.954
0.797,-0.165,1.286,44.800,37.659,-7.874
0.827,-0.234,1.258,40.039,31.677,-0.732
0.761,-0.193,1.234,33.264,27.832,-4.333
0.707,-0.230,1.148,28.320,27.405,-9.827
0.656,-0.221,1.083,21.851,33.813,-22.583
0.655,-0.169,1.018,15.015,45.471,-36.072
0.691,-0.003,1.005,11.047,57.678,-45.715
0.790,0.068,1.037,13.184,65.918,-45.410
0.904,0.131,1.110,20.996,67.261,-40.161
0.963,0.143,1.163,32.654,58.655,-29.602
0.966,0.068,1.178,43.884,43.457,-15.503
0.890,-0.033,1.161,50.659,27.405,-3.967
0.775,-0.141,1.120,52.551,16.724,2.502
0.657,-0.247,1.056,48.523,14.221,2.991
0.563,-0.307,0.983,38.452,20.447,-3.723
0.519,-0.307,0.933,25.330,33.752,-18.372
0.527,-0.218,0.922,12.085,52.734,-39.185
0.606,-0.128,0.939,2.075,72.937,-59.021
0.710,-0.052,0.966,-4.333,88.867,-73.547
0.819,0.034,1.005,-8.301,98.083,-81.482
0.911,0.101,1.030,-9.705,100.281,-83.130
0.976,0.135,1.026,-8.667,96.985,-79.895
0.990,0.155,1.000,-8.118,90.149,-72.083
0.964,0.162,0.958,-7.690,81.848,-62.317
0.912,0.164,0.900,-6.775,74.463,-53.894
0.845,0.156,0.850,-5.432,70.007,-47.974
0.773,0.156,0.811,-3.357,69.397,-43.579
0.754,0.149,0.787,-0.244,71.655,-40.283
0.735,0.130,0.754,2.197,74.768,-40.405
0.721,0.126,0.728,4.333,78.369,-43.884
0.727,0.112,0.718,5.615,83.435,-48.584
0.768,0.112,0.719,5.249,89.844,-51.758
0.795,0.071,0.731,3.967,95.947,-50.598
0.857,0.086,0.692,1.526,98.999,-50.232
0.902,0.168,0.739,-2.319,100.464,-49.133
0.932,0.115,0.719,-1.770,95.459,-44.006
0.907,0.061,0.697,-3.052,88.745,-39.795
0.842,0.037,0.668,-7.385,82.520,-34.302
0.813,0.012,0.616,-13.794,79.590,-29.236
0.799,-0.004,0.579,-21.362,79.773,-26.428
0.763,0.007,0.537,-29.968,81.604,-27.161
0.745,0.016,0.488,-37.476,86.182,-31.921
0.746,0.029,0.456,-43.213,93.445,-37.476
0.773,0.050,0.441,-47.058,101.318,-41.138
0.821,0.057,0.414,-48.340,108.704,-42.480
0.868,0.093,0.426,-48.218,112.427,-39.429
0.916,0.115,0.418,-46.082,108.887,-31.128
0.898,0.161,0.408,-42.542,99.304,-21.606

1.038,0.856,0.816,-108.582,-55.725,120.178
1.079,0.835,0.920,-110.962,-53.467,109.741
1.182,0.792,1.057,-108.521,-45.837,90.698
1.320,0.747,1.169,-104.065,-38.391,78.430
1.584,0.814,1.328,-94.360,-37.292,73.547
1.740,0.712,1.444,-79.773,-47.058,83.374
1.830,0.777,1.653,-60.425,-60.913,102.722
1.841,0.835,1.668,-34.668,-84.534,126.221
1.677,0.656,1.674,-2.625,-107.605,144.775
1.460,0.523,1.708,25.940,-123.657,143.921
1.285,0.292,1.822,52.917,-134.888,128.113
1.172,0.072,1.973,72.876,-141.235,100.891
1.077,-0.133,2.038,80.200,-146.179,72.998
0.953,-0.261,2.066,75.439,-147.400,50.110
0.966,-0.226,2.144,65.369,-146.545,31.555
0.874,-0.282,2.095,56.458,-152.344,16.846
0.659,-0.391,2.004,45.837,-150.513,3.174
0.575,-0.428,1.903,32.837,-131.287,-13.489
0.645,-0.330,1.947,20.264,-101.196,-31.311
0.910,-0.439,2.017,14.832,-79.224,-47.852
1.059,-0.345,2.062,12.573,-74.585,-64.575
1.255,-0.445,2.103,13.855,-84.290,-63.293
1.302,-0.389,2.042,16.602,-107.300,-59.875
1.203,-0.425,1.920,19.043,-128.357,-50.964
1.113,-0.481,1.769,20.508,-138.367,-44.373
0.981,-0.585,1.648,21.912,-134.094,-41.870
0.856,-0.658,1.635,20.447,-115.051,-41.260
0.758,-0.760,1.572,17.273,-87.585,-35.400
0.634,-0.805,1.475,11.658,-55.176,-23.315
0.827,-0.887,1.460,6.836,-25.391,-6.104
0.786,-1.050,1.319,5.432,-9.155,9.094
0.822,-1.041,1.332,-2.502,-2.747,21.179
0.723,-0.996,1.256,-4.700,-17.944,34.424
0.599,-0.993,1.132,-4.456,-44.983,45.532
0.383,-0.960,0.957,-0.549,-73.486,51.147
0.135,-0.919,0.799,5.371,-92.896,49.744
-0.052,-0.903,0.690,13.672,-95.459,42.969
-0.104,-0.952,0.633,20.813,-78.613,33.020
-0.080,-0.920,0.651,23.987,-50.354,18.433
0.021,-0.856,0.724,24.170,-21.423,4.761
0.161,-0.807,0.789,23.987,-1.038,-3.479
0.302,-0.769,0.860,22.705,9.766,-7.751
0.380,-0.726,0.918,21.606,8.911,-7.446
0.388,-0.737,0.904,21.729,-2.747,-2.197
0.310,-0.749,0.842,22.400,-16.968,1.709
0.202,-0.716,0.774,22.461,-24.475,1.404
0.142,-0.641,0.748,24.719,-21.362,-2.136
0.134,-0.531,0.766,30.762,-11.414,-8.118
0.161,-0.422,0.826,40.283,0.427,-15.076
0.211,-0.337,0.910,52.490,11.414,-19.470
0.300,-0.291,1.007,63.721,19.287,-19.409
0.402,-0.260,1.162,73.608,22.339,-15.198
0.475,-0.270,1.226,81.848,17.456,-7.263
0.550,-0.397,1.318,85.022,7.385,3.296
0.573,-0.425,1.339,83.801,-6.348,9.460
0.527,-0.445,1.343,78.613,-17.029,11.719
0.492,-0.431,1.324,72.754,-21.667,12.146
0.429,-0.497,1.230,68.237,-20.142,11.353
0.402,-0.586,1.135,63.232,-10.132,6.531
0.347,-0.626,1.003,57.800,5.005,-3.967
0.300,-0.556,0.928,52.673,26.489,-17.639
0.328,-0.439,0.910,52.917,49.438,-30.029
0.407,-0.283,0.970,59.875,67.688,-34.729
0.514,-0.145,1.075,73.242,74.829,-29.114
0.602,-0.138,1.168,90.942,68.298,-14.160
0.653,-0.239,1.227,106.628,51.575,3.723
0.649,-0.385,1.238,116.394,31.616,19.043
0.603,-0.530,1.220,117.798,15.564,27.527
0.549,-0.660,1.174,110.352,8.301,27.588
0.490,-0.753,1.132,96.619,11.780,20.142
0.401,-0.711,1.126,78.430,24.841,9.644
0.349,-0.509,1.172,60.669,44.495,4.944
0.371,-0.292,1.236,51.331,64.453,11.292
0.525,-0.216,1.324,52.734,75.623,23.987
0.590,-0.206,1.333,60.791,68.787,33.997
0.568,-0.289,1.297,67.139,55.969,42.053
0.489,-0.402,1.243,70.557,42.664,42.847
0.448,-0.531,1.215,68.909,38.147,36.804
0.351,-0.580,1.102,62.744,40.955,25.757
0.313,-0.578,1.063,52.368,53.162,14.893
0.325,-0.527,1.055,43.030,70.313,3.296
0.333,-0.451,1.049,37.231,86.975,-5.920
0.364,-0.340,1.076,35.278,100.403,-11.292
0.433,-0.274,1.113,39.246,107.971,-12.085
0.496,-0.254,1.143,48.462,109.070,-12.268
0.532,-0.295,1.153,59.204,105.835,-14.038
0.538,-0.375,1.142,67.932,102.844,-17.456
0.547,-0.461,1.121,71.289,103.333,-20.081
0.573,-0.522,1.092,67.810,107.422,-20.813
0.601,-0.546,1.067,59.570,113.159,-20.508
0.491,-0.209,1.005,49.194,119.568,-19.043
0.772,-0.809,1.038,41.016,127.380,-5.859
0.732,-0.555,1.017,26.062,126.465,-16.418
0.774,-0.456,1.027,12.573,122.070,-11.658
0.802,-0.576,1.050,-0.854,111.816,-6.592
0.709,-0.411,0.918,-14.221,99.915,-5.615
0.699,-0.436,0.985,-24.597,93.445,-3.357
0.601,-0.352,0.907,-31.921,88.013,-5.188
0.538,-0.242,0.842,-33.875,91.309,-3.967
0.549,-0.208,0.818,-33.508,97.046,-4.822
0.559,-0.199,0.802,-31.433,103.638,-5.737
0.558,-0.155,0.792,-29.724,110.107,-5.737
0.583,-0.224,0.695,-28.198,114.319,-5.371
0.570,-0.262,0.644,-31.799,119.385,-10.376
0.647,-0.125,0.761,-37.476,126.160,-13.733
0.634,-0.211,0.619,-39.917,124.695,-10.498
0.595,-0.110,0.629,-48.523,126.526,-14.099
0.588,-0.104,0.529,-58.899,128.906,-13.611
0.564,-0.067,0.500,-68.726,130.493,-14.954
0.582,-0.024,0.474,-76.904,133.118,-15.808
0.645,0.036,0.435,-82.458,130.981,-16.663
0.746,0.077,0.458,-85.693,123.901,-16.907
0.766,0.114,0.448,-85.510,111.694,-18.127
0.715,0.134,0.418,-82.764,96.985,-19.165
0.695,0.124,0.400,-79.712,84.595,-15.869
0.654,0.128,0.378,-76.904,75.195,-8.484
0.553,0.099,0.324,-73.547,69.214,-1.099
0.505,0.239,0.287,-70.007,67.139,5.554
0.470,0.117,0.307,-62.500,68.848,21.240

0.622,2.067,0.238,-90.027,-40.710,38.635
0.774,2.223,0.221,-92.590,-35.950,44.617
0.951,2.236,0.224,-83.069,-38.513,47.913
1.123,2.116,0.280,-64.148,-49.805,48.889
1.291,2.093,0.431,-44.922,-68.848,52.734
1.425,1.936,0.632,-22.583,-93.628,71.045
1.495,1.659,0.770,8.179,-127.441,97.168
1.458,1.243,0.955,36.682,-162.415,124.695
1.415,1.005,1.197,57.861,-190.125,145.325
1.303,0.564,1.391,85.022,-210.388,158.142
0.955,0.323,1.585,107.422,-211.975,157.227
0.796,-0.028,1.889,134.888,-184.265,147.766
0.946,-0.316,2.267,163.330,-153.442,112.427
1.227,-0.733,2.532,191.528,-134.033,59.387
1.545,-0.972,2.699,204.773,-125.610,-3.113
1.593,-1.036,2.598,198.608,-129.333,-53.955
1.632,-0.908,2.447,182.922,-128.235,-85.449
1.631,-0.923,2.328,170.837,-123.108,-94.299
1.621,-0.907,2.196,163.452,-120.361,-87.769
1.452,-1.029,2.079,160.522,-125.427,-73.364
1.198,-1.203,1.945,156.677,-132.019,-59.875
1.097,-1.777,1.733,144.653,-138.916,-52.551
0.568,-1.502,1.723,118.530,-141.907,-67.566
0.443,-1.495,1.475,111.755,-136.719,-64.819
0.436,-1.791,1.342,112.183,-117.920,-60.852
0.335,-2.226,1.134,107.117,-99.121,-82.886
0.233,-2.152,0.991,86.243,-73.975,-105.103
0.081,-2.170,0.895,62.439,-42.908,-88.196
0.030,-2.181,0.783,37.415,-13.733,-45.959
0.193,-2.219,0.695,10.620,7.263,12.146
0.393,-2.144,0.703,-18.372,12.085,69.397
0.463,-2.094,0.661,-44.434,-2.441,101.196
0.292,-1.695,0.691,-66.589,-30.762,100.830
0.204,-1.437,0.573,-72.815,-66.528,95.581
-0.086,-1.106,0.481,-66.223,-95.581,80.322
-0.238,-1.045,0.330,-48.035,-108.337,64.026
-0.247,-1.084,0.295,-26.428,-99.976,38.330
-0.265,-1.006,0.457,-11.169,-72.327,11.353
-0.266,-1.128,0.550,-0.122,-40.527,3.418
-0.132,-1.182,0.706,-1.343,-9.399,3.662
0.035,-1.184,0.782,-13.062,14.587,10.437
0.252,-1.200,0.819,-30.029,28.564,17.944
0.229,-1.088,0.894,-49.438,27.344,18.311
0.269,-0.967,0.756,-60.242,5.737,18.677
0.242,-0.863,0.633,-61.768,-14.404,17.090
0.190,-0.750,0.552,-52.979,-29.419,11.780
0.163,-0.645,0.529,-35.400,-38.452,5.310
0.143,-0.595,0.527,-11.841,-39.490,0.732
0.148,-0.568,0.571,13.062,-30.212,0.549
0.200,-0.609,0.681,35.217,-14.221,6.470
0.245,-0.717,0.778,52.673,4.395,15.686
0.304,-0.816,0.890,61.707,22.339,25.452
0.386,-0.874,1.035,62.317,35.400,32.532
0.468,-0.859,1.177,58.411,36.072,35.950
0.508,-0.809,1.271,55.237,21.545,36.377
0.494,-0.793,1.270,54.016,-1.709,36.560
0.382,-0.908,1.188,53.223,-23.926,34.424
0.216,-0.888,1.104,48.767,-33.875,22.583
0.118,-0.868,0.997,45.532,-26.794,10.803
0.077,-0.892,0.932,45.593,-3.967,-0.793
0.098,-0.871,0.915,45.959,28.564,-13.550
0.199,-0.824,0.953,47.058,63.599,-23.743
0.388,-0.786,1.041,49.988,91.614,-28.198
0.585,-0.763,1.159,53.284,106.750,-23.682
0.725,-0.714,1.228,55.908,106.628,-12.817
0.805,-0.661,1.287,59.143,94.543,0.427
0.827,-0.649,1.315,63.721,74.219,14.038
0.798,-0.699,1.323,67.871,50.720,26.550
0.713,-0.733,1.316,68.542,30.212,33.997
0.597,-0.754,1.297,65.735,17.639,36.011
0.486,-0.784,1.274,60.486,15.320,33.875
0.401,-0.745,1.240,52.368,23.621,29.297
0.396,-0.640,1.248,45.105,40.955,24.841
0.462,-0.547,1.294,41.626,61.523,21.729
0.521,-0.477,1.352,42.175,79.163,18.250
0.550,-0.422,1.393,44.739,92.957,13.611
0.575,-0.412,1.411,48.706,104.187,8.362
0.593,-0.452,1.403,52.307,112.915,1.526
0.583,-0.499,1.385,53.223,120.605,-7.935
0.588,-0.519,1.366,51.086,128.967,-20.874
0.413,-0.412,1.188,46.631,135.559,-34.119
0.637,-0.637,1.418,39.551,150.635,-38.086
0.762,-0.732,1.481,26.489,156.555,-48.584
0.825,-0.695,1.529,5.859,155.518,-49.744
0.876,-0.668,1.475,-17.578,144.897,-48.462
0.862,-0.553,1.448,-38.940,131.165,-50.415
0.856,-0.504,1.423,-53.772,115.417,-55.664
0.779,-0.388,1.311,-64.148,100.220,-66.711
0.648,-0.325,1.173,-69.946,92.834,-73.730
0.640,-0.254,1.258,-71.594,97.717,-81.055
0.638,-0.322,1.059,-68.787,106.140,-91.064
0.638,-0.265,1.070,-71.411,119.995,-103.882
0.783,-0.240,1.006,-75.745,127.869,-102.478
0.771,-0.139,1.011,-82.275,137.268,-94.910
0.814,-0.119,0.940,-87.341,139.587,-80.994
0.864,-0.104,0.877,-91.858,135.803,-68.481
0.863,0.025,0.865,-94.666,127.747,-62.317
0.819,0.101,0.776,-93.445,113.647,-54.626
0.788,0.137,0.733,-90.210,97.778,-43.030
0.753,0.095,0.718,-86.548,80.505,-31.982
0.690,0.128,0.558,-84.595,58.472,-24.902
0.494,0.121,0.472,-80.811,48.889,-17.456
0.370,0.177,0.411,-77.637,51.331,-8.240
0.424,0.268,0.425,-74.219,57.556,-4.089
0.264,0.120,0.281,-67.749,66.467,2.808
0.184,0.115,0.318,-67.505,80.688,0.549
0.304,0.171,0.245,-71.472,94.116,4.578
0.324,0.160,0.237,-67.261,100.830,12.024
0.341,-0.077,0.293,-73.547,106.384,16.296
0.364,0.109,0.253,-79.651,99.976,6.775
0.441,0.216,0.260,-83.252,88.989,1.099
0.352,0.080,0.207,-80.994,77.087,4.883
0.298,0.141,0.186,-84.167,65.430,-1.343
0.282,0.142,0.179,-82.520,63.721,-0.488
0.298,0.168,0.165,-79.712,67.749,-2.136
0.362,0.298,0.136,-75.317,74.768,-1.526
0.240,0.100,0.182,-64.453,83.496,4.700
0.358,0.204,0.160,-58.167,86.914,-1.160
0.433,0.238,0.241,-52.185,96.375,-3.418

0.437,1.775,0.584,-56.458,-54.504,62.561
0.577,1.753,0.777,-58.716,-54.749,62.073
0.669,1.615,0.767,-64.209,-56.335,59.570
0.850,1.512,0.957,-75.500,-53.101,55.542
1.005,1.554,1.086,-92.773,-56.274,48.279
1.132,1.596,1.167,-107.422,-62.134,42.969
1.288,1.677,1.275,-117.737,-64.392,44.373
1.437,1.688,1.400,-119.751,-66.345,56.458
1.608,1.589,1.543,-114.319,-73.364,77.515
1.640,1.391,1.637,-104.919,-91.492,101.318
1.572,1.143,1.862,-95.032,-110.901,123.047
1.605,0.959,2.083,-88.440,-123.596,143.677
1.616,0.712,2.285,-79.285,-137.878,159.485
1.386,0.355,2.406,-68.787,-156.433,159.851
1.217,0.159,2.465,-62.500,-165.405,141.907
1.172,-0.116,2.497,-56.763,-163.757,114.258
1.137,-0.326,2.524,-52.673,-154.907,76.050
1.156,-0.415,2.501,-53.589,-138.489,35.034
1.161,-0.455,2.383,-54.626,-119.812,-0.610
1.154,-0.452,2.209,-50.537,-100.037,-32.043
1.151,-0.423,2.087,-36.255,-79.407,-59.814
1.219,-0.477,2.095,-12.085,-59.875,-78.979
1.278,-0.561,2.065,17.578,-48.706,-89.844
1.268,-0.725,2.053,49.316,-46.631,-91.797
1.178,-1.028,1.972,78.308,-50.903,-91.248
1.099,-1.391,1.897,96.863,-54.626,-92.346
0.975,-1.670,1.742,100.464,-55.725,-99.060
0.789,-1.851,1.490,90.149,-49.988,-111.755
0.623,-1.793,1.300,71.838,-32.593,-126.343
0.599,-1.604,1.268,56.091,-7.812,-136.719
0.594,-1.644,1.075,52.063,12.573,-137.024
0.445,-1.344,0.942,50.171,32.227,-130.127
0.417,-1.201,1.035,47.913,52.856,-98.083
0.579,-1.103,0.944,59.692,54.138,-57.190
0.529,-1.071,0.920,75.500,38.208,-21.790
0.455,-0.791,0.978,91.370,9.155,14.771
0.471,-1.313,0.683,114.685,-31.494,54.443
0.276,-1.271,0.698,111.755,-55.359,59.753
0.143,-0.956,0.759,109.985,-72.876,64.636
0.121,-1.223,0.656,117.920,-85.632,69.336
0.167,-1.481,0.599,117.981,-83.740,58.594
0.069,-1.151,0.766,103.455,-75.684,30.396
-0.134,-0.940,0.871,89.661,-63.782,29.114
0.008,-1.032,0.942,84.290,-47.424,50.537
0.119,-1.107,0.999,74.951,-25.818,59.265
0.237,-1.032,1.075,57.800,-2.869,58.777
0.407,-1.001,1.232,38.635,13.306,55.176
0.487,-0.911,1.253,20.508,12.390,42.419
0.535,-0.797,1.255,6.042,4.700,34.119
0.479,-0.726,1.216,-3.479,-3.235,28.870
0.405,-0.662,1.183,-6.775,-5.310,24.231
0.369,-0.628,1.138,-4.456,-0.793,20.203
0.324,-0.641,1.078,1.099,9.888,16.968
0.310,-0.626,1.101,5.493,28.137,14.099
0.401,-0.615,1.125,10.193,47.729,13.428
0.536,-0.547,1.166,14.221,61.890,15.137
0.630,-0.484,1.185,18.372,67.078,18.372
0.651,-0.417,1.248,25.452,64.758,19.043
0.543,-0.439,1.130,36.865,60.059,18.616
0.592,-0.507,1.192,44.861,65.613,13.672
0.540,-0.426,1.123,54.138,68.665,0.732
0.555,-0.460,1.137,62.805,78.552,-3.601
0.629,-0.482,1.145,72.021,92.590,-10.376
0.586,-0.448,1.047,80.872,105.286,-19.043
0.601,-0.488,1.022,87.646,124.146,-24.536
0.741,-0.488,1.069,93.140,147.034,-31.677
0.825,-0.459,1.061,98.206,164.673,-36.926
0.967,-0.436,1.092,99.792,177.551,-34.485
1.135,-0.451,1.159,99.365,180.908,-31.921
1.163,-0.427,1.134,97.473,172.363,-33.020
1.158,-0.411,1.125,91.309,160.950,-33.447
1.196,-0.456,1.119,82.947,147.583,-32.959
1.219,-0.424,1.110,73.730,130.127,-36.255
1.181,-0.403,1.079,64.575,109.985,-41.870
1.115,-0.354,1.069,53.284,90.942,-47.119
1.022,-0.310,1.033,44.922,74.951,-52.490
0.923,-0.242,1.008,38.513,65.002,-58.411
0.819,-0.185,0.993,35.400,61.768,-64.026
0.748,-0.203,0.971,36.255,65.369,-69.214
0.793,-0.215,1.063,35.461,74.585,-73.669
0.806,-0.268,1.061,31.189,84.412,-78.430
0.847,-0.253,1.063,19.287,91.980,-80.200
0.915,-0.312,1.050,2.380,95.886,-79.590
0.947,-0.297,0.998,-19.104,94.849,-85.388
0.942,-0.213,0.959,-44.189,91.309,-92.896
0.947,-0.174,0.903,-67.017,88.257,-98.267
0.979,-0.143,0.881,-86.243,87.891,-101.807
0.978,-0.097,0.874,-101.563,89.478,-101.990
0.974,-0.049,0.699,-112.915,90.576,-95.459
0.993,-0.016,0.754,-122.192,95.764,-88.501
0.985,0.105,0.688,-125.000,100.525,-90.027
1.071,0.227,0.630,-124.268,98.022,-82.031
0.996,0.264,0.612,-119.751,91.797,-75.806
0.914,0.405,0.552,-111.572,81.421,-60.181
0.860,0.094,0.412,-99.487,71.350,-37.842
0.938,0.157,0.441,-92.896,66.956,-30.090
0.846,0.333,0.387,-90.759,54.321,-30.640
0.768,0.069,0.338,-84.839,38.452,-17.090
0.731,0.129,0.374,-86.487,26.123,-9.888
0.596,0.112,0.261,-88.074,19.165,-2.808
0.522,0.212,0.253,-91.614,20.203,2.441
0.553,0.144,0.186,-92.163,24.780,10.376
0.558,0.256,0.146,-91.614,26.733,10.742
0.508,0.221,0.086,-88.806,26.794,16.724
0.490,0.223,0.033,-85.388,25.085,19.470
0.410,0.158,-0.017,-78.369,29.175,22.705
0.385,0.251,-0.061,-72.021,35.522,19.226
0.259,0.424,-0.113,-62.500,44.250,15.991
0.224,0.262,-0.112,-46.143,62.134,18.311
0.296,0.206,-0.014,-35.034,79.346,16.968
0.304,0.160,-0.097,-27.527,94.421,15.503
0.412,0.319,-0.031,-22.339,112.427,13.550
0.543,0.134,0.089,-14.771,119.263,25.024
0.834,0.182,0.095,-8.728,104.797,30.823
0.908,0.149,0.216,-7.568,83.984,45.166
0.875,0.162,0.137,-6.226,49.316,56.763
0.803,0.126,0.167,-1.221,16.968,62.866
0.731,0.050,0.103,2.869,-11.414,61.584
0.667,0.090,0.087,5.554,-26.917,54.443

0.584,1.490,0.854,-67.566,-25.330,35.645
0.771,1.403,0.983,-60.608,-35.461,28.381
0.884,1.272,1.058,-66.467,-49.927,24.170
0.917,1.189,1.097,-85.632,-62.500,23.743
0.947,1.199,1.099,-112.183,-66.406,26.733
0.970,1.240,1.067,-135.193,-61.218,27.344
1.039,1.244,1.047,-146.179,-47.241,20.874
1.161,1.241,1.095,-142.761,-31.555,10.742
1.332,1.238,1.233,-124.878,-22.461,5.066
1.529,1.193,1.436,-94.055,-25.879,10.193
1.684,0.974,1.655,-55.115,-45.959,24.231
1.671,0.546,1.879,-18.250,-73.669,43.274
1.646,0.126,2.032,2.625,-95.032,68.481
1.565,-0.215,2.113,7.568,-112.427,90.271
1.390,-0.441,2.159,3.113,-124.756,93.750
1.221,-0.583,2.153,-5.127,-128.357,79.529
1.072,-0.677,2.100,-14.160,-124.756,55.908
0.960,-0.681,2.086,-20.325,-117.004,26.855
0.855,-0.671,2.066,-20.569,-102.356,-0.732
0.927,-0.656,2.061,-18.066,-83.740,-20.020
1.062,-0.621,2.029,-13.794,-72.998,-31.433
1.200,-0.619,1.991,-4.761,-77.698,-39.124
1.161,-0.717,1.841,9.033,-94.727,-50.171
1.050,-0.741,1.704,23.315,-108.398,-64.392
0.955,-0.777,1.547,40.527,-110.962,-80.017
0.770,-0.788,1.384,64.087,-100.098,-98.694
0.734,-0.832,1.507,90.515,-75.684,-115.479
0.786,-0.999,1.406,121.704,-59.875,-128.296
0.760,-1.248,1.322,148.926,-51.514,-136.536
0.634,-1.456,1.242,163.879,-44.373,-136.047
0.541,-1.690,1.142,170.349,-42.236,-118.896
0.531,-2.027,1.065,167.725,-45.532,-90.698
0.400,-2.143,0.893,148.926,-54.260,-60.974
0.252,-2.083,0.746,118.774,-62.439,-20.569
0.170,-1.819,0.589,88.318,-68.909,23.071
0.088,-1.630,0.442,68.176,-76.172,63.049
0.057,-1.565,0.345,58.105,-79.895,89.905
0.122,-1.291,0.462,55.847,-78.430,100.769
0.085,-1.544,0.243,62.378,-78.491,98.999
0.044,-1.209,0.487,51.575,-67.444,63.660
-0.046,-1.072,0.704,50.049,-59.204,48.828
0.042,-1.364,0.745,50.232,-53.833,41.077
0.130,-1.259,0.972,33.264,-41.199,28.198
0.203,-1.104,1.117,9.827,-28.992,23.865
0.281,-0.989,1.141,-9.766,-24.353,22.461
0.271,-0.953,1.073,-27.100,-19.409,19.043
0.174,-0.756,1.006,-41.870,-9.033,12.390
0.149,-0.609,0.982,-46.753,9.277,12.756
0.161,-0.454,1.010,-40.833,30.334,15.015
0.271,-0.399,1.058,-26.855,48.279,22.156
0.359,-0.423,1.109,-9.644,59.143,31.067
0.472,-0.479,1.176,7.446,60.730,36.682
0.549,-0.545,1.219,21.301,53.101,39.246
0.602,-0.592,1.266,29.907,41.077,42.297
0.618,-0.591,1.304,35.034,26.184,46.204
0.601,-0.577,1.318,37.842,11.658,52.307
0.555,-0.554,1.316,39.185,1.099,59.570
0.476,-0.528,1.310,40.039,-3.296,67.810
0.409,-0.515,1.288,41.321,-0.671,74.585
0.332,-0.527,1.241,42.114,10.681,76.660
0.328,-0.462,1.291,41.809,33.936,72.388
0.395,-0.495,1.290,42.480,59.204,64.575
0.422,-0.531,1.264,42.175,78.918,50.110
0.486,-0.487,1.292,38.757,94.971,34.546
0.528,-0.441,1.279,35.156,103.333,19.653
0.536,-0.399,1.254,32.593,105.042,8.301
0.618,-0.310,1.272,30.823,104.980,2.197
0.552,-0.290,1.247,30.884,103.333,-0.061
0.600,-0.309,1.236,34.424,101.440,-0.854
0.684,-0.225,1.213,38.696,99.365,-1.587
0.551,-0.368,1.194,41.260,100.952,-3.601
0.611,-0.032,1.278,39.734,98.511,-2.930
0.693,-0.416,1.086,41.138,93.384,4.578
0.593,-0.258,1.151,32.715,98.755,-3.540
0.582,-0.200,1.166,31.006,105.835,-9.705
0.579,-0.183,1.115,30.029,112.671,-13.916
0.654,-0.241,1.182,26.245,123.352,-16.174
0.704,-0.264,1.144,23.010,126.404,-22.888
0.714,-0.276,1.098,15.198,124.756,-27.832
0.680,-0.281,1.045,3.235,122.009,-31.006
0.726,-0.312,1.009,-9.644,117.554,-34.607
0.820,-0.270,1.003,-22.278,111.267,-41.626
0.805,-0.187,0.995,-33.630,101.196,-48.279
0.825,-0.103,0.969,-43.945,87.952,-48.950
0.771,-0.059,0.856,-49.988,75.623,-45.654
0.727,0.018,0.865,-54.504,70.007,-40.161
0.687,0.044,0.777,-53.711,67.322,-34.668
0.630,0.063,0.738,-52.002,68.848,-31.494
0.573,0.059,0.663,-50.171,73.486,-30.396
0.586,0.102,0.697,-49.133,81.482,-30.457
0.608,0.082,0.683,-46.936,87.585,-28.076
0.655,0.120,0.695,-46.570,89.783,-24.292
0.694,0.131,0.697,-46.326,85.266,-18.188
0.692,0.112,0.681,-46.936,72.998,-12.085
0.645,0.094,0.646,-49.011,57.678,-7.812
0.603,0.087,0.613,-52.368,43.396,-4.395
0.498,0.136,0.564,-56.580,32.654,-0.977
0.332,0.006,0.439,-59.875,28.320,3.662
0.293,0.030,0.469,-64.331,34.058,-2.014
0.195,0.198,0.336,-67.993,39.429,-7.996
0.143,-0.106,0.289,-67.505,49.377,-5.249
0.191,0.014,0.331,-69.763,65.491,-18.677
0.199,0.118,0.347,-71.533,86.914,-29.480
0.251,0.097,0.286,-68.787,106.262,-33.508
0.474,0.098,0.419,-67.993,126.648,-37.354
0.700,0.096,0.495,-67.017,135.315,-37.415
0.776,0.216,0.484,-67.810,131.287,-35.889
0.869,0.125,0.566,-65.552,121.582,-25.879
0.973,0.047,0.509,-65.674,103.699,-20.935
0.837,0.134,0.270,-73.303,76.294,-20.813
0.732,0.125,0.493,-79.834,65.918,-12.756
0.691,0.054,0.337,-80.750,55.481,-2.991
0.609,0.042,0.275,-84.290,56.885,-2.686
0.460,0.122,0.173,-86.914,62.805,-4.333
0.394,0.056,0.089,-87.524,80.383,-5.188
0.340,0.054,0.056,-89.417,103.271,-13.428
0.417,0.065,0.010,-90.332,124.817,-20.264
0.559,0.106,0.050,-89.905,138.489,-25.391
0.680,0.134,0.076,-87.097,140.076,-28.137

0.780,0.901,1.057,-90.454,-8.728,14.587
0.845,0.926,1.114,-95.581,-26.672,18.860
0.880,0.902,1.164,-98.206,-45.593,22.827
0.921,0.846,1.244,-98.694,-62.622,26.489
0.810,0.627,1.200,-100.281,-77.026,33.875
0.802,0.549,1.265,-103.638,-79.285,36.316
0.784,0.538,1.409,-105.713,-74.158,38.513
0.948,0.326,1.516,-100.830,-70.557,49.805
1.012,0.128,1.641,-97.534,-69.275,56.641
1.050,0.078,1.811,-96.191,-70.557,58.533
0.994,-0.069,1.966,-92.590,-77.271,63.416
0.870,-0.236,2.178,-86.548,-80.139,67.993
0.765,-0.497,2.309,-82.153,-71.106,74.463
0.760,-0.616,2.526,-81.116,-48.828,78.247
0.925,-0.785,2.824,-89.783,-22.827,88.623
1.210,-0.925,2.888,-101.563,-9.094,96.985
1.316,-0.901,2.842,-121.399,-9.888,96.313
1.322,-0.900,2.637,-144.226,-19.958,89.722
1.191,-0.686,2.440,-163.574,-33.264,70.984
1.100,-0.490,2.194,-173.767,-44.556,52.551
0.966,-0.353,1.950,-169.800,-51.331,32.593
0.850,-0.232,1.821,-154.541,-46.814,10.498
0.826,-0.250,1.745,-129.883,-37.354,-5.432
0.838,-0.336,1.712,-102.600,-28.992,-17.578
0.828,-0.437,1.704,-76.965,-23.315,-27.283
0.822,-0.605,1.702,-54.810,-20.447,-32.410
0.756,-0.797,1.599,-37.537,-20.691,-36.438
0.728,-0.854,1.588,-26.794,-20.447,-43.884
0.703,-0.942,1.431,-14.893,-25.391,-49.561
0.616,-0.997,1.277,-2.869,-31.616,-52.429
0.529,-0.994,1.140,9.521,-35.339,-52.734
0.449,-1.005,1.013,25.635,-37.048,-47.913
0.364,-1.093,0.910,43.335,-37.476,-36.682
0.365,-1.112,0.881,58.411,-37.537,-22.522
0.295,-1.126,0.747,72.632,-42.664,-5.737
0.193,-1.070,0.705,82.947,-45.471,13.367
0.175,-1.099,0.638,94.666,-47.546,33.386
0.105,-1.076,0.608,106.628,-47.913,45.105
0.109,-1.146,0.660,115.723,-45.166,54.504
0.139,-1.183,0.714,120.361,-43.213,55.237
0.191,-1.267,0.782,122.009,-45.715,57.495
0.177,-1.264,0.793,115.601,-50.659,51.880
0.199,-0.990,1.044,95.947,-46.631,43.701
0.187,-1.057,1.077,84.900,-46.936,49.194
0.186,-0.866,1.211,66.833,-43.213,52.368
0.225,-0.745,1.244,51.392,-38.818,64.453
0.195,-0.750,1.233,40.405,-34.363,70.435
0.154,-0.698,1.173,30.334,-29.480,64.697
0.119,-0.676,1.114,22.766,-19.470,52.856
0.149,-0.596,1.084,18.372,-7.141,37.109
0.178,-0.507,1.066,18.433,4.150,24.292
0.256,-0.437,1.047,22.583,11.780,17.822
0.303,-0.367,1.046,31.189,15.076,15.930
0.349,-0.333,1.077,43.030,14.771,17.456
0.438,-0.374,1.207,55.786,10.498,21.118
0.306,-0.395,1.267,65.857,2.686,24.597
0.347,-0.448,1.397,68.481,-1.953,34.363
0.348,-0.623,1.467,65.979,-6.104,39.185
0.323,-0.601,1.512,53.223,-5.005,32.532
0.279,-0.610,1.475,37.659,-1.648,22.949
0.214,-0.582,1.382,22.461,8.362,8.240
0.242,-0.494,1.316,10.559,27.039,-8.057
0.384,-0.344,1.361,4.700,50.171,-21.912
0.455,-0.267,1.244,6.409,63.049,-33.813
0.587,-0.186,1.270,9.521,72.510,-39.673
0.579,-0.135,1.188,16.541,71.594,-40.527
0.636,-0.035,1.258,23.437,69.885,-33.813
0.636,-0.016,1.249,33.081,60.913,-21.973
0.590,-0.071,1.272,42.114,50.476,-7.385
0.502,-0.104,1.255,46.997,42.053,5.127
0.420,-0.164,1.240,49.744,39.246,16.968
0.360,-0.250,1.240,48.767,42.969,23.437
0.325,-0.302,1.225,44.250,51.147,23.254
0.214,-0.350,1.216,37.170,60.425,18.250
0.252,-0.171,1.106,28.198,68.298,8.789
0.251,-0.146,1.203,17.639,81.726,-3.296
0.298,-0.048,1.169,14.526,89.417,-16.357
0.325,0.013,1.173,11.414,92.102,-26.550
0.361,0.024,1.182,8.972,91.431,-34.485
0.416,0.054,1.183,7.935,86.121,-38.513
0.456,0.050,1.172,5.188,78.247,-37.903
0.433,0.032,1.123,0.977,68.909,-36.804
0.405,-0.001,1.096,-3.967,66.895,-33.569
0.433,0.084,0.987,-7.202,69.214,-35.217
0.432,0.066,0.897,-10.986,63.538,-41.626
0.396,0.055,0.896,-18.433,61.157,-44.373
0.385,0.212,0.835,-23.560,61.890,-48.889
0.330,0.198,0.716,-24.719,67.993,-50.049
0.328,0.254,0.727,-25.085,80.505,-55.176
0.395,0.282,0.730,-22.217,90.454,-60.181
0.417,0.163,0.653,-18.555,97.961,-63.782
0.501,0.214,0.705,-22.583,106.506,-66.345
0.599,0.288,0.755,-25.696,107.483,-61.523
0.689,0.273,0.747,-25.330,98.816,-50.720
0.685,0.312,0.741,-24.841,84.473,-40.161
0.576,0.339,0.704,-23.010,72.144,-29.053
0.457,0.305,0.667,-18.677,67.871,-17.944
0.409,0.218,0.608,-14.099,72.388,-10.254
0.326,0.111,0.562,-12.512,83.862,-11.353
0.255,0.210,0.562,-13.916,100.220,-21.545
0.267,0.197,0.524,-11.963,116.516,-28.015
0.351,0.179,0.512,-8.423,130.432,-32.654
0.491,0.182,0.534,-5.188,138.000,-34.851
0.584,0.181,0.562,-1.709,133.545,-33.264
0.601,0.198,0.524,2.258,119.324,-27.466
0.673,0.143,0.613,6.836,102.234,-16.541
0.631,0.118,0.543,11.658,84.473,-6.592
0.554,0.043,0.512,14.954,73.730,3.052
0.510,0.048,0.485,16.541,70.801,10.498
0.490,0.041,0.449,20.203,75.134,15.442
0.460,-0.032,0.418,25.818,84.290,15.015
0.468,-0.046,0.421,29.480,97.778,10.803
0.533,-0.069,0.440,30.273,109.192,11.169
0.631,-0.104,0.463,28.870,114.380,15.869
0.725,-0.120,0.493,25.757,112.915,20.386
0.812,-0.146,0.524,22.705,105.286,22.949
0.859,-0.167,0.544,20.020,91.797,23.132
0.817,-0.198,0.533,16.724,75.256,21.729
0.811,-0.239,0.528,10.803,59.814,22.644

1.099,0.816,1.117,-20.691,-66.040,95.215
1.098,0.827,1.238,-12.817,-90.637,104.614
1.064,0.840,1.341,-5.615,-109.070,109.253
1.014,0.809,1.446,0.549,-117.432,109.253
0.928,0.723,1.538,4.517,-117.920,104.736
0.848,0.688,1.696,4.272,-111.267,97.046
0.775,0.579,1.826,0.977,-100.098,90.149
0.812,0.503,1.973,-8.301,-86.792,80.688
0.930,0.403,2.110,-19.653,-81.543,69.641
1.005,0.289,2.208,-34.973,-88.013,62.256
1.006,0.247,2.222,-55.786,-102.966,56.885
0.908,0.233,2.119,-75.500,-120.422,48.828
0.757,0.204,1.963,-89.233,-129.578,34.851
0.657,0.170,1.839,-96.680,-125.793,14.587
0.622,0.077,1.729,-96.802,-114.624,-10.620
0.616,-0.041,1.652,-92.102,-99.854,-41.016
0.657,-0.159,1.593,-85.327,-83.618,-73.914
0.705,-0.291,1.574,-77.515,-67.749,-104.675
0.813,-0.368,1.623,-71.228,-51.086,-129.578
1.010,-0.403,1.688,-65.979,-38.208,-141.296
1.126,-0.443,1.719,-60.852,-36.194,-136.719
1.165,-0.493,1.712,-55.908,-43.945,-121.704
1.125,-0.580,1.650,-51.086,-55.115,-100.159
1.015,-0.673,1.509,-46.082,-64.758,-78.796
0.917,-0.755,1.400,-39.734,-68.787,-63.049
0.691,-0.896,1.224,-29.846,-67.627,-56.274
0.498,-0.995,1.085,-20.447,-53.772,-54.443
0.343,-1.043,0.909,-9.277,-30.212,-55.481
0.281,-1.035,0.871,4.639,0.244,-62.622
0.246,-0.995,0.863,22.888,29.480,-73.608
0.291,-0.978,0.931,42.175,55.420,-78.918
0.461,-1.035,1.063,59.326,71.533,-74.585
0.724,-1.140,1.260,68.359,70.374,-59.021
0.916,-1.204,1.386,65.002,44.006,-35.217
0.928,-1.241,1.376,52.368,-2.197,-8.972
0.765,-1.255,1.256,34.363,-51.086,14.099
0.525,-1.202,1.076,14.709,-86.182,31.433
0.356,-0.879,1.263,0.916,-98.572,41.748
0.214,-1.144,0.592,0.366,-98.938,48.828
-0.002,-0.853,0.746,-11.047,-64.697,33.813
-0.015,-0.823,0.688,-8.911,-27.527,25.879
0.124,-0.628,0.772,1.831,7.507,9.705
0.280,-0.674,0.870,17.273,34.729,1.770
0.410,-0.691,1.019,28.931,45.471,-11.353
0.500,-0.766,1.057,33.875,43.152,-17.151
0.471,-0.763,1.143,29.297,41.016,-18.188
0.491,-0.672,1.218,20.203,41.626,-15.625
0.592,-0.579,1.247,12.146,41.138,-7.080
0.666,-0.461,1.260,4.944,35.828,4.211
0.691,-0.315,1.270,0.000,23.132,17.456
0.678,-0.232,1.259,-0.244,5.066,32.166
0.616,-0.169,1.229,3.235,-13.672,45.227
0.485,-0.119,1.206,9.521,-29.053,56.396
0.366,-0.139,1.178,18.250,-35.522,65.002
0.297,-0.216,1.176,27.100,-30.640,67.017
0.272,-0.281,1.186,33.264,-17.822,60.181
0.256,-0.338,1.185,36.316,-1.587,44.739
0.247,-0.369,1.185,35.522,18.799,23.926
0.268,-0.391,1.171,32.410,43.091,0.793
0.341,-0.365,1.168,26.733,69.946,-22.156
0.476,-0.306,1.182,19.897,93.689,-40.344
0.656,-0.193,1.217,14.221,107.056,-49.316
0.820,-0.102,1.270,10.925,106.384,-45.593
0.932,-0.007,1.306,11.169,91.003,-32.593
0.950,0.074,1.305,14.771,64.880,-12.817
0.874,0.064,1.256,21.057,35.522,9.521
0.727,-0.004,1.179,28.320,11.841,26.550
0.536,-0.084,1.097,34.668,0.854,33.325
0.366,-0.146,1.012,39.246,5.920,26.978
0.261,-0.161,0.953,42.480,26.306,8.545
0.260,-0.162,0.909,45.898,56.458,-16.174
0.332,-0.166,0.898,49.316,88.135,-42.664
0.466,-0.120,0.936,52.246,114.746,-65.369
0.647,-0.073,1.017,54.382,131.836,-77.576
0.849,-0.069,1.100,55.054,134.216,-77.148
0.996,-0.001,1.159,53.711,120.056,-70.313
1.039,0.080,1.170,52.795,93.140,-57.190
0.983,0.116,1.115,53.162,60.242,-41.504
0.861,0.134,1.017,56.152,31.982,-28.076
0.710,0.139,0.923,61.157,15.381,-18.433
0.579,0.146,0.833,67.993,11.597,-14.526
0.487,0.153,0.768,76.965,19.226,-16.663
0.430,0.134,0.731,87.341,35.400,-22.583
0.433,0.091,0.719,96.741,57.495,-28.992
0.485,0.049,0.753,103.394,80.872,-33.997
0.557,0.035,0.803,106.323,100.891,-37.598
0.645,0.015,0.846,106.934,115.662,-39.917
0.749,-0.017,0.883,104.614,123.291,-41.260
0.815,-0.043,0.915,99.548,123.169,-42.908
0.832,-0.047,0.918,90.942,117.737,-45.471
0.819,-0.046,0.905,80.811,110.535,-46.875
0.785,-0.029,0.878,69.824,103.882,-47.241
0.737,0.005,0.834,59.326,99.548,-46.814
0.708,0.037,0.787,51.514,97.961,-46.204
0.574,0.133,0.682,46.387,99.548,-43.640
0.682,0.001,0.705,44.006,106.812,-34.729
0.649,-0.078,0.651,42.358,109.314,-39.063
0.610,-0.038,0.623,34.973,113.464,-45.593
0.591,-0.077,0.620,28.015,115.967,-51.331
0.582,-0.104,0.612,21.790,119.568,-57.800
0.657,-0.173,0.606,15.625,123.535,-62.500
0.655,-0.202,0.604,6.104,126.953,-66.284
0.729,-0.235,0.614,-6.042,129.333,-65.552
0.761,-0.224,0.611,-19.409,130.371,-64.148
0.738,-0.159,0.597,-31.250,132.019,-59.082
0.751,-0.139,0.551,-37.598,134.766,-48.889
0.751,-0.198,0.465,-41.809,138.062,-41.443
0.733,-0.091,0.470,-45.654,141.296,-41.504
0.755,-0.068,0.450,-43.213,139.954,-34.973
0.777,-0.053,0.447,-37.292,134.216,-28.137
0.759,-0.102,0.396,-29.846,125.854,-15.991
0.836,-0.115,0.334,-23.499,116.882,-3.662
0.786,-0.173,0.390,-21.240,108.398,4.456
0.807,-0.160,0.359,-19.897,89.661,12.207
0.784,-0.267,0.316,-20.569,69.336,16.235
0.725,-0.218,0.293,-26.367,50.903,12.085
0.684,-0.190,0.295,-32.532,36.316,12.695
0.692,-0.182,0.258,-37.354,23.193,15.808
0.684,-0.157,0.192,-43.030,13.611,17.761

0.985,1.205,0.651,-134.766,-18.677,14.771
1.135,1.292,0.705,-123.108,-28.015,13.855
1.165,1.228,0.697,-105.286,-32.898,20.142
1.277,1.222,0.833,-88.684,-30.762,30.457
1.415,1.150,0.927,-75.745,-29.236,51.880
1.531,0.959,0.997,-63.354,-33.936,77.515
1.616,0.902,1.131,-56.885,-44.250,96.619
1.636,0.685,1.219,-50.354,-62.866,111.450
1.569,0.589,1.255,-44.739,-87.341,116.577
1.507,0.595,1.317,-38.635,-110.291,114.929
1.397,0.543,1.377,-26.550,-129.883,110.229
1.217,0.328,1.519,-9.338,-142.456,101.563
0.933,0.098,1.619,2.380,-136.108,95.032
0.806,-0.076,1.674,3.052,-107.666,97.107
0.808,-0.259,1.751,-0.854,-68.909,99.487
0.868,-0.342,1.820,-6.958,-33.081,95.093
0.929,-0.386,1.775,-11.292,-11.414,86.914
0.992,-0.472,1.694,-10.437,-3.296,78.735
1.053,-0.597,1.619,-4.639,-3.601,64.453
1.133,-0.746,1.613,3.479,-9.521,43.030
1.189,-0.893,1.615,7.874,-24.292,20.020
1.199,-0.968,1.596,5.859,-45.471,-1.465
1.163,-0.969,1.593,0.916,-64.148,-19.104
1.083,-0.941,1.627,-3.418,-74.951,-28.748
1.025,-0.929,1.660,-4.578,-75.500,-28.687
1.017,-0.937,1.663,-1.892,-68.054,-21.118
1.002,-0.934,1.665,2.258,-57.800,-13.489
0.998,-0.858,1.769,8.118,-48.523,-7.568
1.094,-0.962,1.779,20.203,-48.523,0.244
0.941,-1.053,1.639,30.457,-55.115,2.380
0.866,-1.090,1.610,34.119,-55.481,2.869
0.771,-1.131,1.454,39.673,-52.856,-1.953
0.675,-1.079,1.345,41.199,-42.053,-10.315
0.604,-0.937,1.306,43.213,-28.320,-13.855
0.677,-0.939,1.196,54.382,-20.264,-11.414
0.584,-0.895,1.093,69.580,-18.188,-13.672
0.484,-0.690,1.262,84.290,-16.418,-8.972
0.549,-1.396,0.921,104.004,-24.658,6.165
0.410,-1.198,0.872,97.717,-18.433,-0.488
0.204,-1.429,0.877,91.125,0.671,7.141
0.227,-1.256,0.776,80.933,14.587,-3.784
0.254,-1.178,0.848,74.341,38.696,0.549
0.402,-1.229,0.813,71.228,49.072,3.845
0.528,-1.128,0.850,64.758,51.086,-0.916
0.662,-1.067,0.916,56.519,46.875,3.357
0.744,-1.027,0.938,47.424,33.447,8.484
0.783,-0.909,1.015,35.583,21.301,18.005
0.820,-0.822,1.062,25.879,9.033,31.860
0.804,-0.732,1.125,17.944,0.427,45.105
0.766,-0.740,1.161,12.146,-5.066,59.204
0.723,-0.763,1.175,5.371,-6.165,70.496
0.686,-0.768,1.191,-3.174,-3.052,78.308
0.647,-0.767,1.188,-11.536,2.258,80.078
0.617,-0.761,1.186,-20.142,9.521,76.843
0.615,-0.737,1.188,-29.846,16.907,70.496
0.575,-0.659,1.160,-40.039,25.085,62.683
0.596,-0.530,1.181,-49.072,37.354,56.030
0.656,-0.504,1.197,-54.565,50.354,51.331
0.705,-0.387,1.226,-60.120,60.913,46.021
0.742,-0.235,1.204,-64.026,68.848,42.053
0.796,-0.146,1.256,-63.293,72.815,37.048
0.827,-0.099,1.250,-59.875,71.777,33.936
0.817,-0.100,1.242,-57.617,66.956,31.555
0.785,-0.065,1.214,-58.472,62.927,29.236
0.719,-0.011,1.156,-59.998,61.768,27.039
0.676,0.010,1.098,-60.425,65.125,23.315
0.673,0.086,1.065,-59.082,68.970,14.832
0.687,0.139,1.044,-55.298,69.885,5.066
0.696,0.142,1.013,-49.438,67.078,-4.944
0.637,0.217,0.967,-44.006,63.049,-17.151
0.608,0.156,0.971,-39.917,62.500,-27.893
0.606,0.196,0.925,-36.133,65.369,-38.635
0.591,0.275,0.951,-32.959,71.838,-49.500
0.636,0.322,0.927,-29.907,76.904,-56.335
0.655,0.346,0.901,-26.733,79.895,-59.265
0.678,0.412,0.905,-23.621,80.750,-61.646
0.669,0.400,0.873,-17.517,77.454,-61.646
0.639,0.397,0.846,-11.047,71.838,-62.317
0.607,0.381,0.819,-5.493,67.566,-63.110
0.591,0.344,0.787,-2.258,65.430,-62.622
0.562,0.328,0.740,-1.343,65.063,-63.416
0.555,0.308,0.698,-1.587,65.552,-66.467
0.582,0.460,0.796,-4.700,66.895,-71.533
0.594,0.366,0.665,-2.441,64.026,-72.510
0.606,0.442,0.692,-1.221,57.617,-71.899
0.602,0.220,0.546,0.061,49.316,-67.383
0.472,0.165,0.531,-11.414,48.035,-72.266
0.418,0.516,0.681,-25.452,55.542,-77.332
0.448,0.395,0.577,-15.991,55.054,-68.359
0.428,0.460,0.584,-14.404,57.556,-62.622
0.387,0.474,0.600,-12.390,59.692,-58.533
0.462,0.608,0.755,-7.568,58.350,-51.453
0.529,0.374,0.513,1.770,45.044,-37.903
0.337,0.614,0.686,0.793,34.363,-33.813
0.319,0.347,0.555,3.235,26.184,-18.188
0.346,0.318,0.547,2.930,27.100,-15.442
0.334,0.307,0.569,-0.549,35.278,-15.015
0.407,0.303,0.573,-6.531,41.443,-16.663
0.505,0.229,0.604,-13.489,42.664,-19.043
0.585,0.195,0.594,-24.780,38.879,-21.851
0.616,0.137,0.579,-42.236,31.921,-21.057
0.635,0.137,0.527,-63.721,22.034,-18.860
0.649,0.191,0.489,-85.144,12.451,-16.724
0.707,0.308,0.478,-102.295,3.906,-15.625
0.628,0.298,0.362,-113.220,-0.488,-12.329
0.637,0.381,0.248,-118.652,0.427,-11.780
0.588,0.390,0.163,-116.455,3.967,-10.071
0.608,0.415,0.096,-110.718,13.184,-5.859
0.641,0.459,0.074,-102.661,22.217,-0.916
0.658,0.458,0.039,-91.431,24.109,7.080
0.672,0.427,0.034,-77.942,19.958,13.916
0.652,0.399,-0.007,-63.904,9.460,17.639
0.657,0.349,0.059,-51.758,-0.671,20.691
0.621,0.283,0.032,-41.260,-8.484,21.423
0.622,0.262,0.094,-34.363,-9.277,19.043
0.617,0.214,0.114,-29.785,-4.333,15.076
0.631,0.204,0.166,-28.687,8.850,10.315
0.641,0.189,0.178,-30.334,28.809,6.348
0.690,0.175,0.188,-33.386,52.734,3.357

0.923,1.000,0.907,-7.507,19.714,29.846
1.065,1.014,1.034,-18.372,38.513,45.593
1.213,1.030,1.118,-32.715,42.236,57.312
1.276,1.030,1.158,-46.997,28.748,61.218
1.271,1.012,1.142,-58.289,3.540,57.678
1.137,1.004,1.068,-64.758,-21.606,49.683
1.150,1.043,1.038,-62.744,-40.344,37.231
1.009,0.907,1.195,-52.734,-56.213,27.039
0.861,0.694,1.104,-45.837,-56.641,31.372
0.936,0.530,1.299,-42.236,-35.034,38.696
1.015,0.414,1.435,-42.908,-10.864,41.565
1.236,0.344,1.632,-43.823,0.671,40.100
1.511,0.274,1.717,-44.922,-7.507,41.626
1.673,0.097,1.788,-45.715,-36.621,52.490
1.554,-0.042,1.711,-50.293,-76.538,67.566
1.350,-0.107,1.688,-57.983,-107.117,88.623
1.094,-0.234,1.638,-62.927,-123.596,110.535
0.870,-0.362,1.536,-67.566,-122.070,126.709
0.727,-0.416,1.500,-74.646,-108.337,133.484
0.724,-0.421,1.483,-76.843,-92.773,127.014
0.888,-0.396,1.492,-69.275,-84.290,110.168
0.998,-0.309,1.516,-55.908,-91.614,87.830
0.998,-0.281,1.478,-33.142,-114.990,63.232
0.910,-0.265,1.401,-2.075,-139.465,37.720
0.829,-0.246,1.388,34.180,-152.405,14.221
0.835,-0.369,1.460,73.486,-152.527,-1.709
0.913,-0.549,1.623,108.765,-145.020,-9.644
0.895,-0.843,1.773,132.568,-133.789,-7.507
0.917,-0.993,1.818,138.367,-115.173,4.395
0.951,-1.028,1.784,133.301,-93.567,22.217
0.992,-0.991,1.711,126.831,-72.021,33.203
1.010,-0.925,1.619,124.512,-53.101,34.485
1.033,-0.869,1.533,127.258,-39.795,30.334
1.012,-0.885,1.424,131.470,-33.020,25.879
1.026,-1.021,1.351,135.376,-29.663,22.766
1.022,-1.218,1.286,134.216,-28.687,18.005
0.943,-1.355,1.183,123.962,-29.297,12.695
0.847,-1.412,1.082,105.408,-28.320,7.874
0.762,-1.336,1.005,84.106,-25.574,1.221
0.676,-1.272,0.896,66.345,-23.865,-7.324
0.624,-1.223,0.818,54.626,-22.339,-20.569
0.589,-1.119,0.717,48.462,-21.118,-32.410
0.498,-1.064,0.668,42.786,-17.151,-40.588
0.500,-1.037,0.685,39.612,-8.362,-41.931
0.494,-1.043,0.742,33.875,5.676,-33.264
0.596,-0.990,0.839,25.879,22.217,-16.357
0.719,-0.898,0.929,17.639,34.363,2.808
0.825,-0.759,0.981,10.498,37.476,19.104
0.877,-0.697,1.016,5.798,30.334,33.813
0.875,-0.623,1.064,3.296,17.090,44.006
0.829,-0.670,1.060,2.869,2.686,52.063
0.706,-0.723,1.020,1.526,-7.751,54.077
0.608,-0.664,1.005,-2.502,-11.230,52.368
0.586,-0.515,0.976,-3.906,-9.705,49.133
0.497,-0.423,0.968,-0.122,-3.906,49.255
0.501,-0.397,0.982,8.301,5.676,47.791
0.454,-0.424,0.985,17.578,20.813,41.748
0.368,-0.407,0.984,21.851,43.823,35.522
0.452,-0.347,1.006,21.301,72.205,34.790
0.597,-0.365,1.035,20.752,99.182,33.813
0.695,-0.270,1.133,17.700,116.272,23.621
0.782,-0.314,1.129,17.334,119.446,16.663
0.933,-0.259,1.256,16.418,112.549,6.836
0.908,-0.131,1.285,17.395,90.149,0.610
0.892,-0.137,1.304,20.874,62.866,3.906
0.817,-0.167,1.287,25.085,38.025,6.348
0.712,-0.290,1.248,27.771,22.095,5.798
0.602,-0.303,1.230,23.682,19.348,-1.526
0.536,-0.344,1.170,13.794,28.687,-9.705
0.488,-0.241,1.106,0.000,46.387,-23.682
0.521,-0.158,1.085,-13.977,68.909,-38.757
0.574,-0.058,1.051,-23.376,88.745,-56.335
0.671,0.069,1.060,-29.175,104.675,-71.960
0.784,0.179,1.082,-30.518,112.976,-79.651
0.921,0.257,1.126,-27.954,110.901,-79.529
0.973,0.272,1.122,-22.095,97.839,-75.378
0.931,0.270,1.069,-16.602,79.041,-70.374
0.949,0.369,0.943,-12.756,62.439,-65.491
0.756,0.201,0.919,-8.667,52.551,-60.303
0.693,0.113,0.905,-8.972,49.927,-62.134
0.610,0.093,0.816,-12.634,57.312,-65.125
0.641,0.162,0.805,-20.813,69.702,-71.411
0.650,0.179,0.748,-26.367,78.247,-76.172
0.666,0.143,0.710,-32.227,85.205,-80.444
0.692,0.147,0.661,-38.452,86.121,-84.839
0.726,0.211,0.643,-45.471,84.167,-87.646
0.746,0.292,0.625,-48.950,75.745,-88.135
0.733,0.296,0.577,-48.706,64.331,-84.534
0.710,0.343,0.545,-47.180,53.223,-80.750
0.665,0.366,0.501,-43.823,41.931,-74.707
0.604,0.345,0.440,-38.757,30.945,-67.932
0.542,0.361,0.409,-34.119,24.536,-62.927
0.476,0.350,0.370,-29.663,23.560,-58.533
0.454,0.306,0.350,-24.963,26.489,-54.321
0.476,0.279,0.354,-22.827,32.410,-50.598
0.489,0.277,0.354,-22.461,38.330,-48.706
0.463,0.255,0.338,-22.644,43.152,-47.485
0.438,0.211,0.323,-24.353,47.852,-47.485
0.415,0.201,0.330,-28.198,52.917,-47.729
0.456,0.230,0.327,-32.654,56.763,-44.617
0.510,0.217,0.342,-36.743,57.434,-39.429
0.555,0.235,0.359,-40.527,53.223,-35.095
0.616,0.259,0.374,-43.213,44.861,-29.236
0.647,0.279,0.384,-44.678,32.471,-21.240
0.634,0.281,0.370,-44.434,16.968,-12.634
0.610,0.263,0.384,-42.847,2.075,-3.296
0.590,0.277,0.346,-40.955,-10.315,4.395
0.547,0.245,0.329,-39.612,-19.531,11.475
0.500,0.199,0.319,-37.842,-25.940,14.832
0.463,0.197,0.323,-37.354,-27.344,15.137
0.460,0.184,0.330,-36.865,-26.978,14.587
0.480,0.170,0.347,-36.072,-25.513,11.658
0.493,0.155,0.365,-35.828,-22.827,7.507
0.538,0.157,0.407,-36.621,-19.409,3.601
0.584,0.164,0.438,-37.292,-16.785,1.404
0.641,0.166,0.461,-38.025,-16.296,0.549
0.669,0.159,0.481,-37.903,-18.555,-0.549
0.697,0.152,0.499,-38.025,-22.461,-1.282
0.694,0.155,0.488,-38.635,-27.405,-0.061

0.813,0.924,1.053,-49.133,-94.727,140.991
0.556,0.956,1.061,-43.457,-139.648,144.714
0.294,0.937,1.075,-33.508,-159.302,144.043
0.171,0.881,1.181,-24.109,-150.024,137.451
0.240,0.813,1.340,-15.869,-122.070,121.765
0.412,0.746,1.547,-9.583,-88.562,99.670
0.627,0.683,1.716,-6.104,-64.148,76.294
0.839,0.633,1.824,-3.479,-56.152,54.626
1.004,0.605,1.887,1.526,-64.331,36.926
1.047,0.547,1.899,9.094,-84.961,25.879
1.035,0.449,1.867,20.874,-110.352,17.334
0.952,0.299,1.822,35.522,-133.057,9.949
0.827,0.088,1.780,49.377,-148.071,1.831
0.733,-0.150,1.783,59.143,-153.809,-8.057
0.637,-0.389,1.828,62.439,-151.550,-22.278
0.507,-0.615,1.821,56.824,-137.634,-33.997
0.489,-0.781,1.791,43.274,-112.000,-39.368
0.619,-0.798,1.831,27.893,-80.505,-43.945
0.879,-0.730,1.908,18.250,-57.434,-44.189
1.083,-0.652,1.983,17.273,-57.312,-36.926
1.120,-0.648,1.901,25.085,-79.102,-24.963
1.053,-0.713,1.768,37.170,-104.065,-15.381
0.944,-0.727,1.682,51.636,-118.164,-11.475
0.852,-0.743,1.577,67.200,-120.056,-8.179
0.708,-0.869,1.430,82.031,-108.704,-6.165
0.715,-0.867,1.432,94.482,-83.313,-12.390
0.679,-0.979,1.367,108.643,-56.335,-18.799
0.675,-1.022,1.350,117.859,-28.992,-26.367
0.646,-1.132,1.243,126.343,-5.676,-31.616
0.677,-1.274,1.187,132.996,15.381,-33.325
0.687,-1.403,1.083,136.230,29.175,-34.485
0.630,-1.468,0.956,134.399,37.048,-37.109
0.585,-1.402,1.213,129.761,41.687,-37.048
0.633,-1.682,0.683,128.296,29.968,-30.823
0.435,-1.518,0.787,106.995,39.490,-28.809
0.473,-1.620,0.829,88.074,42.114,-10.559
0.538,-1.682,0.729,66.528,34.180,-4.028
0.474,-1.306,0.786,39.429,29.541,4.822
0.406,-1.147,0.796,18.494,23.193,20.813
0.346,-1.112,0.749,7.324,15.259,29.541
0.375,-1.132,0.830,1.892,13.733,34.119
0.304,-0.918,0.912,-0.427,11.108,26.062
0.331,-0.943,0.958,-0.610,6.287,22.400
0.333,-0.987,0.970,-2.380,0.122,21.484
0.336,-0.956,0.984,-9.460,-1.038,18.372
0.355,-0.941,0.975,-17.273,1.221,14.893
0.344,-0.948,0.944,-25.574,9.216,10.742
0.316,-0.888,0.936,-34.607,23.376,5.859
0.329,-0.841,0.931,-40.771,41.931,4.456
0.380,-0.809,0.934,-41.870,60.791,4.700
0.430,-0.758,0.943,-40.039,76.843,4.639
0.561,-0.693,0.994,-34.363,86.975,5.676
0.592,-0.665,1.013,-25.757,89.111,6.104
0.633,-0.662,1.033,-16.907,87.524,6.226
0.572,-0.654,0.996,-7.690,83.374,7.874
0.668,-0.786,1.082,-0.977,84.473,11.230
0.638,-0.701,1.079,1.648,85.632,9.644
0.688,-0.655,1.133,2.441,88.684,13.062
0.701,-0.649,1.129,1.343,90.393,20.142
0.715,-0.568,1.156,-1.404,92.163,28.503
0.769,-0.465,1.201,-3.113,89.539,35.645
0.807,-0.399,1.247,-1.404,79.102,38.452
0.807,-0.386,1.262,1.953,62.378,35.095
0.731,-0.373,1.248,4.211,44.373,26.550
0.631,-0.377,1.214,4.089,31.860,15.137
0.539,-0.354,1.164,1.404,29.053,1.160
0.463,-0.295,1.091,-2.808,35.889,-14.343
0.465,-0.214,1.067,-6.409,51.208,-30.090
0.523,-0.151,1.044,-7.568,68.787,-43.945
0.599,-0.110,1.044,-5.920,83.679,-55.847
0.685,-0.082,1.044,-2.747,93.140,-64.575
0.740,-0.065,1.048,1.404,97.046,-70.068
0.758,-0.086,1.037,5.798,96.924,-72.510
0.769,-0.119,1.001,8.301,94.360,-71.350
0.749,-0.165,0.782,7.446,90.149,-67.261
0.756,-0.121,0.948,3.967,86.060,-61.646
0.729,-0.103,0.864,2.991,77.881,-58.044
0.672,-0.081,0.851,-1.831,74.707,-52.612
0.633,-0.056,0.781,-0.977,70.190,-46.326
0.643,-0.072,0.754,0.061,68.420,-41.016
0.572,-0.025,0.706,1.770,67.932,-38.086
0.557,0.005,0.680,3.662,69.763,-33.020
0.562,-0.009,0.665,6.042,72.815,-27.039
0.562,0.005,0.652,7.263,76.477,-22.644
0.584,0.035,0.660,8.301,78.552,-18.616
0.631,0.019,0.670,8.972,77.637,-13.367
0.641,-0.002,0.687,7.446,72.937,-7.507
0.651,-0.018,0.698,2.014,64.514,-0.671
0.640,-0.040,0.720,-7.080,53.894,7.324
0.589,-0.084,0.714,-20.203,42.969,15.747
0.612,-0.044,0.772,-37.170,34.241,22.339
0.572,-0.037,0.757,-52.490,24.475,24.170
0.561,0.039,0.774,-68.604,14.160,21.545
0.528,0.033,0.732,-81.299,5.005,15.198
0.451,0.080,0.693,-90.820,-0.977,6.775
0.391,0.120,0.638,-98.694,-1.160,-0.122
0.363,0.193,0.592,-102.722,3.357,-5.432
0.408,0.208,0.537,-101.501,10.193,-7.751
0.406,0.162,0.536,-98.816,16.663,-10.254
0.447,0.226,0.539,-96.863,22.034,-15.137
0.488,0.269,0.517,-91.797,20.996,-17.395
0.501,0.174,0.500,-86.487,15.259,-17.578
0.497,0.214,0.481,-81.909,8.057,-19.592
0.441,0.324,0.428,-78.308,1.587,-16.357
0.446,0.127,0.387,-75.500,-0.488,-10.193
0.417,0.171,0.381,-76.355,1.038,-4.700
0.407,0.184,0.352,-76.538,4.395,0.793
0.458,0.099,0.268,-75.806,6.409,6.165
0.460,0.101,0.248,-76.477,7.507,7.019
0.464,0.096,0.194,-76.843,5.798,5.005
0.440,0.160,0.171,-76.233,2.563,1.099
0.438,0.165,0.146,-72.632,-0.183,-1.526
0.404,0.188,0.114,-67.200,-1.160,-3.784
0.342,0.280,0.049,-60.669,1.465,-6.531
0.417,0.256,0.106,-51.453,8.850,-3.784
0.461,0.243,0.111,-40.405,14.832,-3.601
0.500,0.263,0.146,-31.311,20.142,-4.028
0.521,0.242,0.175,-22.522,21.912,-3.235
0.558,0.266,0.226,-14.343,22.339,-3.235

0.688,0.601,1.421,-48.462,-20.081,80.322
0.838,0.552,1.570,-47.729,-12.085,79.346
1.091,0.583,1.746,-49.316,-4.150,83.313
1.382,0.662,2.014,-49.561,-1.343,90.698
1.683,0.508,2.098,-45.166,-10.437,101.807
1.616,0.373,2.103,-49.988,-28.320,112.793
1.493,0.420,1.945,-66.162,-38.452,116.577
1.357,0.454,1.783,-74.829,-43.701,117.371
1.234,0.399,1.680,-75.500,-32.837,106.812
1.265,0.365,1.703,-68.665,-16.296,90.332
1.255,0.170,1.641,-62.500,-9.583,79.956
1.215,0.052,1.593,-60.974,-17.151,72.998
1.177,-0.012,1.475,-60.425,-36.438,62.439
0.930,-0.033,1.299,-53.833,-59.448,50.110
0.821,-0.123,1.254,-43.579,-66.345,38.391
0.871,-0.105,1.339,-27.222,-65.613,23.560
0.890,-0.261,1.345,-9.460,-68.665,13.611
0.858,-0.373,1.395,3.967,-71.716,4.211
0.782,-0.440,1.404,12.939,-70.984,-3.235
0.802,-0.495,1.444,19.714,-62.073,-9.033
0.882,-0.621,1.468,24.963,-50.476,-14.526
0.924,-0.643,1.506,26.062,-43.335,-19.897
0.927,-0.660,1.471,27.344,-44.189,-19.226
0.853,-0.730,1.357,30.762,-49.194,-18.188
0.727,-0.819,1.194,34.912,-49.438,-21.423
0.579,-0.862,1.041,37.537,-39.368,-30.518
0.588,-1.005,0.940,48.096,-24.231,-32.043
0.590,-0.991,0.752,59.875,-8.362,-49.622
0.549,-0.805,0.922,55.115,20.569,-75.378
0.571,-0.733,0.894,71.472,32.593,-79.346
0.738,-0.873,0.892,85.815,41.992,-71.960
0.752,-0.880,0.970,89.600,45.349,-62.744
0.770,-0.837,1.017,93.079,39.307,-45.776
0.810,-0.937,0.965,96.863,28.748,-29.053
0.827,-0.992,0.999,95.459,20.691,-18.250
0.907,-1.043,1.062,87.097,13.000,-6.287
0.908,-0.900,1.102,74.036,0.549,3.235
0.958,-0.810,1.124,61.707,-12.756,14.893
0.863,-0.672,1.130,53.406,-25.574,21.667
0.764,-0.563,1.137,48.889,-32.166,28.687
0.721,-0.572,1.131,49.377,-30.884,37.292
0.698,-0.582,1.150,49.561,-21.729,43.701
0.683,-0.555,1.190,47.546,-9.644,48.767
0.708,-0.530,1.230,45.288,2.747,53.406
0.703,-0.464,1.260,43.762,13.062,54.749
0.739,-0.404,1.310,44.006,20.508,54.138
0.764,-0.397,1.331,46.204,22.949,51.575
0.728,-0.410,1.309,47.363,22.278,46.692
0.680,-0.411,1.297,45.593,24.170,39.612
0.635,-0.400,1.267,41.748,31.799,29.602
0.624,-0.372,1.247,36.804,45.166,16.724
0.642,-0.313,1.242,31.372,63.538,2.075
0.713,-0.214,1.243,25.757,82.458,-11.963
0.806,-0.100,1.254,22.095,97.534,-22.583
0.906,-0.007,1.269,22.583,105.347,-27.527
0.973,0.056,1.278,27.405,103.882,-26.855
0.990,0.094,1.265,35.767,95.642,-22.644
0.959,0.097,1.236,46.997,85.693,-17.578
0.905,0.030,1.197,59.021,78.003,-14.343
0.844,-0.051,1.153,68.237,75.623,-15.442
0.777,-0.106,1.106,71.960,78.369,-21.484
0.672,-0.070,1.065,71.960,85.938,-32.532
0.721,-0.175,1.046,71.167,99.182,-44.250
0.764,-0.178,1.079,66.223,113.403,-59.387
0.885,-0.190,1.123,57.129,123.718,-66.345
1.012,-0.170,1.189,44.495,124.573,-65.430
1.100,-0.158,1.219,28.748,113.831,-57.678
1.104,-0.114,1.194,12.085,93.384,-46.875
1.015,-0.042,1.141,-3.296,69.824,-36.377
0.889,-0.002,1.043,-17.151,47.852,-27.405
0.786,0.073,0.951,-29.297,31.860,-21.667
0.644,0.128,0.851,-37.415,24.414,-18.860
0.540,0.184,0.780,-41.687,25.574,-20.142
0.474,0.212,0.761,-42.603,33.997,-23.499
0.559,0.266,0.769,-40.588,43.579,-29.175
0.525,0.279,0.718,-36.926,46.082,-35.156
0.529,0.271,0.700,-36.438,47.180,-38.635
0.520,0.266,0.673,-36.011,45.715,-41.687
0.526,0.278,0.669,-36.804,44.006,-42.725
0.552,0.298,0.673,-38.208,40.283,-42.603
0.534,0.291,0.644,-39.307,34.546,-41.931
0.517,0.286,0.621,-41.199,28.687,-41.931
0.512,0.316,0.623,-43.030,24.963,-43.335
0.526,0.328,0.615,-42.969,22.278,-45.105
0.593,0.306,0.618,-40.527,18.860,-44.373
0.516,0.329,0.534,-38.574,12.878,-45.105
0.458,0.284,0.490,-39.246,12.695,-47.241
0.436,0.279,0.435,-36.987,14.282,-51.331
0.396,0.312,0.388,-33.569,19.348,-58.044
0.388,0.321,0.347,-27.893,26.611,-66.406
0.405,0.312,0.296,-20.569,34.546,-75.134
0.446,0.362,0.280,-12.329,42.053,-84.351
0.522,0.286,0.272,-1.953,46.631,-89.233
0.605,0.320,0.329,6.531,44.983,-92.896
0.694,0.354,0.341,16.479,38.147,-85.388
0.783,0.192,0.354,25.391,26.550,-70.435
0.798,0.176,0.336,28.992,11.841,-62.195
0.755,0.181,0.339,29.480,-1.465,-52.124
0.721,0.130,0.299,29.846,-14.038,-37.415
0.652,0.108,0.268,28.076,-22.583,-26.611
0.601,0.134,0.289,26.123,-24.780,-20.386
0.599,0.140,0.300,26.367,-22.339,-16.785
0.639,0.109,0.325,29.663,-16.418,-17.822
0.659,0.094,0.350,33.813,-10.498,-22.644
0.672,0.062,0.381,37.415,-5.920,-26.978
0.706,0.029,0.411,39.917,-2.258,-28.625
0.725,0.013,0.445,41.382,0.000,-27.100
0.746,-0.036,0.477,41.321,0.183,-22.339
0.774,-0.112,0.508,38.940,-0.549,-15.259
0.781,-0.169,0.545,32.776,-1.282,-6.958
0.759,-0.216,0.568,22.217,-1.953,1.953
0.772,-0.261,0.583,8.667,-1.770,11.047
0.803,-0.281,0.605,-6.042,-2.869,16.724
0.793,-0.276,0.603,-20.569,-6.531,16.724
0.788,-0.267,0.575,-33.020,-11.108,11.780
0.754,-0.246,0.546,-42.786,-14.160,4.883
0.722,-0.196,0.524,-50.049,-14.587,0.488
0.684,-0.145,0.470,-52.734,-12.878,-0.793
0.640,-0.127,0.422,-51.086,-6.592,0.061

0.971,1.079,0.898,-70.190,-20.752,27.039
0.994,1.170,0.952,-69.641,-42.786,36.316
0.965,1.169,0.976,-66.406,-59.570,48.706
0.977,1.121,1.005,-64.392,-65.430,63.965
1.012,1.084,1.101,-64.514,-61.523,78.796
1.130,1.043,1.245,-64.758,-53.833,91.797
1.314,0.956,1.431,-62.866,-49.561,101.624
1.479,0.868,1.648,-58.838,-57.800,105.042
1.602,0.730,1.830,-51.025,-81.726,102.722
1.566,0.576,1.895,-41.260,-117.981,96.741
1.368,0.459,1.867,-31.921,-153.809,88.562
1.131,0.323,1.797,-19.409,-177.002,80.200
0.930,0.125,1.725,-0.854,-186.035,68.359
0.742,-0.143,1.728,23.437,-183.594,49.255
0.500,-0.528,1.783,46.509,-167.847,27.893
0.390,-0.868,1.833,57.251,-137.634,15.625
0.391,-1.160,1.928,55.359,-102.600,13.489
0.380,-1.315,1.980,45.898,-68.787,13.062
0.493,-1.339,2.040,31.860,-37.842,15.564
0.679,-1.338,2.105,16.724,-20.691,23.376
0.822,-1.296,2.117,3.723,-27.283,28.320
0.830,-1.286,2.037,-5.432,-54.504,27.222
0.680,-1.308,1.881,-11.353,-88.989,22.888
0.475,-1.338,1.722,-14.526,-112.793,18.250
0.339,-1.410,1.559,-14.343,-119.263,13.977
0.251,-1.472,1.391,-11.169,-110.168,7.874
0.218,-1.478,1.277,-6.226,-91.125,-0.427
0.213,-1.452,1.163,2.380,-69.397,-10.803
0.221,-1.446,1.046,15.625,-48.401,-22.156
0.226,-1.462,0.934,32.349,-29.785,-33.630
0.199,-1.455,0.830,49.377,-12.024,-44.128
0.154,-1.451,0.768,63.904,5.676,-46.936
0.203,-1.563,0.764,73.730,23.926,-40.039
0.295,-1.641,0.815,75.684,37.964,-31.860
0.390,-1.641,0.861,69.153,40.344,-20.630
0.495,-1.518,0.931,58.472,29.907,-8.972
0.526,-1.479,0.914,49.866,6.592,-0.732
0.368,-1.376,0.939,42.969,-19.836,1.892
0.279,-1.239,0.986,35.767,-41.138,1.465
0.132,-1.105,1.020,37.109,-52.307,4.089
0.078,-1.161,0.777,38.330,-51.758,4.700
0.001,-1.176,0.927,33.203,-32.532,-3.540
0.021,-1.025,0.878,28.442,-6.592,-19.775
0.120,-1.015,0.887,26.123,23.193,-28.870
0.233,-0.963,0.866,23.926,50.964,-38.147
0.306,-0.891,0.908,22.339,76.416,-44.312
0.382,-0.797,0.924,24.292,93.506,-47.791
0.451,-0.769,0.990,29.663,105.164,-44.678
0.542,-0.820,1.043,38.269,108.826,-38.330
0.613,-0.815,1.154,44.189,104.736,-28.198
0.678,-0.769,1.260,47.791,92.896,-12.939
0.712,-0.822,1.346,50.964,73.792,6.531
0.671,-0.898,1.375,50.049,50.232,25.391
0.562,-0.925,1.349,44.189,27.710,38.635
0.417,-0.907,1.364,37.415,13.367,44.739
0.302,-0.923,1.326,32.227,8.728,43.335
0.134,-0.854,1.307,26.428,18.127,36.865
0.130,-0.844,1.283,25.391,38.025,26.062
0.157,-0.825,1.274,21.729,62.927,10.864
0.271,-0.813,1.281,17.273,88.379,-3.784
0.378,-0.718,1.280,13.245,108.826,-17.700
0.483,-0.594,1.304,10.376,124.756,-26.917
0.646,-0.512,1.344,11.230,132.202,-29.114
0.766,-0.438,1.403,14.709,128.723,-25.818
0.868,-0.386,1.465,19.775,113.708,-18.494
0.877,-0.379,1.451,25.146,89.600,-10.559
0.816,-0.383,1.391,28.992,65.552,-4.028
0.733,-0.435,1.310,30.273,49.255,-0.427
0.659,-0.452,1.243,29.114,44.739,-3.235
0.586,-0.405,1.184,26.428,50.781,-13.123
0.546,-0.321,1.141,24.963,64.758,-26.062
0.587,-0.264,1.118,26.978,82.031,-37.964
0.635,-0.212,1.087,31.128,98.083,-48.279
0.619,-0.148,1.031,37.048,112.000,-56.213
0.702,-0.088,1.005,44.006,125.977,-60.303
0.862,-0.006,1.061,53.162,135.925,-60.059
0.999,-0.089,1.052,64.636,127.625,-57.190
1.015,-0.083,1.063,70.923,109.985,-58.594
0.951,-0.082,1.042,73.975,86.487,-57.861
0.878,-0.101,0.994,74.646,61.218,-54.749
0.811,-0.140,0.955,71.655,40.161,-52.185
0.739,-0.144,0.912,67.139,25.269,-51.941
0.658,-0.139,0.859,62.012,16.846,-52.246
0.613,-0.119,0.814,55.420,13.306,-49.988
0.571,-0.096,0.776,49.561,12.207,-47.119
0.567,-0.014,0.749,45.471,12.695,-45.044
0.485,-0.080,0.689,43.579,14.160,-44.617
0.488,-0.015,0.663,43.701,18.127,-47.424
0.431,-0.010,0.604,46.204,23.560,-48.035
0.471,-0.082,0.643,51.147,30.579,-49.194
0.475,0.027,0.599,56.274,33.386,-49.072
0.466,-0.018,0.549,60.303,38.391,-39.978
0.429,0.231,0.543,62.683,42.480,-29.297
0.544,-0.335,0.495,67.261,44.617,-14.648
0.489,-0.201,0.517,60.059,52.185,-22.339
0.566,-0.080,0.560,55.054,53.650,-18.433
0.568,-0.268,0.502,51.758,47.180,-11.047
0.582,-0.252,0.500,44.067,40.405,-14.160
0.503,-0.157,0.525,35.461,34.790,-16.663
0.522,-0.148,0.547,30.518,27.954,-9.399
0.535,-0.226,0.502,26.733,20.996,-3.601
0.487,-0.232,0.491,20.020,20.569,-1.465
0.409,-0.190,0.500,13.367,25.208,1.282
0.329,-0.227,0.434,7.446,36.804,7.935
0.308,-0.226,0.421,0.000,56.152,13.428
0.340,-0.216,0.423,-7.385,78.003,17.334
0.388,-0.248,0.416,-13.977,97.900,20.996
0.450,-0.230,0.443,-21.667,113.403,21.362
0.482,-0.310,0.424,-30.518,122.986,22.888
0.560,-0.307,0.453,-42.053,127.808,25.513
0.564,-0.308,0.430,-53.284,126.099,25.879
0.526,-0.268,0.380,-65.369,120.422,26.306
0.581,-0.295,0.398,-78.308,116.089,29.846
0.665,-0.003,0.393,-92.407,109.253,33.997
0.630,-0.422,0.365,-100.891,97.595,42.053
0.625,-0.179,0.310,-109.192,82.581,41.260
0.603,-0.198,0.203,-112.610,72.144,40.588
0.640,-0.111,0.229,-114.868,65.063,30.334
0.577,0.022,0.179,-107.666,56.335,20.569

0.713,0.925,0.820,-54.016,-22.400,13.306
0.832,1.009,0.960,-56.152,-20.752,5.005
0.901,1.026,1.030,-53.589,-23.315,5.859
1.121,1.096,1.233,-48.523,-28.320,11.902
0.909,1.027,1.202,-41.138,-37.903,21.118
1.169,0.950,1.432,-33.142,-46.448,27.710
0.974,0.678,1.464,-18.127,-60.852,24.475
0.977,0.720,1.538,-15.808,-66.101,17.395
0.847,0.334,1.659,-6.409,-63.599,8.301
0.926,0.220,1.909,-9.583,-42.847,6.897
1.088,0.011,1.964,-16.663,-25.696,22.156
1.230,-0.092,2.090,-27.649,-21.057,37.659
1.327,-0.137,2.149,-37.781,-26.184,48.035
1.289,-0.247,2.131,-41.504,-47.302,50.476
1.121,-0.371,2.004,-38.940,-75.623,40.588
0.965,-0.473,1.853,-31.921,-95.947,18.494
0.803,-0.530,1.710,-22.400,-102.661,-9.094
0.778,-0.594,1.625,-7.996,-96.802,-35.095
0.869,-0.649,1.617,12.268,-85.327,-59.814
1.000,-0.682,1.633,37.598,-77.820,-77.454
1.088,-0.833,1.696,64.941,-79.163,-80.139
1.045,-1.034,1.768,86.853,-83.801,-69.214
0.989,-1.174,1.763,96.680,-86.731,-43.152
0.934,-1.261,1.710,98.389,-87.585,-7.263
0.867,-1.295,1.622,97.107,-87.708,27.710
0.739,-1.316,1.482,96.497,-88.989,53.528
0.556,-1.309,1.327,98.328,-89.905,65.796
0.414,-1.371,1.228,103.821,-87.463,66.711
0.334,-1.484,1.163,108.643,-84.778,58.655
0.251,-1.553,1.079,109.863,-85.999,45.166
0.162,-1.562,1.029,108.337,-90.576,35.278
0.102,-1.641,0.873,105.042,-96.008,27.283
-0.034,-1.670,0.922,91.492,-88.928,16.602
-0.133,-1.688,0.857,75.317,-76.965,12.146
-0.121,-1.590,0.846,55.115,-53.528,14.587
-0.047,-1.505,0.771,36.926,-29.358,20.752
0.067,-1.482,0.729,21.851,-7.568,24.170
0.107,-1.336,0.692,12.573,7.996,26.001
0.199,-1.396,0.659,8.118,14.648,25.269
0.230,-1.349,0.670,2.869,13.245,15.381
0.210,-1.358,0.643,-1.404,8.911,11.597
0.218,-1.358,0.694,-7.080,2.686,7.080
0.211,-1.295,0.775,-12.817,-1.953,5.798
0.224,-1.155,0.897,-18.250,-6.104,12.573
0.231,-1.092,0.933,-20.996,-12.024,24.841
0.195,-1.073,0.940,-22.217,-16.968,36.194
0.139,-0.994,0.958,-23.315,-15.137,43.213
0.116,-0.912,0.984,-20.630,-7.385,46.570
0.109,-0.889,1.022,-12.329,5.188,44.067
0.101,-0.892,1.060,-0.488,22.644,34.973
0.106,-0.854,1.081,11.475,45.288,23.254
0.187,-0.835,1.187,23.132,71.472,18.188
0.335,-0.736,1.288,33.447,91.614,18.494
0.537,-0.679,1.466,41.077,99.915,29.419
0.721,-0.742,1.561,48.706,87.769,48.218
0.772,-0.766,1.617,49.744,60.852,65.002
0.767,-0.830,1.672,44.556,25.879,81.116
0.603,-0.809,1.609,37.170,-8.545,86.182
0.383,-0.747,1.552,29.114,-27.649,82.825
0.200,-0.704,1.442,24.109,-27.710,72.632
0.062,-0.650,1.335,21.973,-7.812,54.138
-0.017,-0.520,1.183,21.667,28.564,30.029
0.129,-0.397,1.215,24.536,75.745,5.249
0.390,-0.285,1.212,32.043,113.831,-14.282
0.631,-0.204,1.264,44.250,132.507,-23.254
0.795,-0.076,1.314,59.204,130.432,-23.193
0.875,-0.100,1.354,77.209,113.831,-11.047
0.869,-0.143,1.335,93.201,91.309,4.883
0.834,-0.224,1.313,104.675,71.167,25.330
0.797,-0.300,1.313,109.009,57.556,44.678
0.682,-0.357,1.271,108.948,49.072,54.443
0.578,-0.392,1.235,105.042,49.561,52.368
0.509,-0.354,1.233,98.267,58.167,40.161
0.447,-0.301,1.187,91.919,70.251,22.888
0.164,0.128,0.964,87.402,84.534,4.211
0.466,-0.226,1.134,89.478,106.201,-2.380
0.581,-0.160,1.103,91.492,116.821,-17.334
0.513,-0.174,1.086,93.018,118.652,-29.602
0.483,-0.083,1.089,96.375,113.953,-37.354
0.543,-0.092,1.085,104.309,105.469,-36.926
0.512,-0.089,0.949,113.159,91.492,-39.917
0.370,-0.170,0.876,120.667,84.717,-43.945
0.348,-0.120,0.842,127.014,89.233,-50.781
0.313,-0.052,0.887,134.460,98.694,-54.871
0.347,-0.106,0.873,142.700,103.943,-53.955
0.400,-0.201,0.868,148.071,104.919,-54.565
0.421,-0.280,0.843,147.339,100.586,-61.157
0.431,-0.274,0.853,139.648,91.003,-70.618
0.446,-0.283,0.868,128.662,77.515,-75.439
0.446,-0.344,0.851,114.685,61.523,-78.186
0.483,-0.391,0.830,94.543,44.617,-79.102
0.469,-0.396,0.806,70.313,30.884,-76.721
0.397,-0.348,0.769,44.373,21.606,-71.838
0.346,-0.288,0.745,19.836,17.883,-64.880
0.228,-0.385,0.639,-2.075,20.447,-54.749
0.193,-0.304,0.582,-25.269,31.921,-52.124
0.220,-0.006,0.602,-49.377,49.622,-51.758
0.090,-0.173,0.455,-67.139,64.758,-39.490
0.047,-0.205,0.335,-84.106,84.717,-36.133
-0.020,-0.079,0.259,-100.586,110.413,-37.659
0.025,-0.062,0.226,-109.802,140.259,-37.842
0.113,-0.127,0.187,-113.525,166.992,-40.222
0.343,0.050,0.352,-113.098,187.317,-40.222
0.435,-0.146,0.242,-109.863,185.303,-34.485
0.507,-0.012,0.324,-114.014,175.659,-38.696
0.543,0.171,0.337,-112.488,155.151,-26.489
0.583,0.024,0.357,-108.643,130.005,-12.268
0.576,0.143,0.324,-103.638,96.985,-1.892
0.425,0.123,0.245,-98.267,67.932,10.071
0.435,0.014,0.173,-93.262,44.434,21.912
0.381,-0.073,0.095,-93.079,32.349,20.569
0.344,-0.093,0.086,-96.313,29.968,9.094
0.255,0.076,0.051,-100.830,34.302,-5.859
0.410,0.227,0.118,-99.976,44.617,-6.836
0.578,0.109,0.115,-90.027,49.255,4.700
0.610,0.009,0.162,-83.252,47.546,5.310
0.723,0.002,0.128,-78.430,41.138,2.319
0.735,0.148,0.230,-74.951,37.903,-2.319
0.730,0.125,0.236,-64.758,32.898,2.991

1.043,0.939,0.927,-104.004,27.893,63.049
1.193,0.897,1.049,-101.624,18.066,69.519
1.258,0.888,1.127,-106.506,3.662,73.059
1.216,0.968,1.141,-116.638,-9.766,71.289
1.156,1.088,1.109,-125.977,-16.174,65.796
1.157,1.189,1.052,-130.737,-15.076,59.326
1.231,1.245,1.005,-128.784,-11.963,54.138
1.329,1.275,0.978,-120.239,-15.198,52.429
1.359,1.242,0.993,-104.370,-30.029,53.711
1.223,1.105,1.035,-81.177,-48.889,60.059
1.152,0.947,1.144,-58.777,-58.533,76.111
1.103,0.718,1.242,-38.025,-63.049,95.886
0.930,0.425,1.301,-16.785,-67.383,108.032
0.863,0.115,1.421,-1.282,-65.063,112.671
0.817,-0.165,1.456,8.057,-65.369,107.239
0.756,-0.352,1.392,15.625,-72.998,83.496
0.649,-0.480,1.298,21.912,-81.116,48.279
0.626,-0.542,1.257,29.907,-87.158,11.414
0.647,-0.607,1.253,44.250,-89.905,-21.851
0.697,-0.697,1.338,63.599,-86.304,-44.922
0.788,-0.823,1.544,84.167,-79.041,-54.626
0.842,-1.076,1.762,103.516,-70.618,-47.729
0.845,-1.269,1.816,111.694,-59.937,-24.475
0.922,-1.328,1.853,105.408,-47.180,7.812
1.011,-1.309,1.917,95.947,-39.917,33.875
1.086,-1.298,1.888,89.050,-45.410,45.410
1.003,-1.300,1.786,82.642,-63.416,43.640
0.840,-1.257,1.665,74.768,-82.214,35.217
0.716,-1.215,1.597,67.566,-91.431,25.513
0.654,-1.226,1.484,64.392,-93.384,16.113
0.622,-1.232,1.397,62.744,-89.600,5.615
0.656,-1.115,1.360,60.669,-82.397,-2.625
0.670,-1.311,1.279,59.082,-75.562,-4.395
0.574,-1.435,1.281,53.345,-62.134,-4.028
0.509,-1.448,1.228,33.142,-41.565,2.869
0.556,-1.335,1.287,9.583,-19.714,13.306
0.630,-1.264,1.134,-12.024,-8.789,23.682
0.523,-1.171,0.986,-30.212,-6.531,25.879
0.462,-0.992,0.916,-44.250,-4.089,21.057
0.481,-0.859,0.833,-47.424,0.305,16.174
0.610,-0.867,0.810,-43.274,5.615,13.672
0.753,-0.771,0.806,-33.875,6.470,14.526
0.843,-0.660,0.839,-22.339,0.122,23.682
0.816,-0.636,0.886,-9.705,-6.958,40.710
0.734,-0.627,0.937,2.380,-6.714,61.951
0.673,-0.640,1.007,11.780,3.174,81.787
0.640,-0.665,1.063,17.639,19.470,97.656
0.624,-0.704,1.112,20.142,35.583,108.582
0.597,-0.675,1.155,19.226,47.668,114.380
0.562,-0.636,1.166,17.822,54.749,116.699
0.499,-0.639,1.149,17.883,58.411,114.563
0.394,-0.648,1.110,17.029,64.453,107.544
0.315,-0.638,1.085,14.526,76.782,93.262
0.282,-0.641,1.082,12.390,95.032,71.594
0.357,-0.642,1.123,10.010,117.798,44.495
0.533,-0.595,1.188,4.639,139.648,20.691
0.705,-0.486,1.230,-1.770,150.818,4.028
0.825,-0.370,1.239,-5.005,148.804,-6.409
0.879,-0.277,1.222,-2.563,136.719,-14.771
0.867,-0.221,1.197,5.066,121.338,-23.315
0.803,-0.182,1.166,15.564,109.985,-32.593
0.763,-0.175,1.152,26.550,108.215,-41.626
0.765,-0.174,1.175,36.438,116.455,-50.964
0.803,-0.171,1.182,43.762,131.348,-61.218
0.858,-0.162,1.168,48.157,148.560,-74.036
0.923,-0.137,1.141,50.720,164.429,-88.318
1.006,-0.116,1.118,52.856,174.988,-102.356
1.101,-0.105,1.108,54.504,178.955,-114.380
1.186,-0.070,1.085,56.458,176.392,-122.131
1.210,0.003,1.060,58.716,167.725,-124.634
1.228,0.072,1.046,63.293,156.067,-123.108
1.231,0.123,1.056,70.862,142.883,-119.446
1.193,0.221,1.057,79.285,129.639,-112.244
1.258,0.021,1.023,86.548,116.882,-98.816
1.080,0.220,1.101,90.149,103.699,-88.806
1.339,-0.078,0.990,93.994,91.980,-67.810
1.064,-0.063,0.988,81.970,83.923,-81.848
1.007,0.055,0.951,66.345,79.346,-86.731
0.929,-0.007,0.943,49.500,81.299,-83.679
1.009,0.039,0.974,34.058,82.031,-85.693
0.962,0.045,0.888,18.860,82.092,-86.304
0.919,0.149,0.876,3.784,82.214,-85.388
0.984,0.240,0.842,-5.615,79.346,-79.773
1.006,0.252,0.821,-8.240,70.984,-72.083
0.969,0.288,0.779,-9.644,56.702,-65.857
0.889,0.278,0.705,-9.949,40.039,-59.814
0.761,0.252,0.607,-10.803,25.330,-57.373
0.651,0.276,0.550,-12.695,13.977,-57.983
0.508,0.259,0.488,-14.038,5.310,-56.885
0.409,0.202,0.366,-15.564,0.488,-56.702
0.333,0.213,0.311,-20.081,5.554,-58.655
0.583,0.425,0.417,-23.071,13.672,-56.702
0.199,0.082,0.212,-19.897,10.681,-44.922
0.110,-0.058,0.008,-28.381,17.029,-52.551
0.206,0.369,0.275,-49.194,52.124,-66.833
0.356,0.201,0.145,-46.143,72.449,-57.983
0.371,0.596,0.253,-50.293,84.229,-59.021
0.491,0.107,0.190,-46.448,80.750,-34.729
0.620,0.163,0.135,-49.622,61.157,-37.781
0.567,0.461,0.241,-59.204,44.800,-41.626
0.524,0.219,0.116,-56.458,20.264,-25.818
0.599,0.314,0.243,-57.922,4.395,-20.264
0.626,0.298,0.193,-56.702,-9.583,-14.954
0.725,0.345,0.252,-53.955,-20.630,-7.812
0.625,0.319,0.181,-50.415,-28.625,-1.953
0.629,0.299,0.212,-46.204,-31.067,3.662
0.636,0.214,0.181,-41.931,-29.114,7.507
0.619,0.166,0.172,-40.466,-25.146,5.920
0.595,0.150,0.188,-42.419,-17.395,2.380
0.591,0.100,0.200,-44.067,-10.803,-1.099
0.627,0.052,0.224,-47.546,-3.723,-3.052
0.641,0.037,0.226,-52.124,4.517,-3.174
0.691,0.003,0.217,-56.885,14.587,-3.052
0.815,0.015,0.238,-61.218,22.583,-2.075
0.921,0.077,0.283,-63.660,21.790,0.732
1.002,0.093,0.294,-61.035,10.254,6.348
1.000,0.083,0.288,-54.504,-8.057,12.146
0.943,0.067,0.270,-46.509,-27.222,17.395
0.845,0.031,0.244,-37.781,-42.786,21.667

1.044,0.843,1.133,-18.616,-64.453,4.883
1.106,0.785,1.230,1.038,-75.989,1.465
1.134,0.598,1.298,22.949,-90.149,6.653
1.141,0.371,1.410,39.612,-102.295,18.677
1.104,0.111,1.475,48.035,-113.892,37.720
0.994,-0.152,1.508,48.706,-121.887,60.486
0.848,-0.410,1.506,41.870,-122.314,81.848
0.731,-0.652,1.493,31.799,-116.272,98.206
0.657,-0.870,1.453,22.034,-109.924,103.271
0.641,-1.089,1.446,15.991,-106.262,95.215
0.694,-1.285,1.554,14.282,-106.567,79.285
0.786,-1.437,1.734,18.921,-109.009,66.833
0.859,-1.638,1.841,29.602,-119.019,56.885
0.757,-1.881,1.802,41.443,-133.667,40.039
0.586,-1.858,1.722,47.974,-139.160,11.780
0.409,-2.079,1.529,51.147,-131.104,-11.658
0.294,-1.900,1.499,45.105,-106.628,-45.715
0.226,-2.121,1.337,36.255,-75.317,-63.416
0.141,-2.052,1.237,20.020,-37.109,-87.341
0.160,-2.117,1.154,2.380,6.165,-98.999
0.273,-2.076,1.104,-10.559,43.457,-107.300
0.354,-2.077,1.037,-18.616,72.754,-114.136
0.418,-1.995,0.988,-21.057,94.543,-120.178
0.457,-1.893,0.926,-18.188,108.582,-124.451
0.532,-1.819,0.889,-9.644,117.798,-125.671
0.600,-1.732,0.835,2.136,121.216,-126.221
0.611,-1.609,0.788,13.550,120.789,-122.131
0.644,-1.593,0.760,25.818,117.981,-108.887
0.684,-1.615,0.712,35.828,112.183,-93.872
0.673,-1.523,0.730,38.818,104.248,-76.355
0.729,-1.423,0.787,38.513,88.928,-47.058
0.744,-1.385,0.732,37.354,61.279,-9.155
0.604,-1.425,0.616,32.104,31.006,27.344
0.500,-1.332,0.651,21.973,8.179,56.580
0.483,-1.383,0.601,19.531,-14.587,81.482
0.337,-1.361,0.551,18.860,-34.973,85.144
0.342,-1.206,0.651,19.775,-45.532,82.275
0.300,-1.144,0.664,28.198,-57.434,84.534
0.638,-1.475,0.563,44.128,-74.219,94.482
0.514,-1.426,0.686,48.462,-81.543,88.867
0.507,-1.537,0.961,35.767,-63.660,89.722
0.370,-1.702,0.920,22.705,-48.523,109.436
0.315,-1.697,1.006,-4.883,-18.127,117.737
0.272,-1.624,1.031,-30.212,21.667,133.423
0.289,-1.624,0.966,-50.415,60.425,138.062
0.342,-1.570,0.971,-68.420,100.891,123.047
0.366,-1.407,0.896,-81.604,131.348,97.717
0.541,-1.257,0.868,-87.769,150.513,75.256
0.693,-1.137,0.840,-87.036,153.931,56.641
0.781,-0.864,0.867,-81.604,138.306,36.438
0.854,-0.753,0.825,-67.078,107.849,29.968
0.876,-0.574,0.820,-47.668,67.810,23.987
0.777,-0.544,0.763,-24.780,26.184,26.794
0.743,-0.493,0.764,-2.563,-5.615,30.701
0.631,-0.496,0.712,20.264,-30.579,32.104
0.456,-0.485,0.690,39.856,-40.527,29.724
0.337,-0.456,0.714,55.481,-33.020,25.696
0.289,-0.427,0.706,68.970,-14.587,20.630
0.321,-0.411,0.728,79.346,12.207,12.268
0.352,-0.393,0.757,88.318,43.884,0.610
0.402,-0.357,0.810,95.581,77.942,-10.681
0.523,-0.329,0.895,101.440,110.718,-17.151
0.649,-0.340,0.965,105.469,136.536,-16.846
0.756,-0.355,1.027,106.445,152.466,-12.329
0.849,-0.376,1.065,102.539,156.616,-7.629
0.916,-0.402,1.095,94.910,150.269,-7.263
0.944,-0.414,1.107,85.083,136.353,-14.160
0.904,-0.438,1.094,72.754,120.605,-24.963
0.825,-0.412,1.054,56.213,106.689,-35.217
0.800,-0.336,1.020,39.001,96.741,-40.344
0.760,-0.303,0.968,22.461,90.027,-38.269
0.683,-0.287,0.875,6.958,87.402,-35.461
0.711,-0.114,0.943,-4.639,90.637,-37.903
0.430,-0.199,0.636,-7.324,91.370,-39.673
0.560,-0.015,0.670,-15.625,104.126,-42.908
0.526,-0.037,0.670,-13.184,119.019,-50.232
0.538,-0.039,0.624,-13.184,129.333,-52.368
0.704,0.044,0.732,-18.188,139.404,-42.236
0.765,0.042,0.765,-23.193,137.878,-22.949
0.737,-0.133,0.647,-27.161,125.977,-4.395
0.669,-0.143,0.618,-41.870,118.286,6.775
0.704,-0.037,0.645,-59.082,118.530,12.573
0.603,0.190,0.646,-63.416,111.267,13.855
0.614,0.151,0.615,-63.354,107.056,20.508
0.629,0.108,0.553,-63.721,98.633,27.344
0.645,0.103,0.546,-68.665,89.966,31.128
0.690,0.164,0.538,-72.510,76.904,32.532
0.667,0.161,0.476,-74.158,57.922,32.776
0.611,0.176,0.418,-75.623,37.537,31.006
0.566,0.168,0.351,-75.378,18.616,27.466
0.512,0.211,0.309,-73.242,3.113,19.592
0.462,0.255,0.283,-69.397,-10.193,12.451
0.451,0.262,0.262,-61.951,-23.499,6.653
0.446,0.250,0.262,-51.880,-36.316,0.183
0.455,0.217,0.266,-41.443,-48.218,-4.578
0.470,0.141,0.284,-33.081,-58.899,-6.958
0.482,0.093,0.315,-28.625,-67.261,-5.432
0.475,0.068,0.348,-27.832,-72.449,-2.686
0.456,0.098,0.384,-29.114,-73.914,2.441
0.433,-0.021,0.391,-32.227,-69.702,12.085
0.470,-0.028,0.382,-38.513,-62.317,17.090
0.423,-0.047,0.367,-45.166,-52.551,17.395
0.405,0.010,0.396,-53.040,-39.734,12.329
0.419,0.001,0.373,-57.617,-29.419,8.240
0.466,-0.006,0.394,-60.181,-20.020,0.916
0.527,-0.018,0.432,-60.852,-13.855,-6.470
0.557,-0.031,0.453,-60.791,-13.184,-12.634
0.588,-0.051,0.457,-60.425,-16.296,-15.808
0.630,-0.064,0.463,-58.594,-21.667,-17.578
0.615,-0.077,0.438,-55.542,-28.320,-19.897
0.612,-0.086,0.428,-51.941,-33.447,-23.682
0.617,-0.098,0.417,-46.936,-36.194,-27.405
0.607,-0.129,0.401,-41.565,-38.025,-31.189
0.646,-0.172,0.413,-36.865,-37.537,-33.813
0.678,-0.206,0.433,-34.790,-35.400,-32.410
0.694,-0.226,0.447,-34.851,-33.203,-27.649
0.682,-0.238,0.444,-35.645,-30.457,-23.071
0.673,-0.242,0.458,-36.621,-25.452,-19.775
0.672,-0.246,0.469,-38.086,-19.287,-16.052

1.050,-0.461,1.346,-34.241,-87.830,60.181
1.130,-0.618,1.391,-61.829,-116.211,63.599
1.042,-0.790,1.422,-79.224,-148.315,53.711
0.915,-0.878,1.424,-82.642,-172.791,35.828
0.816,-0.837,1.551,-73.792,-182.617,16.846
0.709,-1.049,1.624,-51.697,-182.434,6.836
0.655,-1.188,1.757,-26.184,-175.781,-6.714
0.613,-1.374,1.844,-0.427,-164.429,-18.555
0.656,-1.638,1.968,23.193,-149.658,-32.227
0.752,-1.914,2.079,34.119,-134.094,-47.424
0.796,-2.114,2.061,23.560,-121.338,-51.636
0.839,-2.122,1.991,-3.540,-109.863,-44.495
0.895,-1.916,1.883,-32.349,-98.877,-37.231
0.953,-1.708,1.755,-48.706,-90.942,-38.208
0.996,-1.462,1.672,-50.781,-84.412,-49.683
0.883,-1.301,1.520,-39.917,-78.491,-63.171
0.805,-1.341,1.471,-21.851,-63.538,-71.533
0.818,-1.219,1.484,-3.540,-41.443,-77.820
0.843,-1.213,1.401,14.954,-20.813,-71.228
0.868,-1.235,1.321,29.907,-1.892,-62.439
0.859,-1.325,1.222,40.466,15.259,-59.692
0.847,-1.472,1.091,46.936,28.564,-60.547
0.791,-1.537,0.905,46.326,35.583,-61.890
0.720,-1.672,0.777,37.231,37.415,-60.852
0.660,-1.836,0.680,21.545,35.889,-54.016
0.540,-1.839,0.561,-3.113,31.799,-33.691
0.441,-1.606,0.494,-29.175,27.954,-5.371
0.363,-1.339,0.447,-44.495,22.583,22.339
0.264,-1.091,0.452,-43.762,15.686,41.931
0.201,-1.079,0.383,-30.212,9.766,58.044
0.156,-1.052,0.330,-15.503,9.460,59.570
0.182,-0.949,0.462,-2.441,15.930,48.889
0.303,-0.970,0.555,12.329,20.508,44.006
0.435,-1.006,0.653,22.461,22.888,39.307
0.531,-1.012,0.805,22.400,24.109,36.804
0.615,-0.963,0.903,15.564,23.071,38.208
0.677,-0.856,0.996,3.845,20.935,41.626
0.712,-0.755,1.075,-4.883,15.930,46.875
0.741,-0.674,1.101,-8.362,8.667,51.819
0.771,-0.625,1.109,-6.042,0.061,55.908
0.737,-0.573,1.041,1.221,-9.583,59.570
0.663,-0.484,0.993,12.024,-14.160,61.584
0.600,-0.397,0.967,26.733,-9.460,62.805
0.562,-0.348,0.984,46.021,3.723,61.035
0.547,-0.358,1.040,67.444,22.034,56.396
0.585,-0.502,1.135,86.182,40.344,49.927
0.639,-0.712,1.177,95.154,55.237,44.067
0.672,-0.739,1.234,88.257,64.087,41.382
0.715,-0.664,1.309,71.411,64.636,42.236
0.736,-0.550,1.330,55.664,53.955,42.603
0.725,-0.434,1.342,45.715,35.095,40.466
0.637,-0.444,1.234,42.969,13.489,34.668
0.550,-0.420,1.217,43.091,0.549,24.170
0.476,-0.459,1.128,44.617,-3.479,13.489
0.396,-0.382,1.098,45.654,3.174,0.122
0.384,-0.378,1.029,48.828,16.907,-10.071
0.419,-0.402,1.025,53.650,34.546,-21.973
0.486,-0.444,0.993,57.495,53.345,-31.372
0.503,-0.463,0.926,58.105,70.129,-36.743
0.526,-0.367,0.953,54.443,85.632,-37.048
0.611,-0.288,0.963,51.453,91.675,-29.724
0.636,-0.270,0.933,51.575,86.914,-21.729
0.590,-0.235,0.937,52.490,77.271,-16.418
0.599,-0.252,0.938,55.969,65.308,-13.855
0.548,-0.247,0.907,62.744,52.917,-19.958
0.490,-0.192,0.885,70.862,46.082,-27.832
0.488,-0.357,0.822,80.078,44.006,-31.555
0.423,-0.310,0.789,86.914,48.157,-41.992
0.466,-0.350,0.798,92.834,60.486,-47.974
0.511,-0.357,0.793,97.595,69.214,-54.504
0.587,-0.379,0.823,99.182,76.904,-54.993
0.665,-0.438,0.833,95.154,80.322,-46.631
0.676,-0.418,0.827,85.388,76.904,-34.668
0.670,-0.416,0.810,72.510,68.909,-19.226
0.656,-0.427,0.789,58.777,57.922,-7.812
0.734,-0.294,0.852,45.654,45.837,-4.333
0.492,-0.476,0.677,36.377,29.236,-3.479
0.541,-0.337,0.710,21.118,19.836,-13.123
0.473,-0.308,0.677,11.841,15.076,-20.569
0.448,-0.253,0.625,5.310,7.324,-28.442
0.504,-0.229,0.717,0.549,4.395,-31.067
0.511,-0.250,0.576,-0.061,-3.418,-32.471
0.391,-0.185,0.565,-1.831,-5.188,-38.574
0.371,-0.134,0.570,-1.770,-1.770,-39.734
0.363,-0.117,0.611,0.488,4.150,-36.255
0.369,-0.155,0.555,3.052,8.972,-29.541
0.376,-0.134,0.546,2.380,14.954,-25.208
0.328,-0.146,0.519,0.061,21.729,-20.630
0.297,-0.138,0.484,-3.967,29.114,-18.677
0.300,-0.150,0.488,-8.911,39.307,-19.104
0.327,-0.170,0.480,-13.489,51.575,-20.935
0.388,-0.191,0.498,-18.433,62.744,-22.095
0.452,-0.234,0.499,-23.132,70.313,-22.522
0.508,-0.251,0.518,-27.405,76.965,-23.010
0.662,-0.190,0.630,-30.029,82.458,-20.447
0.663,-0.304,0.565,-28.931,81.848,-10.559
0.712,-0.319,0.623,-31.372,84.290,-1.160
0.732,-0.262,0.626,-34.790,86.243,12.695
0.811,-0.268,0.662,-39.551,85.144,29.114
0.672,-0.326,0.615,-45.227,77.515,42.236
0.717,-0.404,0.587,-54.199,71.106,48.218
0.736,-0.435,0.548,-66.040,66.223,44.250
0.718,-0.393,0.528,-78.552,60.059,31.128
0.700,-0.353,0.482,-88.684,52.002,15.625
0.742,-0.323,0.486,-95.642,43.701,3.052
0.770,-0.311,0.446,-97.290,32.715,-2.563
0.754,-0.326,0.405,-96.802,21.667,-7.507
0.752,-0.242,0.383,-95.032,13.245,-11.414
0.765,-0.148,0.385,-89.478,7.263,-9.216
0.779,-0.156,0.378,-78.125,1.587,-1.892
0.790,-0.193,0.361,-65.735,-2.380,3.479
0.769,-0.171,0.352,-55.298,-3.479,5.310
0.756,-0.146,0.358,-47.119,-1.831,7.690
0.743,-0.160,0.339,-40.894,-0.671,10.986
0.704,-0.183,0.303,-37.720,-0.549,11.414
0.643,-0.127,0.277,-38.574,0.244,9.644
0.612,-0.092,0.255,-40.710,1.404,9.583
0.629,-0.074,0.245,-41.992,2.869,8.057
0.610,-0.095,0.232,-42.542,4.700,5.188

0.865,1.104,0.738,-4.211,-46.326,29.175
0.858,1.093,0.736,-8.118,-58.044,45.288
0.788,1.088,0.701,-16.602,-67.139,55.786
0.662,1.087,0.684,-26.489,-70.862,58.716
0.500,1.157,0.732,-34.241,-61.707,54.382
0.459,1.161,0.749,-39.124,-38.391,46.204
0.533,1.137,0.762,-44.189,-6.897,36.011
0.713,1.122,0.821,-49.866,28.076,25.024
0.996,1.032,0.885,-57.861,59.509,20.813
1.328,0.924,0.965,-69.763,79.529,24.414
1.619,0.863,1.044,-87.097,83.252,41.504
1.833,0.852,1.094,-106.750,67.688,76.294
1.916,0.873,1.098,-123.230,33.691,118.103
1.825,0.848,1.034,-130.127,-10.986,152.710
1.630,0.828,0.923,-125.977,-55.908,169.373
1.334,0.835,0.820,-112.183,-91.553,162.964
1.046,0.792,0.772,-88.257,-114.319,137.512
0.931,0.634,0.796,-57.861,-126.648,102.966
0.915,0.374,0.875,-30.701,-135.925,68.726
0.847,-0.136,1.099,-17.029,-142.822,42.786
0.597,-0.589,1.329,-33.569,-125.793,42.053
0.811,-0.658,1.491,-72.205,-91.492,68.542
0.915,-0.704,1.593,-104.187,-67.688,96.497
0.811,-0.819,1.655,-116.272,-51.880,104.980
0.913,-0.837,1.734,-110.779,-43.945,106.689
1.020,-0.851,1.866,-90.088,-51.270,101.257
1.088,-0.934,1.876,-53.955,-75.745,86.304
1.053,-1.062,1.868,-8.728,-111.938,64.575
0.940,-1.140,1.902,37.109,-149.536,31.494
0.798,-1.377,1.920,82.581,-180.115,-1.343
0.647,-1.678,2.018,117.615,-193.359,-26.184
0.543,-1.879,2.079,137.207,-188.782,-38.208
0.526,-1.896,2.144,147.705,-173.584,-41.687
0.558,-1.868,2.175,156.921,-154.175,-44.189
0.500,-1.816,2.117,165.527,-135.132,-48.462
0.404,-1.757,1.966,168.823,-110.718,-56.396
0.325,-1.734,1.744,164.368,-74.951,-69.275
0.420,-1.833,1.512,150.696,-28.381,-83.313
0.392,-1.557,1.215,126.404,20.935,-105.286
0.450,-1.302,1.187,95.886,76.416,-114.319
0.842,-1.412,1.058,76.904,113.098,-113.403
0.960,-1.253,0.957,59.814,123.047,-124.329
0.967,-1.016,0.970,46.082,114.929,-116.638
0.836,-1.112,0.819,49.561,77.637,-79.102
0.894,-1.285,0.781,56.641,30.151,-31.677
0.688,-1.308,0.644,51.514,-10.559,2.991
0.408,-1.354,0.725,49.622,-46.692,34.119
0.295,-1.277,0.690,47.791,-77.881,50.903
0.106,-1.233,0.617,45.898,-99.121,70.190
-0.016,-1.326,0.609,39.429,-101.257,93.872
-0.076,-1.323,0.586,28.870,-94.177,96.985
-0.058,-1.203,0.629,17.090,-76.172,89.722
-0.029,-1.112,0.668,7.507,-51.392,77.209
0.073,-1.011,0.754,-0.793,-23.682,59.875
0.179,-0.779,1.019,-7.812,4.395,47.668
0.349,-0.741,1.126,-4.944,20.203,50.110
0.498,-0.682,1.219,-1.831,21.912,51.331
0.422,-0.890,1.282,1.709,16.541,56.030
0.512,-0.729,1.400,4.639,7.019,54.443
0.462,-0.943,1.283,6.287,-12.268,55.908
0.328,-0.919,1.204,2.197,-21.118,44.922
0.158,-0.790,1.097,-3.906,-12.634,32.043
0.142,-0.655,1.063,-5.859,9.705,22.400
0.271,-0.579,1.042,-1.343,37.537,12.451
0.347,-0.476,1.074,6.653,61.279,3.113
0.460,-0.374,1.090,16.602,77.148,1.465
0.591,-0.327,1.153,27.649,83.435,6.958
0.725,-0.297,1.207,41.809,78.796,16.174
0.725,-0.224,1.179,56.763,64.819,23.193
0.674,-0.286,1.192,72.144,51.514,31.921
0.655,-0.439,1.202,87.280,42.358,34.668
0.609,-0.470,1.210,95.703,34.973,32.776
0.578,-0.589,1.216,96.619,33.081,30.151
0.551,-0.521,1.188,87.158,34.180,21.912
0.461,-0.568,1.116,75.012,37.231,26.062
0.506,-0.435,1.194,63.232,45.715,27.954
0.504,-0.554,1.078,58.777,49.377,29.053
0.559,-0.296,1.260,55.786,58.228,18.311
0.583,-0.496,1.040,59.631,58.105,10.925
0.626,-0.367,1.140,57.800,55.481,-2.563
0.658,-0.368,1.063,60.669,50.720,-10.803
0.559,-0.278,1.008,65.735,42.542,-17.761
0.554,-0.293,1.056,72.876,44.189,-20.874
0.544,-0.293,1.034,83.984,43.579,-27.161
0.450,-0.319,1.053,90.393,49.011,-26.245
0.439,-0.348,1.061,92.285,59.937,-17.761
0.455,-0.407,1.036,89.844,72.021,-7.568
0.512,-0.456,1.028,82.520,83.557,0.610
0.597,-0.461,1.036,72.266,91.797,4.578
0.664,-0.456,1.054,60.181,94.177,4.883
0.755,-0.436,1.039,46.814,90.027,3.662
0.754,-0.417,1.005,33.447,79.041,0.732
0.691,-0.324,0.965,21.423,65.491,-4.272
0.656,-0.248,0.925,14.160,52.734,-8.118
0.612,-0.227,0.887,12.146,41.931,-11.475
0.535,-0.221,0.868,12.939,35.217,-15.442
0.470,-0.197,0.855,15.686,33.447,-18.433
0.471,-0.019,0.964,20.325,38.330,-16.541
0.560,-0.228,0.809,28.931,44.006,-6.714
0.420,-0.188,0.811,31.555,47.852,-13.062
0.450,-0.185,0.835,30.579,54.749,-7.690
0.391,-0.237,0.768,26.550,58.533,1.953
0.351,-0.354,0.692,19.043,64.941,10.498
0.340,-0.416,0.684,7.446,77.515,6.836
0.334,-0.292,0.699,-4.639,90.088,-3.296
0.451,-0.168,0.796,-12.451,97.961,-10.498
0.515,-0.362,0.730,-17.700,90.210,-13.306
0.499,-0.311,0.688,-29.846,78.430,-25.757
0.443,-0.279,0.662,-41.748,69.031,-27.893
0.391,-0.289,0.600,-53.467,59.082,-26.428
0.367,-0.298,0.599,-61.584,55.420,-22.461
0.359,-0.106,0.654,-66.223,58.777,-20.386
0.418,-0.160,0.557,-62.622,59.265,-9.521
0.469,-0.144,0.579,-57.495,56.335,-9.338
0.427,-0.134,0.569,-52.429,51.758,-6.653
0.450,-0.104,0.546,-49.805,41.809,-4.211
0.407,-0.116,0.482,-48.645,30.212,-1.831
0.357,-0.120,0.400,-50.415,18.799,-1.343
0.333,-0.173,0.355,-57.068,13.611,0.183

0.896,0.664,1.201,-20.996,-81.909,76.660
0.915,0.718,1.250,-47.729,-79.407,77.942
0.903,0.781,1.262,-70.862,-74.768,73.303
0.949,0.871,1.269,-87.280,-63.416,66.223
1.068,0.920,1.293,-96.436,-47.302,61.768
1.193,0.937,1.301,-100.769,-32.410,61.523
1.322,0.930,1.328,-102.844,-22.339,65.613
1.457,0.839,1.358,-103.210,-21.606,72.449
1.516,0.712,1.343,-102.417,-34.363,77.759
1.485,0.580,1.297,-100.647,-57.190,78.308
1.411,0.445,1.257,-97.107,-80.933,76.904
1.331,0.320,1.211,-92.957,-101.196,76.843
1.206,0.200,1.149,-86.792,-118.713,76.233
1.030,0.089,1.097,-77.454,-131.714,73.181
0.889,-0.047,1.069,-63.171,-139.160,66.895
0.703,-0.359,1.119,-46.509,-140.076,59.265
0.379,-0.679,1.200,-39.795,-122.925,58.105
0.336,-0.914,1.362,-47.119,-84.106,72.632
0.539,-1.131,1.594,-58.838,-45.410,96.436
0.692,-1.336,1.773,-70.862,-27.954,110.168
0.825,-1.464,1.852,-84.473,-35.156,108.032
0.918,-1.458,1.771,-94.543,-61.157,90.027
0.896,-1.329,1.649,-94.116,-92.957,63.354
0.776,-1.214,1.584,-81.299,-122.742,40.588
0.688,-1.090,1.564,-54.382,-145.203,22.888
0.591,-0.941,1.577,-13.123,-157.776,7.080
0.450,-0.943,1.603,42.114,-163.147,-6.531
0.274,-1.146,1.554,104.004,-163.696,-19.104
0.036,-1.472,1.422,159.363,-155.334,-36.621
-0.122,-1.823,1.246,199.768,-129.150,-61.401
-0.168,-2.151,1.054,222.595,-83.923,-92.896
-0.140,-2.366,0.871,227.966,-21.179,-129.456
-0.028,-2.419,0.803,217.468,51.392,-163.696
0.214,-2.298,0.873,199.036,116.943,-184.265
0.506,-2.091,0.954,181.091,155.029,-184.448
0.753,-1.915,1.052,164.978,161.682,-164.673
0.894,-1.793,1.139,150.574,137.817,-131.897
0.885,-1.782,1.165,136.353,90.454,-89.966
0.709,-1.887,1.095,116.577,31.128,-42.297
0.450,-2.010,0.978,87.097,-24.780,4.089
0.178,-1.993,0.828,51.025,-68.298,41.626
-0.079,-1.890,0.667,18.250,-93.994,66.101
-0.308,-1.755,0.568,-4.822,-99.854,75.562
-0.461,-1.633,0.500,-17.273,-90.454,73.303
-0.495,-1.646,0.493,-22.034,-69.885,64.697
-0.397,-1.539,0.534,-26.611,-47.974,51.025
-0.234,-1.477,0.611,-30.090,-32.837,42.786
-0.135,-1.404,0.611,-33.203,-25.574,30.518
-0.045,-1.200,0.700,-36.743,-17.578,16.968
0.087,-0.874,0.773,-37.842,-9.766,5.676
0.068,-1.191,0.855,-28.198,-1.770,10.864
0.206,-0.908,0.878,-21.179,6.592,-1.648
0.215,-0.799,0.954,-14.221,14.771,2.869
0.297,-0.890,1.041,-1.221,26.367,10.010
0.385,-0.928,1.049,10.986,36.316,10.437
0.547,-1.030,1.176,17.517,49.438,11.047
0.724,-1.104,1.189,17.090,53.833,16.968
0.835,-0.945,1.302,8.728,50.354,27.710
0.950,-0.799,1.411,2.930,34.241,48.401
0.928,-0.731,1.461,5.920,5.432,68.115
0.798,-0.752,1.453,12.634,-24.536,80.261
0.612,-0.819,1.398,17.944,-47.302,85.754
0.425,-0.892,1.325,18.860,-54.871,82.275
0.289,-0.907,1.238,15.442,-45.654,69.397
0.223,-0.870,1.149,9.827,-22.888,51.636
0.208,-0.778,1.101,5.188,7.324,32.715
0.255,-0.686,1.054,3.723,38.513,15.808
0.315,-0.589,1.038,5.920,66.650,1.831
0.408,-0.508,1.096,12.573,86.975,-6.653
0.508,-0.508,1.153,23.560,95.703,-8.484
0.573,-0.525,1.201,34.119,94.666,-5.127
0.633,-0.556,1.252,41.931,87.158,2.380
0.661,-0.583,1.261,45.715,73.669,12.024
0.612,-0.603,1.216,46.204,58.594,19.409
0.522,-0.601,1.143,44.800,48.767,22.217
0.452,-0.595,1.080,43.335,47.485,21.729
0.397,-0.587,1.036,42.480,54.932,20.264
0.407,-0.512,1.044,45.105,69.397,25.269
0.508,-0.663,0.954,51.025,81.909,28.137
0.512,-0.453,0.957,50.232,93.323,11.658
0.502,-0.465,0.931,54.443,102.966,13.184
0.618,-0.487,0.965,58.716,108.826,8.667
0.621,-0.443,0.947,60.852,108.337,5.066
0.633,-0.463,0.959,60.791,104.309,6.592
0.681,-0.528,0.967,54.688,97.961,8.850
0.660,-0.460,0.947,42.664,89.355,10.620
0.620,-0.464,0.950,27.527,82.458,13.611
0.588,-0.423,0.919,10.559,73.914,8.789
0.521,-0.371,0.861,-6.836,66.956,0.183
0.468,-0.310,0.804,-23.010,64.209,-8.911
0.419,-0.257,0.744,-37.292,64.453,-16.235
0.380,-0.092,0.676,-48.035,67.627,-21.729
0.366,-0.202,0.675,-53.284,75.989,-25.024
0.374,-0.052,0.613,-56.946,83.008,-33.691
0.322,-0.040,0.540,-56.030,88.989,-34.119
0.356,-0.043,0.563,-55.298,99.792,-36.072
0.307,-0.007,0.487,-53.650,106.689,-37.292
0.340,0.055,0.525,-52.002,115.906,-36.499
0.402,-0.020,0.493,-48.096,121.582,-33.691
0.422,0.005,0.513,-46.204,125.793,-36.682
0.531,0.009,0.532,-44.556,125.366,-35.522
0.651,0.020,0.574,-42.480,114.868,-32.104
0.685,0.045,0.609,-41.809,93.750,-25.391
0.658,0.018,0.566,-42.053,64.941,-13.245
0.590,-0.011,0.505,-43.701,37.964,-1.953
0.541,-0.013,0.455,-46.143,18.188,8.972
0.487,0.011,0.418,-46.936,4.944,15.137
0.421,0.027,0.393,-44.556,-2.136,16.052
0.352,0.022,0.354,-41.565,-2.502,15.198
0.284,0.019,0.309,-39.001,4.150,15.076
0.222,0.025,0.251,-37.109,17.273,15.686
0.193,0.015,0.221,-35.706,36.316,16.541
0.253,0.034,0.219,-34.119,56.885,13.184
0.313,0.037,0.253,-31.921,75.439,8.789
0.413,0.003,0.299,-29.114,86.731,6.287
0.514,-0.031,0.333,-26.794,90.698,5.249
0.577,-0.065,0.362,-25.818,86.243,5.188
0.653,-0.076,0.398,-27.771,75.867,8.179
0.764,-0.020,0.454,-30.396,59.570,13.245

1.390,0.853,0.796,-24.597,18.921,61.218
1.559,0.792,0.873,-25.757,24.170,87.585
1.624,0.732,0.922,-31.982,12.939,109.436
1.576,0.684,0.939,-40.955,-12.024,125.854
1.436,0.644,0.872,-50.781,-45.044,136.047
1.254,0.621,0.725,-59.265,-76.782,138.428
1.055,0.636,0.567,-63.965,-98.267,133.789
0.905,0.686,0.461,-61.340,-107.483,124.390
0.794,0.742,0.401,-49.988,-105.835,113.464
0.776,0.783,0.376,-31.677,-96.252,104.370
0.827,0.757,0.407,-8.240,-84.473,98.083
0.867,0.634,0.518,17.517,-74.036,94.421
0.952,0.484,0.665,40.100,-69.580,96.558
1.004,0.250,0.821,58.472,-76.111,101.135
1.007,-0.011,0.961,69.641,-93.506,105.530
0.940,-0.221,1.082,69.397,-122.620,105.408
0.731,-0.424,1.127,62.378,-159.912,94.299
0.480,-0.530,1.126,52.246,-189.758,71.777
0.218,-0.732,1.085,46.448,-198.425,40.771
0.120,-0.758,1.148,46.936,-182.983,5.188
0.024,-1.172,1.189,48.767,-149.353,-12.939
0.105,-1.344,1.272,42.236,-105.835,-29.907
0.219,-1.580,1.386,31.250,-62.134,-32.654
0.505,-1.938,1.447,20.569,-26.611,-25.146
0.704,-2.131,1.485,10.193,-11.353,-23.743
0.899,-2.195,1.541,4.089,-12.634,-27.954
0.998,-2.114,1.549,14.221,-31.555,-41.199
1.062,-2.018,1.521,42.969,-57.861,-56.213
1.088,-1.944,1.506,87.219,-82.886,-71.350
1.038,-1.880,1.469,140.625,-102.417,-87.769
0.959,-1.871,1.401,193.909,-113.586,-100.037
0.795,-1.896,1.330,236.389,-112.244,-106.445
0.685,-2.024,1.258,263.855,-95.764,-106.628
0.699,-2.178,1.178,272.339,-67.993,-105.957
0.725,-2.271,1.100,258.545,-35.950,-108.521
0.774,-1.943,1.202,225.403,-5.432,-108.582
0.894,-1.976,1.022,190.186,11.658,-98.145
0.849,-1.729,1.074,146.423,22.949,-102.722
0.744,-1.630,0.984,110.596,27.283,-91.675
0.668,-1.552,0.876,77.332,27.710,-75.012
0.475,-1.515,0.771,47.058,34.180,-48.035
0.231,-1.605,0.660,20.569,41.565,-17.517
0.118,-1.555,0.492,-3.784,52.429,5.676
0.086,-1.568,0.491,-20.752,72.266,30.029
0.051,-1.573,0.421,-33.752,87.463,46.326
0.083,-1.533,0.419,-44.861,98.022,55.176
0.167,-1.529,0.521,-51.758,102.295,58.960
0.285,-1.463,0.609,-54.565,93.811,57.922
0.385,-1.441,0.694,-56.091,76.233,63.293
0.475,-1.479,0.724,-60.730,50.415,71.655
0.489,-1.451,0.761,-71.411,24.170,78.308
0.458,-1.330,0.830,-82.520,2.563,83.984
0.384,-1.225,0.843,-86.182,-11.414,86.426
0.250,-1.122,0.843,-80.994,-11.414,81.360
0.133,-0.950,0.860,-68.970,5.249,73.730
0.201,-1.044,0.799,-51.025,34.729,67.505
0.140,-0.961,0.837,-38.940,71.228,47.363
0.333,-0.940,0.917,-26.611,110.229,37.964
0.531,-0.898,0.999,-14.343,136.597,32.227
0.811,-0.845,1.106,-4.578,146.912,35.706
0.945,-0.874,1.146,4.333,132.629,45.349
1.008,-0.798,1.181,11.902,104.431,51.331
0.981,-0.810,1.144,20.386,67.261,55.115
0.854,-0.822,1.072,26.672,34.668,54.077
0.706,-0.833,1.005,30.762,15.015,49.805
0.589,-0.794,0.930,33.691,10.193,38.757
0.538,-0.734,0.892,36.194,19.958,24.231
0.541,-0.695,0.864,38.330,39.124,10.620
0.619,-0.636,0.872,38.513,62.073,2.869
0.703,-0.559,0.888,37.292,81.604,3.723
0.745,-0.472,0.883,36.926,93.506,9.155
0.796,-0.391,0.889,39.551,97.290,15.259
0.841,-0.359,0.896,47.058,92.346,18.982
0.837,-0.378,0.893,57.922,80.017,16.479
0.815,-0.405,0.893,68.787,63.965,7.996
0.769,-0.038,0.686,78.735,47.363,-2.869
0.733,-0.772,1.003,85.510,38.086,-5.920
0.693,-0.502,0.769,91.980,22.705,-28.625
0.672,-0.408,0.833,83.984,20.020,-34.241
0.755,-0.573,0.864,73.425,18.005,-35.706
0.654,-0.466,0.758,58.105,14.343,-37.903
0.649,-0.419,0.820,40.161,20.691,-33.325
0.693,-0.392,0.805,25.146,24.170,-31.006
0.682,-0.354,0.743,14.404,28.748,-33.691
0.640,-0.291,0.751,5.615,36.560,-38.879
0.603,-0.228,0.689,0.488,42.969,-43.213
0.589,-0.173,0.661,-2.747,50.049,-45.837
0.564,-0.135,0.635,-3.357,57.007,-48.767
0.526,-0.092,0.596,-2.380,61.951,-50.781
0.512,-0.075,0.581,0.610,65.918,-50.720
0.511,-0.082,0.569,5.127,69.092,-51.880
0.534,-0.066,0.580,9.888,72.083,-52.979
0.506,-0.129,0.576,13.550,73.914,-51.331
0.575,-0.174,0.628,13.306,76.172,-46.448
0.575,-0.185,0.674,7.996,78.674,-36.255
0.569,-0.160,0.684,-1.892,78.613,-21.667
0.568,-0.192,0.661,-13.062,78.369,-5.615
0.659,-0.131,0.711,-24.780,77.393,2.808
0.440,-0.257,0.528,-36.438,73.792,5.127
0.484,-0.117,0.634,-50.110,81.177,7.019
0.460,-0.115,0.550,-58.655,85.327,5.798
0.398,-0.160,0.499,-65.857,89.905,3.357
0.406,-0.151,0.460,-74.768,97.412,0.183
0.433,-0.114,0.463,-83.618,105.713,1.770
0.549,-0.117,0.493,-90.332,110.413,8.423
0.613,-0.118,0.498,-94.421,106.628,12.634
0.654,-0.125,0.518,-98.633,99.121,18.433
0.725,-0.073,0.569,-102.661,87.097,27.161
0.706,-0.150,0.527,-103.394,67.627,42.053
0.718,-0.259,0.468,-105.774,47.424,51.453
0.670,-0.175,0.485,-113.586,31.250,51.880
0.503,-0.193,0.366,-117.859,17.212,54.993
0.395,-0.177,0.250,-123.657,8.423,49.988
0.291,0.095,0.206,-128.296,12.817,46.997
0.320,-0.024,0.151,-120.728,22.217,53.162
0.235,-0.432,0.036,-116.333,30.090,44.861
0.270,-0.009,0.105,-121.948,43.396,17.029
0.298,0.070,0.088,-117.371,54.565,1.709
0.336,0.018,0.083,-106.201,59.692,-9.216

0.946,0.905,0.861,-33.203,-44.739,-11.780
1.056,0.842,0.892,-9.338,-52.490,-23.193
1.227,0.658,0.984,14.954,-64.026,-20.386
1.273,0.326,1.141,26.428,-72.510,9.827
1.183,-0.140,1.276,11.841,-75.989,70.251
1.085,-0.522,1.307,-25.391,-76.660,132.019
0.962,-0.684,1.263,-72.815,-71.594,161.743
0.731,-0.638,0.976,-107.422,-65.491,151.428
0.518,-0.311,0.749,-115.356,-54.749,112.183
0.444,0.060,0.676,-93.018,-47.058,67.749
0.565,-0.017,0.771,-33.325,-54.871,36.926
0.602,-0.183,0.831,41.138,-84.290,-0.610
0.505,-0.470,0.887,109.253,-126.282,-34.607
0.543,-0.963,0.910,161.255,-169.006,-57.068
0.545,-1.585,1.082,188.965,-204.346,-71.350
0.109,-2.115,1.106,168.152,-215.149,-50.049
-0.176,-2.281,1.047,112.122,-199.768,-7.080
-0.263,-2.312,1.031,62.134,-154.053,15.869
-0.218,-2.190,1.145,41.748,-93.079,-10.498
0.038,-2.190,1.302,46.509,-35.095,-46.875
0.304,-2.296,1.381,62.012,-0.671,-70.679
0.626,-2.219,1.559,81.543,11.658,-84.351
0.916,-2.344,1.595,109.436,0.061,-82.458
1.120,-2.365,1.701,133.362,-28.137,-80.750
1.140,-2.276,1.641,150.940,-70.557,-79.895
0.985,-2.116,1.546,158.020,-108.093,-74.402
0.827,-2.082,1.370,157.043,-131.226,-60.913
0.826,-1.939,1.339,149.109,-134.949,-44.678
0.680,-1.940,1.075,137.634,-129.272,-31.738
0.490,-1.949,1.103,107.971,-100.525,-32.593
0.442,-1.792,0.961,76.599,-69.275,-35.767
0.179,-1.568,0.958,47.485,-28.931,-32.837
0.110,-1.633,0.858,24.292,8.789,-18.616
0.156,-1.624,0.759,4.089,41.443,-8.179
0.062,-1.692,0.685,-13.611,70.862,2.930
0.002,-1.698,0.595,-32.227,90.515,8.545
0.223,-1.637,0.669,-48.401,103.271,13.550
0.196,-1.551,0.753,-58.167,96.863,20.142
0.292,-1.568,0.711,-62.927,71.777,29.297
0.326,-1.455,0.714,-70.313,41.931,36.499
0.293,-1.368,0.693,-78.003,10.193,50.049
0.219,-1.347,0.678,-85.205,-15.503,68.787
0.103,-1.271,0.715,-95.154,-26.917,86.731
0.004,-1.207,0.719,-103.943,-25.085,102.356
0.019,-1.195,0.726,-109.802,-11.292,112.183
0.074,-1.102,0.757,-111.511,8.728,109.924
0.169,-0.965,0.805,-105.835,30.396,97.290
0.267,-0.873,0.840,-92.163,47.913,80.688
0.365,-0.841,0.882,-74.280,61.401,63.232
0.464,-0.851,0.948,-56.458,71.899,48.035
0.523,-0.849,0.983,-42.969,80.261,39.612
0.570,-0.807,1.018,-34.546,88.928,40.283
0.660,-0.738,1.095,-26.672,96.802,48.584
0.760,-0.690,1.183,-15.808,98.389,61.401
0.859,-0.689,1.274,-2.075,90.637,75.500
0.898,-0.728,1.325,11.719,74.707,90.088
0.872,-0.775,1.316,21.912,54.199,103.149
0.833,-0.815,1.301,27.771,36.072,111.755
0.756,-0.854,1.271,31.189,23.804,113.892
0.655,-0.889,1.237,31.494,19.775,109.253
0.573,-0.920,1.215,29.663,25.330,98.633
0.528,-0.946,1.195,25.208,39.856,82.397
0.541,-0.912,1.167,16.296,59.387,62.500
0.607,-0.804,1.155,2.747,76.660,42.847
0.720,-0.680,1.171,-10.437,86.365,29.114
0.830,-0.584,1.190,-19.104,84.656,22.583
0.877,-0.480,1.196,-20.508,72.754,20.020
0.864,-0.419,1.187,-14.038,54.932,18.982
0.792,-0.421,1.142,-3.052,38.025,18.250
0.672,-0.419,1.073,7.812,26.855,16.357
0.565,-0.415,1.007,17.212,24.231,11.658
0.465,-0.391,0.942,24.170,30.823,4.456
0.281,-0.131,0.855,28.625,44.189,-2.930
0.367,-0.426,0.808,34.546,62.988,-6.775
0.389,-0.514,0.779,31.433,81.360,-20.569
0.395,-0.374,0.759,26.123,96.619,-33.936
0.392,-0.250,0.750,18.738,105.774,-39.429
0.489,-0.243,0.693,12.268,104.065,-36.621
0.544,-0.164,0.698,5.981,96.680,-38.757
0.654,-0.199,0.726,2.747,85.815,-40.833
0.681,-0.130,0.748,-0.732,69.702,-44.556
0.669,-0.087,0.733,-4.150,50.110,-40.527
0.660,-0.029,0.726,-10.010,30.945,-32.837
0.600,0.016,0.670,-15.320,14.832,-25.024
0.315,0.079,0.679,-18.738,8.728,-18.738
0.431,0.146,0.520,-17.456,12.207,-14.832
0.236,0.252,0.474,-17.273,7.812,-21.667
0.329,0.185,0.547,-19.165,15.991,-21.851
0.283,0.193,0.448,-16.479,13.367,-24.231
0.286,0.141,0.508,-16.663,18.738,-25.269
0.443,0.254,0.632,-14.648,19.714,-26.306
0.504,0.183,0.613,-9.155,11.230,-18.982
0.473,0.091,0.642,-4.578,0.977,-12.634
0.444,0.101,0.675,-1.831,-6.409,-9.460
0.385,0.087,0.650,1.221,-12.695,-5.432
0.243,0.024,0.583,2.014,-14.893,-1.282
0.258,0.068,0.599,0.244,-11.902,1.099
0.168,0.023,0.536,-1.465,-8.301,3.113
0.108,-0.108,0.435,-5.432,-0.244,-0.122
0.027,0.021,0.477,-12.451,14.893,-11.169
0.128,-0.022,0.455,-13.855,30.212,-14.832
0.120,-0.032,0.419,-10.925,34.729,-20.935
0.150,0.021,0.420,-13.306,46.204,-30.579
0.166,-0.002,0.424,-10.498,50.415,-35.278
0.166,-0.010,0.398,-7.751,52.307,-38.391
0.210,0.012,0.423,-5.676,54.688,-36.377
0.248,0.037,0.439,-3.662,54.565,-28.503
0.263,-0.067,0.390,-0.977,49.927,-18.066
0.219,-0.072,0.394,-1.709,46.143,-14.648
0.262,-0.054,0.434,-3.967,45.044,-14.038
0.261,-0.116,0.410,-5.188,40.283,-14.038
0.230,-0.101,0.410,-9.216,35.461,-16.418
0.254,-0.057,0.420,-14.832,32.227,-16.785
0.289,-0.105,0.414,-19.287,28.442,-17.151
0.296,-0.152,0.418,-24.536,26.123,-19.348
0.308,-0.150,0.430,-30.090,26.428,-22.705
0.340,-0.156,0.460,-33.997,29.419,-26.062
0.397,-0.115,0.491,-35.706,33.142,-29.968
0.495,-0.166,0.552,-35.461,37.048,-29.541

0.705,-0.124,1.137,-75.378,-199.402,-17.334
0.230,-0.232,1.124,-92.712,-249.878,-8.545
0.089,-0.096,0.952,-95.520,-268.494,15.137
-0.165,-0.540,0.734,-85.144,-251.648,41.077
-0.454,-0.478,0.741,-78.796,-204.712,32.837
-0.370,-0.578,0.950,-56.335,-141.663,32.837
-0.009,-0.797,1.147,-26.123,-94.543,27.710
0.294,-1.062,1.425,6.958,-65.063,21.729
0.397,-1.725,1.971,38.086,-65.430,18.433
0.896,-1.662,2.046,54.871,-92.773,0.183
0.866,-1.835,1.852,64.209,-132.690,-8.362
0.432,-1.817,1.803,56.091,-177.612,-24.963
0.250,-1.821,1.850,50.415,-210.999,-32.715
0.003,-1.438,1.734,54.443,-225.708,-41.992
-0.096,-2.063,1.453,79.590,-217.285,-33.020
0.017,-2.332,1.256,81.238,-184.753,-72.693
-0.444,-1.620,1.526,72.205,-130.127,-120.117
-0.299,-1.655,1.354,94.910,-88.562,-112.488
-0.164,-2.079,1.235,111.023,-47.363,-102.234
-0.098,-2.021,1.197,105.957,-4.333,-112.061
-0.029,-1.937,1.184,97.473,32.776,-106.750
0.011,-1.941,1.040,87.769,54.138,-91.125
0.104,-1.798,1.050,69.031,69.458,-76.111
0.223,-1.800,1.010,49.805,72.998,-41.687
0.252,-1.768,1.039,26.672,60.181,-12.573
0.276,-1.743,0.965,2.747,33.386,7.996
0.182,-1.607,0.928,-21.729,2.380,23.193
0.053,-1.626,0.750,-39.368,-30.334,40.955
0.060,-1.565,0.729,-56.213,-55.725,45.654
-0.036,-1.390,0.674,-67.078,-78.613,43.579
0.012,-1.322,0.623,-67.749,-100.220,47.974
-0.002,-1.259,0.530,-64.575,-116.089,48.706
-0.131,-1.158,0.482,-60.181,-121.338,54.016
-0.136,-1.125,0.496,-54.688,-115.295,67.749
-0.182,-1.099,0.535,-47.668,-102.600,81.177
-0.228,-1.092,0.639,-39.978,-84.717,94.727
-0.247,-1.103,0.775,-32.349,-66.528,102.295
-0.292,-1.116,0.916,-24.414,-51.270,101.440
-0.381,-1.077,0.980,-16.663,-39.856,96.375
-0.303,-1.151,1.225,-10.864,-28.076,91.309
-0.268,-1.250,1.250,-7.690,-26.611,83.008
-0.299,-1.329,1.290,-11.536,-25.269,76.660
-0.318,-1.296,1.294,-22.461,-20.569,73.120
-0.354,-1.269,1.256,-33.875,-13.550,74.097
-0.372,-1.260,1.229,-45.471,-0.366,71.594
-0.389,-1.167,1.176,-53.955,15.686,65.063
-0.394,-1.096,1.091,-58.716,33.997,60.974
-0.357,-1.049,1.040,-59.326,53.894,57.129
-0.298,-0.922,1.026,-54.993,70.618,52.368
-0.217,-0.808,1.022,-43.396,81.848,49.377
-0.159,-0.752,1.005,-24.597,87.341,46.509
-0.110,-0.723,1.006,-2.625,89.966,43.030
-0.053,-0.732,1.042,19.592,89.783,39.063
0.001,-0.778,1.093,41.016,85.632,33.264
0.026,-0.880,1.170,59.204,80.017,27.161
-0.008,-1.005,1.212,65.674,77.026,26.550
-0.047,-1.085,1.206,55.420,79.163,32.471
-0.045,-1.059,1.198,33.081,85.449,40.527
-0.035,-1.037,1.194,7.690,95.764,44.128
-0.076,-0.994,1.150,-13.184,108.215,37.415
-0.097,-0.930,1.123,-26.978,124.512,24.170
-0.065,-0.822,1.090,-33.203,142.700,7.507
0.022,-0.745,1.083,-31.616,160.339,-6.714
0.105,-0.741,1.048,-25.269,174.133,-14.526
0.200,-0.657,1.089,-19.714,187.317,-19.165
0.337,-0.551,1.088,-11.597,192.993,-16.235
0.457,-0.515,1.078,-0.610,190.735,-10.193
0.542,-0.454,1.076,11.169,182.800,-5.493
0.594,-0.445,1.038,24.109,169.739,-0.610
0.566,-0.414,0.981,35.095,153.625,0.610
0.510,-0.281,0.926,41.626,138.977,1.465
0.549,-0.384,0.889,45.166,126.404,6.836
0.503,-0.326,0.797,44.250,111.755,1.587
0.565,-0.325,0.870,42.603,100.159,-2.258
0.580,-0.257,0.872,41.199,86.060,-11.536
0.590,-0.235,0.897,40.283,70.923,-17.944
0.580,-0.182,0.904,39.368,58.899,-20.752
0.430,0.221,0.959,42.236,49.988,-14.954
0.488,-0.332,0.816,50.232,45.715,2.258
0.385,-0.162,0.821,44.312,47.180,-2.747
0.269,-0.074,0.825,41.870,57.129,2.930
0.193,-0.003,0.714,39.368,63.293,8.301
0.220,-0.058,0.690,38.391,71.106,18.677
0.149,-0.075,0.651,38.208,81.665,21.851
0.182,-0.111,0.714,41.321,91.309,20.142
0.225,-0.111,0.730,47.791,94.238,14.282
0.197,-0.074,0.783,53.772,92.346,11.353
0.192,-0.107,0.802,58.777,83.618,14.282
0.200,-0.160,0.816,62.927,72.632,15.198
0.261,-0.279,0.848,63.538,61.096,15.686
0.108,-0.251,0.820,58.899,51.514,11.475
0.015,-0.212,0.563,48.462,50.720,11.353
-0.037,-0.254,0.751,35.828,55.847,15.747
-0.022,-0.289,0.631,19.714,56.152,12.512
-0.086,-0.240,0.594,4.578,68.054,5.371
-0.070,-0.255,0.629,-8.179,85.205,-1.770
-0.068,-0.281,0.576,-20.508,97.595,-9.216
-0.033,-0.290,0.580,-35.767,110.779,-17.639
0.002,-0.225,0.595,-53.528,119.019,-25.757
0.138,-0.245,0.629,-70.496,122.192,-29.358
0.193,-0.234,0.586,-85.083,117.249,-32.043
0.224,-0.236,0.569,-99.304,107.727,-36.682
0.195,-0.156,0.517,-114.258,93.384,-41.199
0.227,-0.144,0.486,-127.258,80.078,-39.001
0.213,-0.152,0.420,-141.113,68.054,-37.109
0.168,-0.154,0.350,-156.067,59.631,-34.058
0.163,-0.151,0.299,-171.692,56.335,-33.630
0.156,-0.152,0.252,-185.364,55.908,-34.546
0.171,-0.145,0.227,-195.129,58.899,-35.278
0.185,-0.134,0.219,-201.538,65.674,-36.743
0.246,-0.094,0.233,-203.247,72.815,-38.879
0.347,-0.033,0.267,-198.242,78.979,-40.405
0.436,-0.031,0.296,-185.852,81.116,-41.016
0.520,-0.027,0.331,-167.786,78.918,-41.687
0.582,0.002,0.366,-146.423,72.388,-43.396
0.668,0.010,0.399,-122.925,61.157,-42.114
0.746,0.004,0.436,-99.609,46.936,-38.025
0.765,-0.031,0.432,-77.148,29.053,-32.837
0.754,-0.075,0.421,-56.763,11.230,-28.137

0.835,-0.686,1.449,-81.909,-186.401,-16.785
0.166,-0.552,1.624,-98.694,-220.276,-25.269
0.229,-0.858,1.496,-91.919,-240.845,5.554
0.154,-0.627,1.211,-81.604,-252.869,10.986
-0.107,-0.676,1.174,-64.148,-237.244,17.029
-0.421,-1.038,1.245,-42.969,-206.177,22.766
-0.472,-1.199,1.357,-19.531,-168.701,16.907
-0.331,-1.354,1.494,5.798,-131.104,10.559
-0.225,-1.509,1.791,28.503,-99.487,1.892
0.010,-1.675,2.148,49.133,-87.524,-4.761
0.236,-1.812,2.317,59.998,-106.750,-17.212
0.189,-1.911,2.333,58.167,-143.188,-29.358
0.107,-1.769,2.156,44.128,-181.702,-37.048
0.032,-1.423,2.202,31.555,-207.581,-28.137
-0.126,-1.830,1.775,28.503,-229.065,-7.446
-0.426,-1.576,1.753,16.357,-216.980,-15.564
-0.553,-1.427,1.470,23.987,-186.707,-13.123
-0.523,-1.274,1.520,37.415,-137.329,-19.409
-0.359,-1.289,1.301,57.251,-89.294,-31.982
-0.746,-0.911,1.134,76.416,-41.931,-39.124
-0.090,-1.460,1.248,101.013,13.550,-30.273
-0.211,-1.279,1.082,115.662,40.344,-55.298
-0.221,-1.305,1.043,125.122,58.716,-50.110
-0.036,-1.439,0.996,126.587,65.186,-29.968
0.128,-1.728,0.914,117.737,58.655,-7.141
0.096,-1.726,0.982,91.919,43.640,5.676
0.137,-1.713,1.010,61.462,15.198,26.672
0.117,-1.563,1.023,26.184,-22.766,48.279
0.124,-1.626,0.936,-8.301,-61.768,66.162
-0.099,-1.374,0.912,-42.908,-99.121,68.542
-0.118,-1.244,0.817,-63.293,-129.395,81.238
-0.223,-1.142,0.751,-75.928,-151.794,84.045
-0.318,-1.003,0.704,-77.148,-160.461,87.402
-0.437,-1.000,0.632,-70.313,-156.372,88.196
-0.534,-0.982,0.604,-59.021,-137.085,84.351
-0.598,-0.999,0.599,-45.654,-103.577,80.933
-0.575,-1.024,0.651,-31.555,-61.157,75.012
-0.548,-1.079,0.711,-19.104,-18.005,67.566
-0.473,-1.124,0.781,-10.315,20.203,60.547
-0.384,-1.157,0.829,-6.348,49.438,56.641
-0.294,-1.157,0.882,-5.798,67.810,54.626
-0.218,-1.119,0.954,-6.653,75.439,53.528
-0.156,-1.081,1.020,-6.470,72.571,52.795
-0.133,-1.058,1.048,-5.188,60.547,52.246
-0.125,-1.011,1.062,-3.235,43.884,51.514
-0.144,-0.981,1.063,0.610,26.367,50.720
-0.211,-0.961,1.039,5.554,11.963,49.255
-0.236,-0.937,1.019,10.498,4.395,47.729
-0.290,-0.936,0.984,15.381,3.052,46.265
-0.340,-0.940,0.980,20.142,11.108,43.945
-0.370,-0.943,0.973,23.926,25.208,41.809
-0.373,-0.956,0.972,26.855,44.739,39.978
-0.362,-0.976,0.971,29.236,67.871,37.781
-0.336,-0.992,0.965,30.640,93.262,34.607
-0.305,-0.993,0.974,30.884,121.094,31.250
-0.329,-0.910,0.914,27.283,150.085,30.273
-0.170,-0.947,1.021,19.714,180.908,36.255
0.024,-0.944,1.058,11.230,200.012,37.659
0.176,-0.923,1.154,4.028,206.299,33.142
0.290,-0.896,1.203,-0.305,196.838,27.893
0.381,-0.842,1.272,-2.258,173.340,20.813
0.382,-0.720,1.302,-2.563,139.221,15.869
0.363,-0.690,1.231,-0.671,101.746,19.653
