aX,aY,aZ,gX,gY,gZ
0.219,-4.000,2.346,159.851,353.882,-68.665
2.329,-2.513,4.000,14.160,371.033,-90.332
2.984,-1.061,2.042,-104.309,152.161,-85.205
1.669,-1.132,0.349,-104.553,-25.146,-77.698
0.974,-1.708,-0.230,-81.238,-90.515,-63.599
1.138,-2.056,-0.568,-54.993,-134.583,-35.522
1.181,-2.108,-0.702,-28.320,-159.668,-30.396
0.809,-2.062,-0.677,-4.822,-150.208,-47.974
0.380,-2.228,-0.541,-0.244,-114.075,-51.941
0.022,-2.325,-0.059,-24.597,-57.861,-38.330
-0.273,-2.057,0.529,-51.147,-22.766,-42.786
-0.461,-1.598,0.604,-58.167,-36.865,-50.781
-0.604,-1.629,0.167,-54.810,-52.917,-37.476
-0.611,-1.783,-0.080,-50.903,-24.353,-23.376
-0.295,-1.811,-0.015,-51.758,22.644,-17.578
0.147,-1.799,0.113,-54.138,50.293,-15.015
0.323,-1.670,0.156,-59.937,51.331,-11.658
0.432,-1.576,0.247,-61.890,41.443,-6.042
0.347,-1.315,0.351,-58.167,28.076,-2.991
0.225,-1.179,0.396,-46.265,17.395,6.287
0.094,-1.130,0.339,-31.738,12.878,14.587
0.001,-1.021,0.311,-19.592,16.357,16.113
0.018,-0.969,0.343,-10.620,24.597,10.986
0.096,-0.987,0.277,-4.761,29.846,2.686
0.149,-1.003,0.248,-2.808,33.569,-4.761
0.247,-1.052,0.246,-1.343,35.828,-11.414
0.349,-1.087,0.242,-1.038,34.973,-15.625
0.461,-1.098,0.313,-0.488,30.884,-18.433
0.473,-1.092,0.322,0.000,21.179,-21.790
0.475,-1.083,0.329,2.014,10.559,-24.536
0.452,-1.097,0.394,5.310,0.366,-27.100
0.442,-1.120,0.383,7.935,-11.292,-28.992
0.436,-1.135,0.385,10.925,-23.437,-29.724
0.404,-1.173,0.359,13.733,-36.621,-28.992
0.328,-1.207,0.345,17.090,-49.011,-28.809
0.225,-1.214,0.290,20.447,-59.509,-28.503
0.138,-1.258,0.265,21.606,-64.331,-28.381
0.070,-1.300,0.231,23.254,-66.772,-28.320
0.010,-1.314,0.232,25.330,-65.796,-28.625
-0.040,-1.250,0.228,27.222,-62.500,-28.503
-0.070,-1.169,0.280,26.917,-55.725,-27.039
-0.066,-1.084,0.302,26.001,-48.096,-23.071
-0.071,-1.010,0.324,26.489,-40.283,-19.409
-0.073,-0.962,0.348,27.161,-32.349,-16.113
-0.055,-0.917,0.363,26.550,-25.024,-13.611
-0.014,-0.856,0.377,24.597,-18.677,-11.902
0.020,-0.790,0.393,23.010,-14.160,-10.681
0.037,-0.739,0.410,22.217,-10.254,-9.155
0.027,-0.696,0.393,22.461,-8.972,-6.775
0.020,-0.654,0.378,24.292,-8.728,-3.906
-0.005,-0.681,0.375,26.794,-8.545,-0.732
-0.068,-0.746,0.351,30.151,-9.216,0.671
-0.099,-0.862,0.309,33.630,-8.606,0.366
-0.094,-1.016,0.281,35.522,-3.845,-0.732
-0.055,-1.141,0.284,34.729,2.380,-3.723
0.001,-1.194,0.281,30.457,8.667,-8.240
0.033,-1.223,0.306,25.513,15.625,-11.536
0.029,-1.260,0.363,19.043,23.682,-12.390
-0.004,-1.265,0.444,10.620,30.823,-13.062
-0.020,-1.240,0.515,2.991,38.147,-17.029
0.015,-1.234,0.560,-1.953,39.795,-22.339
0.120,-1.271,0.609,-3.479,33.752,-24.902
0.231,-1.316,0.644,-3.418,19.104,-23.010
0.273,-1.299,0.636,-2.747,-2.869,-15.991
0.248,-1.259,0.603,-0.610,-27.405,-5.005
0.186,-1.180,0.578,1.953,-49.927,7.385
0.151,-1.145,0.548,5.798,-65.063,19.653
0.154,-1.144,0.495,11.169,-73.242,31.067
0.136,-1.116,0.451,15.564,-74.219,41.016
0.086,-1.093,0.420,19.714,-68.542,48.279
0.060,-1.105,0.376,21.606,-56.763,50.781
0.074,-1.117,0.323,18.860,-40.833,48.401
0.089,-1.106,0.274,12.756,-21.729,42.603
0.094,-1.082,0.242,4.395,-1.831,34.912
0.100,-1.052,0.223,-4.211,18.738,27.161
0.110,-1.023,0.211,-11.475,37.781,20.142
0.123,-0.992,0.217,-16.418,54.565,13.855
0.138,-0.952,0.222,-19.470,67.627,9.277
0.163,-0.913,0.227,-20.813,75.928,7.019
0.194,-0.883,0.235,-20.935,79.407,7.141
0.219,-0.860,0.247,-20.752,78.552,9.521
0.235,-0.842,0.249,-19.897,73.120,12.695
0.241,-0.829,0.241,-18.555,65.063,16.663
0.237,-0.816,0.231,-16.541,55.542,21.179
0.225,-0.806,0.224,-14.771,45.715,25.818
0.213,-0.802,0.220,-12.878,36.438,30.273
0.197,-0.804,0.216,-10.498,28.198,34.180
0.179,-0.800,0.208,-8.362,21.118,37.537
0.161,-0.795,0.198,-7.141,16.174,39.917
0.148,-0.790,0.190,-6.775,13.184,41.321
0.146,-0.784,0.184,-7.324,11.475,41.931
0.143,-0.776,0.176,-8.362,10.254,42.236
0.137,-0.778,0.168,-10.193,9.460,41.992
0.129,-0.788,0.156,-11.841,9.033,41.199
0.125,-0.798,0.149,-13.855,9.521,40.100
0.127,-0.810,0.144,-15.747,10.376,38.940
0.129,-0.823,0.139,-17.212,11.292,37.537
0.132,-0.829,0.134,-19.043,12.390,36.316
0.138,-0.834,0.135,-20.630,13.123,35.583
0.149,-0.847,0.141,-20.691,13.367,35.034
0.162,-0.862,0.147,-20.630,13.306,34.546
0.175,-0.867,0.156,-19.653,12.451,34.119
0.185,-0.877,0.168,-18.311,10.986,33.630
0.204,-0.902,0.188,-15.991,8.972,33.142
0.229,-0.935,0.209,-12.451,6.470,32.104
0.241,-0.957,0.224,-8.240,3.418,30.212
0.239,-0.967,0.231,-4.517,0.305,28.442
0.241,-0.976,0.236,-0.854,-2.563,27.161
0.243,-0.989,0.234,2.075,-4.944,26.428
0.243,-1.003,0.231,4.028,-7.080,26.123
0.245,-1.022,0.229,5.127,-8.240,26.123
0.244,-1.035,0.223,5.798,-8.667,26.611
0.233,-1.040,0.210,4.395,-8.728,27.527
0.222,-1.052,0.199,2.686,-7.935,29.541
0.220,-1.063,0.190,0.793,-6.531,32.898
0.220,-1.058,0.183,-1.770,-4.761,37.109
0.225,-1.041,0.187,-4.272,-2.441,41.199
0.238,-1.046,0.196,-6.165,-0.183,44.617
0.251,-1.067,0.203,-7.385,2.136,46.814

-0.266,-1.010,1.604,-90.637,41.199,-82.886
0.046,-0.307,0.686,-89.722,84.351,-59.937
0.129,-0.579,0.033,-58.533,118.652,-41.321
0.211,-1.218,0.168,-20.813,149.780,-38.147
0.652,-1.410,0.276,-9.094,146.240,-35.156
1.196,-1.566,0.244,-14.282,109.314,-31.860
1.349,-1.815,0.377,-26.367,56.946,-35.095
1.176,-1.948,0.134,-37.415,26.062,-38.086
0.906,-1.944,0.066,-43.945,13.000,-30.823
0.666,-1.887,0.010,-45.776,16.541,-41.992
0.608,-1.904,-0.015,-44.739,13.550,-46.265
0.335,-1.794,-0.051,-46.082,2.808,-30.090
0.063,-1.672,-0.013,-45.837,-2.686,-13.000
0.043,-1.875,-0.042,-40.833,-5.371,4.761
-0.004,-1.999,-0.059,-42.175,-0.366,15.381
0.015,-1.916,-0.098,-48.340,11.597,16.113
0.151,-1.976,-0.046,-54.382,25.940,20.508
0.278,-2.022,0.001,-56.641,34.546,22.156
0.427,-1.897,0.047,-50.110,35.400,20.508
0.538,-1.820,0.058,-39.856,30.762,18.311
0.598,-1.748,0.043,-27.344,21.301,11.414
0.659,-1.624,0.086,-17.029,10.864,2.808
0.647,-1.487,0.111,-10.803,-1.526,-2.563
0.520,-1.338,0.062,-6.531,-17.639,-7.080
0.362,-1.224,0.035,-4.150,-30.212,-10.010
0.203,-1.185,0.017,-2.380,-37.231,-11.963
0.099,-1.185,0.049,-1.465,-36.865,-14.343
0.079,-1.184,0.119,-1.831,-30.579,-17.456
0.037,-1.084,0.114,-2.075,-22.034,-22.217
0.105,-1.186,0.117,1.160,-11.047,-22.949
0.176,-1.186,0.144,3.540,-4.456,-26.428
0.244,-1.161,0.122,3.662,-1.343,-27.649
0.306,-1.202,0.153,4.272,0.000,-25.330
0.341,-1.186,0.166,4.211,-1.953,-22.705
0.326,-1.199,0.165,4.150,-6.592,-19.714
0.277,-1.209,0.153,4.089,-9.888,-17.578
0.242,-1.195,0.136,3.601,-9.827,-16.235
0.228,-1.169,0.129,3.479,-7.690,-15.320
0.211,-1.127,0.151,2.747,-4.700,-14.282
0.207,-1.076,0.153,0.610,-1.709,-13.489
0.241,-1.041,0.167,0.000,0.305,-13.428
0.272,-1.012,0.162,0.549,1.343,-13.916
0.291,-0.986,0.167,1.160,2.014,-14.526
0.304,-0.958,0.164,2.930,1.892,-14.893
0.301,-0.932,0.160,3.967,1.221,-14.893
0.295,-0.940,0.162,5.371,-0.061,-14.221
0.269,-0.879,0.156,6.897,-2.014,-14.099
0.219,-0.900,0.180,8.179,-2.441,-11.719
0.211,-0.925,0.192,9.705,-2.502,-10.986
0.202,-0.906,0.176,10.803,-3.418,-12.695
0.190,-0.969,0.151,11.230,-2.747,-13.367
0.189,-1.016,0.140,12.268,-0.732,-15.015
0.213,-1.023,0.136,12.085,1.099,-17.456
0.246,-1.011,0.130,11.658,2.014,-19.348
0.270,-1.011,0.134,11.230,1.831,-20.569
0.295,-1.007,0.137,10.498,-0.488,-21.545
0.312,-1.001,0.152,8.911,-4.883,-21.484
0.309,-0.990,0.164,7.385,-10.986,-20.752
0.289,-0.959,0.163,6.104,-18.005,-20.447
0.252,-0.918,0.176,5.249,-24.109,-19.714
0.195,-0.880,0.193,5.798,-28.931,-18.250
0.123,-0.865,0.198,7.690,-32.349,-16.541
0.056,-0.884,0.196,10.498,-33.264,-14.221
-0.017,-0.908,0.156,13.733,-31.555,-11.292
-0.071,-0.926,0.148,16.785,-27.344,-9.033
-0.092,-0.983,0.144,20.386,-21.973,-7.935
-0.067,-1.067,0.137,24.780,-15.869,-7.324
-0.016,-1.134,0.143,28.320,-9.766,-6.714
0.051,-1.175,0.173,31.189,-5.249,-5.981
0.138,-1.212,0.219,36.133,-3.906,-5.920
0.191,-1.276,0.256,40.955,-7.080,-5.432
0.228,-1.314,0.321,44.373,-11.902,-6.165
0.258,-1.398,0.378,49.683,-19.775,-6.470
0.299,-1.511,0.396,54.688,-30.823,-5.676
0.346,-1.583,0.388,56.946,-44.861,-5.249
0.349,-1.583,0.352,56.458,-60.547,-5.554
0.318,-1.511,0.336,50.720,-72.998,-7.080
0.288,-1.440,0.296,42.236,-79.590,-8.179
0.284,-1.386,0.229,33.081,-81.299,-7.141
0.258,-1.332,0.164,22.339,-77.759,-5.310
0.208,-1.284,0.125,10.742,-67.261,-3.662
0.167,-1.246,0.109,-0.793,-50.842,-2.991
0.153,-1.207,0.103,-12.207,-31.372,-2.197
0.156,-1.172,0.101,-23.071,-11.230,-0.366
0.162,-1.138,0.094,-32.776,7.324,2.258
0.171,-1.109,0.088,-41.077,24.353,5.676
0.182,-1.086,0.084,-46.570,39.124,9.888
0.198,-1.066,0.082,-49.622,51.331,14.587
0.212,-1.046,0.081,-50.476,60.913,19.226
0.222,-1.026,0.081,-49.744,67.444,23.315
0.229,-1.003,0.083,-47.729,71.594,26.978
0.234,-0.992,0.085,-45.654,73.486,30.396
0.238,-0.977,0.090,-43.213,73.425,33.508
0.239,-0.961,0.091,-40.894,71.533,36.133
0.237,-0.949,0.091,-39.124,68.298,38.330
0.230,-0.942,0.088,-37.659,64.331,40.100
0.220,-0.936,0.085,-35.950,59.692,41.626
0.214,-0.934,0.083,-34.851,55.237,43.152
0.211,-0.934,0.080,-33.875,50.049,44.128
0.209,-0.931,0.079,-32.654,44.739,44.495
0.207,-0.925,0.077,-31.494,39.185,44.617
0.203,-0.913,0.075,-30.334,33.936,44.312
0.201,-0.896,0.072,-29.114,28.931,43.762
0.210,-0.876,0.071,-28.503,24.231,43.091
0.216,-0.861,0.074,-27.527,19.348,41.931
0.213,-0.849,0.072,-27.161,14.709,40.894
0.209,-0.844,0.074,-26.611,10.681,39.978
0.209,-0.848,0.078,-26.001,7.263,38.940
0.215,-0.854,0.085,-25.024,4.456,37.720
0.223,-0.855,0.093,-24.170,2.136,36.377
0.228,-0.857,0.099,-23.254,-0.305,35.095
0.229,-0.865,0.102,-22.034,-2.136,33.875
0.225,-0.868,0.104,-21.484,-3.784,32.715
0.221,-0.857,0.105,-21.667,-4.639,31.982
0.216,-0.846,0.104,-21.729,-4.761,31.677
0.214,-0.833,0.104,-22.461,-4.333,32.043
0.212,-0.820,0.102,-22.949,-3.418,33.081
0.210,-0.811,0.100,-23.682,-2.258,34.546
0.209,-0.809,0.098,-24.414,-0.793,36.072

0.604,-2.480,3.022,-142.395,-147.766,-51.025
-0.237,-0.391,0.989,-244.324,-76.904,-22.583
-0.342,0.104,0.477,-206.543,10.376,2.441
-0.305,-0.705,0.514,-118.347,98.145,3.906
-0.096,-1.202,0.493,-30.518,149.841,-21.973
0.618,-1.370,0.310,14.343,136.292,-28.198
0.824,-1.810,0.275,11.841,81.604,-35.095
0.694,-2.145,0.027,-18.005,27.649,-50.110
0.776,-2.356,-0.465,-40.161,6.470,-44.006
0.775,-2.466,-0.043,-39.978,24.170,-38.696
0.578,-2.482,0.203,-39.734,40.955,-70.374
0.619,-2.549,0.120,-47.424,41.138,-69.397
0.512,-2.437,-0.005,-61.584,37.170,-40.588
0.472,-2.417,-0.096,-65.125,23.682,-28.992
0.486,-2.455,-0.100,-63.599,10.925,-16.846
0.416,-2.359,-0.127,-68.420,4.700,-9.033
0.302,-2.294,-0.142,-75.134,2.258,-5.005
0.212,-2.111,-0.074,-75.806,-4.272,-4.456
0.250,-1.950,0.058,-72.021,-9.521,2.930
0.251,-1.764,0.104,-63.416,-14.465,11.475
0.243,-1.594,0.100,-55.359,-18.372,16.479
0.179,-1.464,0.142,-49.133,-20.569,19.836
0.080,-1.346,0.186,-45.349,-22.949,21.118
-0.046,-1.192,0.221,-42.969,-18.250,20.569
-0.101,-1.072,0.187,-38.208,-6.653,17.639
-0.045,-1.027,0.190,-33.142,7.324,15.686
0.046,-0.963,0.190,-28.259,19.775,14.221
0.075,-0.962,0.239,-25.330,28.198,11.353
0.088,-0.859,0.299,-25.024,34.241,8.423
0.301,-0.954,0.360,-22.156,37.720,8.118
0.378,-1.000,0.327,-17.029,37.415,7.446
0.519,-1.093,0.340,-10.925,33.752,6.042
0.617,-1.140,0.277,-7.202,21.240,3.479
0.585,-1.132,0.302,-5.737,10.925,-0.427
0.558,-1.153,0.260,-5.249,1.953,-1.099
0.529,-1.130,0.242,-4.578,-6.775,-3.418
0.448,-1.133,0.227,-3.174,-13.550,-6.836
0.394,-1.169,0.211,-3.418,-17.944,-11.414
0.379,-1.155,0.218,-2.869,-20.630,-15.686
0.351,-1.149,0.211,-2.075,-20.996,-18.250
0.317,-1.136,0.214,0.549,-22.217,-19.104
0.267,-1.081,0.241,3.845,-23.376,-19.470
0.220,-1.062,0.277,7.385,-22.949,-18.127
0.154,-1.044,0.269,10.864,-21.484,-16.541
0.093,-1.038,0.254,14.282,-18.250,-15.503
0.085,-1.012,0.267,17.090,-12.634,-15.625
0.115,-0.986,0.279,19.531,-7.446,-16.479
0.185,-1.027,0.299,22.339,-3.906,-17.395
0.188,-0.995,0.298,24.292,-2.563,-20.020
0.243,-1.026,0.343,26.489,-1.526,-20.569
0.209,-0.979,0.303,29.053,-3.357,-21.973
0.243,-1.006,0.286,31.372,-5.249,-22.827
0.245,-1.000,0.272,33.752,-8.057,-25.818
0.236,-0.968,0.244,35.278,-9.155,-27.588
0.229,-0.992,0.252,37.354,-9.399,-27.283
0.226,-1.001,0.239,39.917,-10.071,-28.076
0.218,-1.021,0.213,42.114,-11.719,-28.931
0.120,-1.035,0.192,43.274,-12.329,-27.832
0.143,-1.083,0.195,44.800,-13.000,-27.039
0.130,-1.101,0.200,44.312,-14.893,-28.198
0.138,-1.092,0.196,42.908,-14.221,-29.297
0.118,-1.067,0.199,41.504,-13.123,-29.724
0.084,-1.060,0.203,40.344,-11.047,-27.832
0.052,-1.027,0.211,39.185,-8.911,-27.527
0.033,-1.038,0.218,39.917,-5.859,-26.611
-0.005,-1.050,0.175,40.894,-2.075,-25.269
-0.102,-1.048,0.125,42.236,2.686,-23.865
-0.093,-1.119,0.107,43.030,10.132,-22.034
-0.014,-1.177,0.142,42.480,18.982,-18.555
0.095,-1.204,0.216,41.138,25.818,-14.526
0.202,-1.271,0.260,40.527,25.879,-8.728
0.259,-1.396,0.325,36.804,19.714,-1.465
0.271,-1.513,0.400,28.809,12.085,5.066
0.308,-1.600,0.475,20.630,5.188,9.521
0.385,-1.654,0.509,16.357,-4.761,14.771
0.491,-1.656,0.534,12.756,-20.020,21.973
0.541,-1.663,0.478,10.254,-41.809,27.466
0.506,-1.610,0.418,5.554,-61.096,25.940
0.454,-1.517,0.368,-0.916,-71.960,20.935
0.414,-1.419,0.298,-4.517,-72.693,18.066
0.377,-1.315,0.261,-8.606,-64.026,16.418
0.324,-1.218,0.233,-15.259,-49.561,13.000
0.286,-1.137,0.205,-23.437,-31.311,8.362
0.279,-1.072,0.185,-31.982,-11.353,4.822
0.288,-1.009,0.161,-39.246,8.423,3.418
0.292,-0.939,0.141,-43.579,26.917,4.517
0.285,-0.885,0.128,-45.532,43.030,7.874
0.281,-0.849,0.115,-45.044,55.969,12.695
0.277,-0.814,0.111,-42.969,66.284,18.494
0.271,-0.789,0.110,-39.185,73.730,24.719
0.261,-0.787,0.107,-33.752,78.247,31.494
0.250,-0.792,0.098,-27.893,80.811,38.147
0.244,-0.782,0.092,-23.621,82.092,44.617
0.242,-0.752,0.087,-20.386,81.909,50.598
0.244,-0.709,0.083,-17.822,80.261,55.969
0.245,-0.672,0.085,-15.625,77.332,61.157
0.245,-0.639,0.084,-13.733,73.486,65.247
0.238,-0.610,0.085,-12.451,68.359,68.542
0.229,-0.588,0.084,-11.536,62.622,70.984
0.223,-0.585,0.083,-10.620,56.396,72.754
0.215,-0.596,0.080,-10.071,49.744,73.547
0.201,-0.612,0.080,-9.705,43.213,73.792
0.185,-0.620,0.078,-9.766,36.743,73.547
0.171,-0.609,0.079,-10.620,30.518,72.876
0.164,-0.591,0.081,-11.658,24.780,71.777
0.163,-0.580,0.084,-12.390,18.738,69.824
0.156,-0.582,0.084,-12.695,13.245,67.444
0.144,-0.580,0.083,-13.000,7.812,64.880
0.137,-0.572,0.080,-13.000,2.991,62.256
0.138,-0.567,0.081,-12.634,-1.343,59.204
0.143,-0.579,0.083,-12.146,-5.249,55.115
0.147,-0.610,0.087,-11.597,-8.606,50.232
0.152,-0.641,0.092,-10.620,-10.986,44.312
0.161,-0.661,0.102,-9.949,-13.306,38.269
0.173,-0.682,0.109,-8.728,-15.442,32.043
0.188,-0.709,0.116,-7.080,-17.212,26.550
0.208,-0.738,0.129,-5.798,-19.104,21.667
0.228,-0.769,0.143,-4.333,-20.996,17.700
0.250,-0.803,0.153,-2.991,-23.193,14.282

0.082,-1.048,2.139,-139.038,6.165,-24.902
0.128,0.329,1.414,-173.889,20.203,-26.733
-0.019,0.436,0.866,-128.113,-7.080,-19.836
-0.360,-0.038,0.404,-62.805,-11.414,-18.616
-0.314,-0.229,0.028,-18.921,2.563,-5.737
-0.081,-0.403,-0.333,-10.559,34.119,5.920
0.085,-0.770,-0.427,-17.517,69.580,2.380
0.375,-1.272,-0.193,-23.315,81.787,-15.808
0.631,-1.673,0.327,-30.945,75.867,-36.011
0.937,-1.656,0.428,-44.006,73.364,-43.091
0.539,-1.821,0.446,-59.143,67.810,-42.053
0.233,-1.844,0.197,-78.003,60.242,-55.359
0.206,-1.809,-0.049,-92.468,50.537,-53.467
0.353,-1.952,-0.024,-96.924,48.401,-38.269
0.553,-2.149,0.203,-91.614,40.955,-25.635
0.516,-2.236,0.246,-86.426,25.269,-15.198
0.413,-2.131,0.091,-83.984,16.357,-8.972
0.393,-2.099,-0.027,-83.862,11.292,-1.465
0.280,-2.080,0.005,-78.064,1.953,5.432
0.066,-1.959,0.070,-72.144,-7.935,5.981
-0.104,-1.884,-0.000,-71.594,-9.399,4.944
-0.067,-1.841,0.084,-70.679,0.549,10.559
-0.048,-1.772,0.130,-68.848,8.545,12.512
0.035,-1.713,0.144,-66.223,11.719,14.343
0.157,-1.624,0.163,-63.049,14.587,15.686
0.234,-1.424,0.205,-58.655,14.160,15.991
0.240,-1.274,0.267,-52.185,9.460,19.043
0.136,-1.202,0.263,-45.593,3.357,21.973
0.008,-1.072,0.234,-42.175,2.319,23.376
-0.021,-0.930,0.281,-38.574,6.775,22.461
0.044,-0.856,0.353,-33.447,13.733,19.104
0.119,-0.874,0.388,-26.489,18.555,14.954
0.141,-0.965,0.363,-20.691,19.653,10.681
0.163,-1.019,0.343,-16.907,19.653,6.836
0.223,-1.089,0.367,-14.771,20.081,3.418
0.279,-1.094,0.373,-11.902,19.043,-1.038
0.353,-1.155,0.348,-8.545,16.418,-4.761
0.395,-1.174,0.340,-5.737,10.498,-6.470
0.390,-1.201,0.312,-3.845,2.319,-7.385
0.404,-1.198,0.312,-2.136,-4.944,-7.874
0.331,-1.152,0.307,-1.038,-12.024,-9.033
0.261,-1.095,0.304,0.549,-17.883,-10.498
0.192,-1.059,0.308,1.953,-20.630,-10.803
0.140,-1.048,0.307,4.272,-20.874,-10.864
0.081,-1.074,0.298,7.568,-20.020,-10.986
0.090,-1.079,0.302,10.315,-16.235,-11.719
0.088,-1.086,0.309,13.367,-12.756,-13.123
0.078,-1.098,0.326,15.686,-11.414,-14.038
0.087,-1.089,0.311,16.479,-9.888,-13.977
0.110,-1.091,0.304,16.846,-9.094,-13.855
0.130,-1.095,0.313,16.907,-9.399,-14.099
0.134,-1.084,0.311,16.541,-10.254,-14.709
0.147,-1.050,0.316,16.602,-11.108,-15.808
0.168,-1.005,0.309,17.334,-11.841,-17.151
0.158,-0.962,0.296,18.677,-13.062,-17.822
0.126,-0.943,0.294,20.813,-13.611,-17.883
0.110,-0.915,0.303,23.743,-12.451,-18.188
0.125,-0.894,0.307,26.672,-10.315,-18.066
0.106,-0.889,0.287,30.151,-9.644,-18.311
0.045,-0.886,0.256,33.997,-8.240,-18.311
0.106,-0.931,0.288,37.537,-4.822,-18.738
0.076,-0.973,0.261,40.222,-3.479,-18.616
0.099,-1.039,0.278,42.603,-0.732,-16.235
0.135,-1.038,0.272,43.579,-1.892,-17.578
0.170,-1.031,0.265,42.969,-3.967,-18.738
0.168,-0.991,0.258,41.016,-5.371,-19.043
0.154,-0.972,0.269,40.222,-7.019,-17.151
0.113,-0.942,0.250,40.405,-9.644,-15.686
0.054,-0.932,0.235,41.687,-11.230,-13.916
-0.008,-0.959,0.191,43.518,-10.620,-12.451
-0.068,-0.997,0.227,45.715,-7.080,-10.742
-0.054,-1.055,0.243,47.180,-4.272,-7.935
-0.052,-1.071,0.200,47.485,-4.150,-8.362
-0.063,-1.102,0.178,47.607,-1.404,-8.362
-0.040,-1.147,0.176,48.279,3.967,-7.263
-0.019,-1.179,0.181,49.622,8.911,-5.920
0.014,-1.213,0.198,52.063,10.437,-5.920
0.094,-1.239,0.232,54.382,9.216,-5.127
0.167,-1.298,0.251,55.481,4.456,-3.174
0.210,-1.323,0.282,54.932,-2.075,-0.916
0.229,-1.375,0.331,54.871,-8.118,3.479
0.253,-1.486,0.382,55.054,-15.259,9.827
0.284,-1.609,0.417,54.382,-25.696,15.381
0.287,-1.682,0.410,52.124,-37.964,17.090
0.267,-1.661,0.411,45.471,-46.387,14.587
0.269,-1.596,0.403,36.072,-51.392,10.864
0.289,-1.531,0.358,25.696,-54.443,10.498
0.284,-1.440,0.282,13.428,-54.871,11.536
0.223,-1.330,0.216,-0.244,-49.377,12.939
0.155,-1.244,0.169,-12.695,-35.095,15.625
0.119,-1.195,0.149,-24.170,-13.611,19.104
0.103,-1.148,0.139,-34.180,10.498,22.034
0.095,-1.103,0.130,-42.419,34.180,24.841
0.095,-1.074,0.115,-47.485,54.810,28.076
0.098,-1.058,0.102,-50.232,72.571,32.654
0.096,-1.049,0.094,-50.659,86.975,37.964
0.094,-1.044,0.087,-49.622,99.365,43.579
0.086,-1.026,0.074,-47.363,109.375,48.950
0.081,-0.999,0.064,-44.128,118.408,53.955
0.097,-0.965,0.062,-40.283,126.160,58.655
0.117,-0.932,0.064,-35.889,131.348,62.195
0.132,-0.908,0.065,-31.616,134.277,64.270
0.142,-0.907,0.066,-28.076,135.254,65.186
0.135,-0.913,0.053,-24.841,134.766,64.514
0.109,-0.900,0.042,-23.254,135.010,62.195
0.093,-0.872,0.024,-21.362,137.146,58.655
0.091,-0.837,0.013,-19.409,140.564,55.054
0.102,-0.797,0.007,-17.578,145.020,52.002
0.125,-0.759,0.007,-16.113,148.376,48.950
0.156,-0.730,0.011,-15.442,150.146,46.204
0.184,-0.709,0.015,-15.259,149.353,43.640
0.206,-0.693,0.019,-15.747,146.057,41.260
0.231,-0.677,0.025,-16.479,139.832,39.307
0.256,-0.657,0.032,-17.395,130.798,37.720
0.276,-0.634,0.037,-18.005,119.446,36.438
0.291,-0.622,0.041,-18.127,106.201,35.339
0.303,-0.617,0.039,-18.311,91.675,34.485
0.297,-0.608,0.030,-18.005,76.721,32.837
0.286,-0.589,0.021,-16.846,63.477,30.762

0.033,-1.190,1.873,-117.798,24.597,10.986
0.252,-0.064,1.419,-132.812,63.049,-15.015
0.363,0.122,0.592,-94.360,18.616,-34.973
0.236,0.016,0.020,-46.509,-17.334,-37.170
0.160,-0.325,-0.273,-17.395,-21.362,-11.597
0.180,-0.636,-0.143,-7.446,-8.362,10.437
0.229,-0.979,0.104,0.610,-1.770,12.146
0.304,-1.177,0.348,8.606,-8.972,-1.831
0.305,-1.257,0.325,2.319,-18.555,-10.925
0.073,-1.367,0.148,-15.198,-14.648,-8.850
-0.066,-1.481,0.026,-29.541,9.399,-7.019
-0.047,-1.407,-0.049,-35.339,38.269,-8.545
0.005,-1.515,0.046,-36.194,54.565,-7.446
0.161,-1.729,0.157,-42.297,63.171,-8.484
0.295,-1.722,0.102,-49.988,58.655,-10.803
0.418,-1.721,0.016,-55.603,57.251,-4.272
0.461,-1.915,-0.039,-54.016,53.223,1.221
0.469,-2.107,0.012,-49.744,41.199,5.798
0.542,-2.119,0.076,-56.213,30.945,11.169
0.468,-2.108,0.067,-60.425,13.794,12.268
0.420,-2.023,0.021,-58.594,-4.089,11.780
0.394,-1.975,0.019,-52.490,-16.479,15.747
0.288,-1.955,-0.004,-45.898,-26.306,18.799
0.144,-1.887,-0.026,-43.213,-33.264,19.409
0.025,-1.718,-0.023,-43.274,-33.386,17.883
-0.095,-1.532,-0.009,-40.894,-30.457,16.846
-0.200,-1.447,0.025,-35.828,-24.658,17.090
-0.259,-1.334,0.059,-29.846,-14.648,16.968
-0.243,-1.255,0.064,-23.315,-4.639,16.541
-0.196,-1.231,0.117,-16.357,5.249,16.113
-0.095,-1.223,0.172,-10.254,16.052,16.479
0.015,-1.201,0.184,-3.540,22.644,16.785
0.077,-1.242,0.161,0.916,25.574,17.822
0.146,-1.245,0.166,2.686,26.428,17.822
0.222,-1.231,0.231,3.357,26.001,16.174
0.290,-1.205,0.266,3.601,25.635,12.878
0.358,-1.181,0.265,4.578,23.499,8.911
0.417,-1.169,0.264,5.127,17.700,4.944
0.428,-1.161,0.245,5.615,8.728,1.343
0.387,-1.135,0.242,5.432,-1.282,-2.441
0.345,-1.114,0.239,5.188,-8.972,-5.859
0.277,-1.102,0.221,5.981,-14.038,-9.277
0.211,-1.100,0.213,7.446,-18.005,-11.963
0.172,-1.090,0.195,8.972,-19.958,-14.160
0.146,-1.070,0.202,10.681,-20.447,-16.174
0.113,-1.052,0.204,13.062,-21.057,-17.822
0.086,-1.045,0.203,15.381,-20.630,-18.799
0.055,-1.048,0.204,18.066,-19.287,-19.104
0.030,-1.046,0.200,20.325,-17.334,-19.653
0.026,-1.037,0.202,22.400,-13.977,-20.264
0.019,-1.033,0.197,24.658,-10.925,-20.569
0.018,-1.018,0.194,26.978,-8.789,-21.179
0.016,-1.005,0.186,29.541,-6.592,-21.362
0.005,-0.998,0.182,32.654,-4.089,-21.179
0.002,-0.984,0.183,36.438,-0.549,-20.874
0.007,-0.988,0.167,40.161,3.296,-20.264
0.000,-0.953,0.157,43.579,6.836,-19.714
0.016,-0.978,0.161,44.922,10.193,-17.273
0.004,-1.046,0.102,46.326,12.634,-14.343
0.007,-1.156,0.070,48.157,16.907,-12.207
0.047,-1.238,0.046,48.462,21.545,-10.681
0.100,-1.283,0.040,47.485,25.696,-10.864
0.164,-1.312,0.047,45.166,27.710,-12.024
0.214,-1.383,0.089,42.542,28.809,-13.733
0.217,-1.235,0.037,37.659,27.161,-18.250
0.198,-1.257,0.149,34.973,28.381,-13.733
0.216,-1.329,0.179,31.982,26.855,-11.475
0.223,-1.297,0.196,24.963,21.973,-15.259
0.203,-1.267,0.229,18.494,19.775,-14.038
0.247,-1.281,0.300,13.550,15.808,-10.315
0.305,-1.265,0.355,9.644,5.005,-6.836
0.330,-1.313,0.381,8.545,-11.841,-0.427
0.294,-1.247,0.407,8.301,-33.142,4.700
0.305,-1.274,0.411,10.376,-57.861,11.658
0.332,-1.303,0.384,13.367,-82.703,15.381
0.329,-1.285,0.365,15.076,-98.999,17.944
0.293,-1.232,0.333,16.357,-109.253,22.095
0.247,-1.239,0.319,18.066,-113.342,28.381
0.210,-1.235,0.279,18.188,-112.305,32.288
0.164,-1.235,0.234,16.968,-104.614,34.302
0.116,-1.252,0.217,13.977,-90.210,33.203
0.086,-1.254,0.214,7.874,-72.510,28.259
0.089,-1.226,0.195,-0.793,-54.199,21.423
0.100,-1.180,0.174,-10.986,-35.889,14.343
0.113,-1.127,0.162,-21.240,-17.456,8.728
0.132,-1.089,0.152,-31.006,-1.343,5.127
0.156,-1.059,0.139,-39.307,11.841,2.808
0.172,-1.033,0.128,-45.410,23.071,2.380
0.180,-1.006,0.119,-49.194,31.799,3.723
0.194,-0.989,0.113,-50.659,38.330,6.409
0.211,-0.981,0.111,-50.476,42.725,10.193
0.222,-0.973,0.106,-48.889,45.105,14.587
0.225,-0.954,0.103,-46.814,46.143,19.592
0.225,-0.937,0.097,-44.800,46.082,24.719
0.221,-0.923,0.089,-43.030,45.410,29.419
0.216,-0.901,0.084,-41.260,44.434,33.691
0.210,-0.878,0.080,-39.612,43.457,37.476
0.208,-0.866,0.080,-38.086,42.664,40.222
0.203,-0.862,0.079,-36.255,41.748,42.236
0.204,-0.872,0.086,-34.546,41.260,43.274
0.211,-0.886,0.095,-32.349,40.527,43.579
0.212,-0.872,0.098,-30.823,39.978,43.213
0.207,-0.833,0.097,-30.090,39.246,42.542
0.207,-0.795,0.088,-29.907,38.635,42.236
0.206,-0.757,0.075,-29.724,37.903,41.992
0.212,-0.746,0.067,-30.090,37.964,42.358
0.233,-0.774,0.063,-29.663,38.208,42.358
0.246,-0.812,0.066,-28.748,38.391,42.053
0.248,-0.831,0.068,-28.564,38.208,41.504
0.249,-0.828,0.074,-28.687,37.720,41.321
0.260,-0.814,0.081,-28.076,36.560,41.138
0.273,-0.789,0.087,-27.527,34.851,41.260
0.283,-0.766,0.094,-26.428,32.593,41.809
0.296,-0.771,0.098,-24.292,29.907,42.358
0.312,-0.784,0.099,-21.667,26.733,42.725
0.328,-0.805,0.103,-19.226,23.743,42.664
0.356,-0.867,0.115,-15.625,20.447,42.114
0.378,-0.931,0.124,-11.963,17.944,40.405
0.382,-0.958,0.136,-9.399,16.602,38.452

-1.560,-3.328,2.408,61.829,329.468,13.794
0.402,-3.555,3.792,-3.235,530.457,-10.986
3.132,-1.015,2.952,-99.609,416.260,-51.086
2.272,-0.182,1.111,-115.662,179.077,-44.434
0.867,-0.906,0.036,-99.426,69.092,-55.969
0.303,-1.845,-0.932,-75.745,12.024,-54.932
0.872,-1.840,-1.020,-59.204,-10.132,-47.485
1.172,-1.358,-0.286,-50.659,4.211,-39.246
0.557,-1.608,0.240,-28.442,18.494,-42.908
0.494,-2.010,0.628,-25.757,13.428,-38.879
0.287,-1.939,0.359,-53.711,-10.681,-20.935
-0.110,-1.802,0.100,-69.214,-35.583,-6.775
-0.395,-1.839,-0.109,-68.848,-35.889,0.977
-0.194,-1.823,-0.103,-53.284,-11.169,-6.714
0.119,-1.865,0.076,-32.837,16.357,-18.616
0.312,-1.901,0.101,-20.569,26.733,-28.259
0.366,-1.750,0.092,-21.179,17.761,-25.146
0.302,-1.667,0.137,-23.621,1.221,-13.245
0.207,-1.631,0.214,-20.508,-10.315,-1.892
0.113,-1.525,0.191,-17.639,-17.639,5.371
-0.003,-1.406,0.085,-16.541,-22.278,8.972
-0.121,-1.354,0.142,-15.564,-18.799,12.451
-0.193,-1.283,0.127,-13.306,-13.794,11.597
-0.224,-1.249,0.102,-10.559,-5.188,7.141
-0.156,-1.348,0.130,-7.568,5.676,2.869
-0.036,-1.395,0.202,-5.615,15.930,-1.404
0.083,-1.365,0.197,-3.784,19.836,-5.981
0.168,-1.359,0.205,-1.953,20.081,-9.155
0.266,-1.340,0.233,-0.793,17.517,-8.606
0.301,-1.321,0.243,0.183,11.230,-6.531
0.282,-1.299,0.201,0.977,2.991,-4.761
0.234,-1.245,0.192,1.404,-3.479,-4.456
0.187,-1.191,0.197,1.404,-6.897,-5.432
0.151,-1.138,0.209,2.808,-8.118,-7.629
0.148,-1.091,0.219,4.456,-7.690,-9.521
0.159,-1.041,0.221,6.348,-7.629,-10.559
0.137,-1.065,0.214,9.277,-8.423,-11.169
0.129,-1.116,0.207,11.292,-8.850,-11.414
0.134,-1.119,0.203,11.658,-8.545,-12.268
0.146,-1.101,0.210,11.414,-7.507,-13.306
0.147,-1.091,0.211,11.475,-7.812,-14.343
0.130,-1.064,0.219,11.414,-9.033,-15.259
0.111,-1.051,0.210,12.329,-9.338,-16.113
0.084,-1.031,0.189,14.099,-8.667,-16.724
0.054,-1.003,0.162,15.686,-6.836,-17.151
0.047,-0.967,0.149,17.578,-3.906,-18.005
0.023,-1.015,0.128,20.752,-0.183,-17.029
0.058,-1.054,0.124,23.254,4.456,-16.541
0.108,-1.036,0.122,25.208,7.019,-18.127
0.138,-1.020,0.119,26.428,8.606,-18.311
0.169,-1.011,0.150,27.893,10.254,-17.700
0.202,-1.001,0.186,28.809,9.766,-17.273
0.209,-0.985,0.192,29.724,6.958,-16.663
0.182,-0.990,0.207,30.396,4.272,-15.076
0.139,-0.990,0.210,31.128,1.770,-14.099
0.091,-0.991,0.204,32.104,0.000,-13.245
0.057,-0.997,0.206,32.898,-1.221,-11.719
0.044,-1.024,0.187,32.776,-2.380,-9.827
0.022,-1.039,0.164,32.471,-1.709,-9.094
0.011,-1.073,0.163,30.884,-0.183,-7.324
-0.003,-1.119,0.173,28.931,1.709,-5.981
-0.030,-1.150,0.164,27.832,3.845,-4.333
-0.041,-1.203,0.141,26.733,6.348,-3.418
-0.001,-1.235,0.165,25.452,10.437,-3.174
0.077,-1.291,0.211,25.452,13.855,-2.625
0.146,-1.360,0.219,26.672,12.329,-2.380
0.229,-1.387,0.267,28.748,7.080,-2.869
0.339,-1.417,0.368,33.325,-2.258,-2.808
0.433,-1.510,0.457,40.527,-18.860,-1.343
0.504,-1.637,0.535,48.889,-43.762,0.122
0.495,-1.811,0.497,57.373,-76.233,0.916
0.444,-1.895,0.437,58.044,-103.943,-2.625
0.410,-1.858,0.389,47.119,-121.521,-9.521
0.377,-1.775,0.315,32.288,-128.296,-15.320
0.318,-1.658,0.242,13.245,-124.756,-19.470
0.254,-1.531,0.190,-8.118,-112.000,-21.790
0.221,-1.419,0.154,-28.259,-93.567,-22.095
0.204,-1.319,0.130,-46.814,-72.693,-20.325
0.187,-1.246,0.121,-62.195,-51.758,-16.479
0.176,-1.182,0.116,-73.608,-32.227,-10.010
0.169,-1.130,0.110,-79.895,-14.771,-0.854
0.157,-1.112,0.107,-80.811,-0.610,10.437
0.141,-1.128,0.098,-76.782,11.536,22.278
0.118,-1.139,0.089,-69.946,22.156,33.752
0.098,-1.112,0.085,-61.523,31.982,44.312
0.090,-1.056,0.088,-52.368,41.138,54.016
0.091,-1.016,0.089,-42.664,49.316,62.378
0.090,-0.996,0.087,-33.630,56.519,68.726
0.098,-0.993,0.092,-24.902,62.988,73.120
0.102,-1.001,0.099,-17.029,68.481,75.439
0.102,-1.000,0.104,-10.864,72.632,76.050
0.101,-0.963,0.106,-6.592,75.378,75.684
0.115,-0.912,0.113,-3.784,77.332,74.707
0.143,-0.865,0.122,-1.343,78.308,73.364
0.169,-0.824,0.131,0.977,77.271,71.716
0.192,-0.792,0.139,2.747,74.341,70.129
0.205,-0.776,0.143,4.211,70.068,68.787
0.214,-0.764,0.141,5.432,64.148,67.749
0.227,-0.761,0.140,5.188,58.228,67.017
0.239,-0.759,0.135,4.089,51.514,66.467
0.245,-0.742,0.129,2.014,44.922,65.918
0.249,-0.724,0.121,-1.343,38.513,65.674
0.257,-0.713,0.116,-5.066,32.532,65.918
0.270,-0.711,0.114,-7.629,27.466,65.491
0.270,-0.719,0.108,-10.742,23.315,64.758
0.259,-0.721,0.105,-13.550,19.958,64.636
0.251,-0.702,0.102,-16.846,17.395,65.491
0.248,-0.691,0.106,-20.203,15.076,67.566
0.264,-0.709,0.112,-22.522,12.329,70.190
0.276,-0.737,0.117,-23.926,9.277,72.205
0.270,-0.750,0.116,-25.024,7.202,73.303
0.251,-0.736,0.112,-25.818,5.859,73.608
0.236,-0.718,0.107,-26.184,5.554,74.097
0.240,-0.727,0.103,-25.757,6.104,74.707
0.244,-0.753,0.100,-25.085,7.263,74.585
0.226,-0.767,0.096,-24.231,9.216,73.242
0.213,-0.763,0.091,-24.048,12.512,70.740
0.225,-0.765,0.089,-23.010,17.029,67.017
0.251,-0.785,0.090,-21.606,22.217,62.012

0.430,-1.668,3.328,-46.509,-41.504,-139.221
1.044,-0.389,1.233,-119.934,-35.034,-67.261
0.385,-0.837,1.665,-83.191,72.266,-60.364
0.248,-1.323,0.395,-62.012,83.191,-65.918
0.210,-1.054,-1.098,-46.326,37.598,-56.213
-0.321,-0.769,-1.365,-39.612,40.955,-76.477
-0.085,-1.073,-0.691,-34.546,55.969,-82.581
0.540,-1.689,0.289,-30.884,24.658,-64.514
0.317,-1.885,0.921,-43.579,-11.047,-61.646
-0.103,-1.859,0.612,-67.505,-7.568,-60.486
-0.068,-2.004,0.045,-78.430,19.165,-37.659
0.194,-2.058,-0.284,-72.205,26.245,-22.705
0.292,-2.162,-0.088,-61.340,25.269,-19.409
0.432,-2.288,0.008,-57.007,19.958,-24.414
0.501,-2.146,-0.042,-61.951,7.751,-21.362
0.343,-2.025,-0.069,-66.040,-7.141,-12.451
0.055,-1.934,-0.094,-63.110,-22.644,-2.258
-0.096,-1.834,-0.061,-59.204,-27.710,9.216
-0.157,-1.683,-0.039,-52.307,-25.696,17.212
-0.264,-1.495,0.035,-44.678,-20.264,19.897
-0.297,-1.417,0.119,-38.330,-10.376,21.240
-0.268,-1.299,0.116,-33.325,2.014,21.729
-0.132,-1.282,0.154,-28.503,14.893,23.743
-0.002,-1.241,0.140,-23.193,20.325,24.048
0.072,-1.318,0.117,-19.409,21.240,25.269
0.130,-1.356,0.114,-16.663,18.799,24.048
0.209,-1.316,0.128,-16.235,14.343,20.874
0.289,-1.269,0.177,-14.404,8.179,17.456
0.312,-1.216,0.197,-10.010,-2.319,13.062
0.261,-1.198,0.223,-5.859,-14.099,9.521
0.198,-1.195,0.271,-3.967,-23.376,6.836
0.122,-1.161,0.303,-2.563,-30.823,3.723
0.042,-1.129,0.288,-1.831,-34.363,0.305
-0.026,-1.096,0.281,0.000,-35.706,-2.258
-0.086,-1.074,0.284,2.075,-35.278,-4.028
-0.125,-1.100,0.278,5.249,-33.203,-6.714
-0.168,-1.178,0.245,8.911,-31.372,-8.789
-0.173,-1.208,0.254,11.597,-28.564,-11.597
-0.164,-1.194,0.254,13.245,-25.574,-13.794
-0.202,-1.199,0.221,14.343,-22.888,-15.015
-0.220,-1.207,0.224,15.320,-20.203,-15.381
-0.245,-1.171,0.221,17.822,-17.029,-16.174
-0.257,-1.134,0.215,19.470,-11.597,-16.052
-0.257,-1.101,0.219,20.752,-5.371,-14.954
-0.231,-1.065,0.224,22.705,1.587,-13.794
-0.204,-1.035,0.219,25.085,8.362,-12.451
-0.184,-1.024,0.210,28.320,15.076,-11.292
-0.161,-1.023,0.210,30.823,21.118,-9.766
-0.133,-1.038,0.213,32.776,25.879,-7.507
-0.116,-1.070,0.196,35.034,29.785,-5.127
-0.106,-1.118,0.186,36.072,34.424,-2.930
-0.141,-1.147,0.135,36.194,39.795,-0.427
-0.168,-1.239,0.086,36.926,45.776,0.854
-0.132,-1.335,0.073,35.461,54.321,1.282
-0.131,-1.395,0.116,32.043,67.627,0.916
-0.125,-1.456,0.178,28.137,85.449,-0.366
-0.071,-1.520,0.254,23.743,102.905,-1.343
0.031,-1.595,0.337,19.226,116.333,-4.028
0.155,-1.647,0.401,12.695,121.216,-7.629
0.333,-1.672,0.530,6.836,115.295,-7.751
0.478,-1.751,0.638,3.540,93.445,-3.357
0.461,-1.859,0.628,0.122,56.885,0.793
0.391,-1.832,0.587,-7.996,20.020,-0.366
0.403,-1.716,0.478,-15.747,-9.033,-2.075
0.395,-1.589,0.361,-22.705,-25.818,-0.549
0.310,-1.474,0.284,-28.137,-29.175,3.723
0.226,-1.347,0.245,-33.813,-23.560,9.216
0.177,-1.245,0.216,-38.696,-11.353,15.869
0.150,-1.172,0.193,-41.321,3.906,22.278
0.146,-1.121,0.190,-42.236,20.264,28.015
0.149,-1.078,0.177,-41.260,34.302,34.241
0.160,-1.080,0.175,-38.147,45.959,40.833
0.144,-1.121,0.153,-33.569,54.260,44.922
0.132,-1.101,0.131,-27.466,59.875,45.410
0.111,-1.078,0.099,-22.156,65.125,46.753
0.102,-1.022,0.106,-18.738,72.571,46.326
0.116,-0.964,0.100,-14.832,76.111,43.762
0.124,-0.891,0.059,-10.437,76.721,39.551
0.130,-0.811,0.061,-5.615,79.163,36.438
0.143,-0.744,0.076,-0.977,80.078,34.058
0.161,-0.690,0.073,4.395,77.454,32.410
0.176,-0.661,0.074,9.583,73.547,31.616
0.193,-0.656,0.089,14.954,68.787,31.494
0.203,-0.662,0.104,20.142,62.317,31.433
0.206,-0.651,0.111,24.048,54.443,31.860
0.208,-0.617,0.115,25.269,46.448,32.288
0.210,-0.572,0.119,24.780,38.940,32.776
0.203,-0.525,0.120,23.560,31.860,33.447
0.197,-0.491,0.118,21.851,25.085,34.668
0.191,-0.472,0.115,19.836,18.738,36.072
0.192,-0.484,0.117,18.494,12.817,37.354
0.192,-0.530,0.118,17.700,7.751,38.269
0.180,-0.564,0.110,17.029,3.174,37.842
0.162,-0.566,0.105,15.503,-0.427,36.133
0.149,-0.550,0.093,13.550,-2.502,33.691
0.142,-0.530,0.080,11.780,-3.723,30.640
0.140,-0.514,0.068,10.010,-3.723,27.283
0.144,-0.505,0.061,8.179,-2.502,24.170
0.153,-0.511,0.052,7.019,-0.977,21.423
0.158,-0.559,0.046,6.653,0.793,18.982
0.156,-0.630,0.033,6.226,2.563,17.212
0.157,-0.670,0.027,4.578,4.761,15.991
0.169,-0.688,0.029,3.357,7.507,15.137
0.194,-0.718,0.038,2.991,10.193,14.771
0.221,-0.749,0.053,3.845,12.024,14.648
0.242,-0.773,0.068,5.493,12.573,14.587
0.257,-0.792,0.080,6.958,11.841,14.832
0.272,-0.819,0.090,9.033,10.071,15.625
0.304,-0.860,0.099,11.841,8.301,16.541
0.331,-0.902,0.112,14.221,6.104,17.029
0.334,-0.946,0.120,15.808,3.906,17.273
0.335,-0.980,0.123,16.296,2.441,16.724
0.343,-0.998,0.126,15.808,2.136,15.442
0.349,-0.999,0.122,14.771,2.747,13.428
0.361,-0.996,0.122,13.367,4.700,10.864
0.383,-0.988,0.129,10.803,8.057,7.629
0.406,-0.976,0.146,7.996,12.207,3.784
0.428,-0.951,0.156,4.395,15.564,-0.122
0.439,-0.921,0.158,1.221,18.433,-3.296

0.492,-0.870,1.714,-96.313,-33.325,2.991
0.047,-0.311,0.932,-127.808,-11.841,2.441
-0.117,0.013,0.550,-132.812,39.124,4.333
-0.257,0.017,0.362,-102.051,76.904,-11.169
-0.131,0.121,0.223,-53.101,78.186,-32.959
0.022,0.133,-0.118,-9.094,48.767,-34.302
-0.038,-0.032,-0.441,11.536,36.316,-22.949
0.076,-0.218,-0.538,18.616,37.903,-0.854
0.140,-0.419,-0.428,24.109,39.795,15.564
0.021,-0.957,-0.123,37.903,33.752,20.752
0.024,-1.497,0.183,49.683,34.424,30.518
0.130,-1.917,0.438,41.504,60.852,36.926
0.020,-1.913,0.288,9.766,88.745,31.189
-0.115,-1.703,-0.026,-24.963,107.788,23.499
0.162,-1.770,-0.380,-44.800,112.671,25.696
0.239,-1.966,-0.510,-45.288,114.685,22.949
0.326,-2.190,-0.443,-32.532,122.681,18.066
0.502,-2.430,-0.285,-18.188,126.038,10.986
0.654,-2.228,-0.114,-13.184,118.896,4.089
0.565,-2.000,-0.238,-12.756,99.548,-3.052
0.512,-1.893,-0.294,-3.540,74.280,-2.075
0.422,-1.868,-0.284,6.287,57.495,9.399
0.395,-1.966,-0.219,10.132,50.110,22.644
0.384,-1.896,-0.192,9.277,40.955,27.771
0.354,-1.783,-0.158,8.240,32.349,29.968
0.337,-1.761,-0.094,8.667,27.710,32.837
0.310,-1.708,-0.107,9.338,20.020,34.119
0.225,-1.655,-0.108,8.118,11.780,34.790
0.129,-1.581,-0.125,5.066,7.874,32.654
0.107,-1.490,-0.096,3.540,7.935,28.076
0.101,-1.415,-0.058,3.296,9.521,23.621
0.086,-1.340,-0.028,3.479,10.010,19.104
0.088,-1.276,-0.013,4.333,12.146,15.015
0.094,-1.226,0.005,6.836,14.343,12.268
0.103,-1.215,-0.005,8.911,16.724,10.193
0.136,-1.221,-0.006,10.803,18.738,9.583
0.149,-1.221,-0.025,11.536,20.752,8.301
0.187,-1.262,-0.017,11.902,24.048,6.226
0.239,-1.309,-0.051,11.230,27.649,3.174
0.326,-1.270,-0.000,9.888,28.442,-1.587
0.328,-1.254,-0.052,6.653,26.489,-4.761
0.404,-1.258,-0.028,5.005,26.917,-6.470
0.445,-1.244,-0.005,4.822,23.804,-9.888
0.462,-1.248,0.015,4.333,18.066,-14.404
0.455,-1.239,0.002,2.930,9.277,-19.043
0.414,-1.189,-0.038,1.831,1.526,-23.437
0.376,-1.158,-0.043,1.282,-2.930,-25.635
0.338,-1.144,-0.052,1.465,-7.019,-27.039
0.295,-1.110,-0.047,1.465,-11.902,-28.625
0.248,-1.084,-0.041,1.587,-16.846,-29.724
0.193,-1.053,-0.067,1.831,-19.775,-29.785
0.169,-1.066,-0.068,2.502,-18.494,-28.015
0.158,-1.061,-0.040,2.930,-15.076,-27.344
0.126,-1.050,-0.061,2.380,-12.939,-25.940
0.102,-1.086,-0.049,2.747,-9.888,-21.240
0.136,-1.282,-0.052,4.822,-7.019,-18.188
0.190,-1.382,-0.022,3.418,-5.493,-20.752
0.223,-1.408,0.011,-1.648,-4.456,-20.386
0.264,-1.438,0.042,-8.423,-5.676,-17.151
0.331,-1.481,0.068,-16.357,-9.399,-13.794
0.368,-1.455,0.105,-25.024,-15.015,-12.634
0.381,-1.447,0.163,-30.640,-23.621,-6.470
0.364,-1.520,0.179,-33.447,-38.635,-0.244
0.342,-1.552,0.152,-36.438,-53.528,-0.183
0.322,-1.546,0.113,-40.100,-62.744,-4.333
0.301,-1.505,0.097,-43.884,-63.416,-11.292
0.276,-1.440,0.094,-47.668,-57.068,-19.775
0.249,-1.429,0.079,-51.453,-46.814,-27.222
0.233,-1.280,0.091,-56.763,-35.339,-34.180
0.269,-1.306,0.084,-60.913,-24.353,-35.522
0.264,-1.295,0.027,-64.453,-14.709,-40.894
0.264,-1.202,0.032,-68.359,-3.784,-45.288
0.278,-1.146,0.028,-68.909,4.761,-43.457
0.283,-1.118,0.008,-66.284,10.803,-40.222
0.296,-1.052,0.003,-63.660,14.221,-37.048
0.307,-0.973,-0.003,-59.021,14.832,-29.480
0.320,-0.922,0.009,-52.368,13.184,-19.836
0.330,-0.877,0.016,-44.678,8.545,-10.742
0.325,-0.834,0.016,-36.316,2.197,-2.075
0.312,-0.810,0.018,-27.405,-3.113,7.202
0.291,-0.800,0.014,-18.738,-8.118,15.625
0.266,-0.802,0.013,-11.108,-11.719,22.705
0.244,-0.794,0.017,-4.639,-14.038,27.588
0.230,-0.770,0.025,1.038,-15.808,30.762
0.227,-0.739,0.029,5.981,-16.785,32.837
0.230,-0.699,0.028,9.766,-17.883,33.997
0.235,-0.663,0.029,13.367,-18.250,34.912
0.234,-0.639,0.027,16.235,-17.822,35.583
0.234,-0.619,0.025,18.982,-17.273,36.438
0.235,-0.599,0.028,21.484,-16.541,37.781
0.238,-0.581,0.031,23.376,-16.113,39.124
0.243,-0.574,0.033,25.024,-16.235,40.710
0.247,-0.588,0.036,26.001,-16.541,42.419
0.250,-0.613,0.043,26.367,-16.785,44.861
0.251,-0.634,0.050,26.672,-17.151,47.363
0.250,-0.635,0.055,26.428,-18.005,50.171
0.247,-0.623,0.063,25.208,-19.592,53.406
0.245,-0.618,0.069,24.414,-21.545,56.641
0.238,-0.617,0.070,23.926,-23.437,60.425
0.228,-0.621,0.072,22.827,-25.146,63.904
0.217,-0.652,0.068,21.301,-26.184,67.017
0.210,-0.702,0.066,19.592,-26.306,69.031
0.204,-0.751,0.065,16.968,-25.513,69.580
0.191,-0.773,0.059,13.306,-24.292,68.542
0.186,-0.802,0.056,9.460,-22.339,67.017
0.189,-0.858,0.058,6.409,-19.897,65.002
0.188,-0.916,0.056,3.723,-17.517,61.951
0.190,-0.944,0.056,0.916,-14.832,58.167
0.192,-0.948,0.055,-2.014,-12.390,54.626
0.195,-0.946,0.055,-3.723,-10.071,51.575
0.204,-0.948,0.055,-5.554,-8.179,49.133
0.218,-0.959,0.053,-6.775,-6.592,46.509
0.225,-0.968,0.051,-7.751,-5.005,43.640
0.232,-0.966,0.052,-8.484,-3.296,40.955
0.245,-0.962,0.049,-8.911,-1.953,37.842
0.261,-0.956,0.050,-8.545,-0.854,34.119
0.279,-0.938,0.051,-8.606,0.732,29.602
0.292,-0.913,0.052,-8.789,2.136,24.170
0.315,-0.890,0.055,-8.606,3.357,18.677

-0.499,-0.955,1.213,-83.801,10.681,-40.527
0.131,-0.658,1.145,-94.116,39.673,-38.452
0.449,-0.928,1.211,-79.224,37.292,-32.043
0.301,-1.081,1.136,-61.584,20.935,-44.006
0.307,-1.117,0.642,-47.058,-1.221,-40.161
0.228,-1.052,0.202,-43.640,-11.719,-28.503
-0.080,-1.189,-0.082,-39.246,-6.592,-31.250
0.032,-1.425,-0.372,-35.156,11.353,-36.316
0.339,-1.691,-0.265,-36.316,28.564,-34.790
0.455,-2.039,0.008,-49.500,33.691,-55.359
0.620,-2.161,0.139,-74.036,29.419,-77.881
0.788,-2.126,0.320,-88.623,29.602,-80.078
0.770,-2.132,0.310,-82.886,16.907,-85.022
0.734,-2.272,0.149,-64.941,-7.996,-91.797
0.543,-2.329,0.008,-52.856,-26.611,-93.323
0.548,-2.265,-0.053,-50.781,-34.180,-88.745
0.555,-2.122,-0.011,-54.626,-37.170,-74.280
0.454,-2.062,-0.013,-55.542,-49.561,-60.913
0.253,-1.941,0.009,-52.429,-64.209,-47.791
0.053,-1.763,0.055,-48.889,-66.650,-35.889
-0.165,-1.607,0.084,-42.847,-64.087,-26.489
-0.310,-1.470,0.131,-35.217,-55.725,-19.531
-0.432,-1.357,0.087,-28.320,-42.236,-12.878
-0.496,-1.279,0.073,-21.484,-25.879,-6.897
-0.466,-1.268,0.099,-16.541,-7.446,-1.953
-0.360,-1.260,0.115,-11.841,10.193,1.953
-0.229,-1.272,0.115,-6.470,24.841,5.920
-0.063,-1.276,0.127,-2.747,33.569,10.620
0.033,-1.252,0.144,-0.549,37.170,14.404
0.132,-1.240,0.176,2.869,38.147,16.174
0.213,-1.226,0.229,7.629,36.560,16.724
0.263,-1.202,0.253,12.573,32.104,16.541
0.306,-1.180,0.262,16.602,26.550,16.357
0.309,-1.132,0.241,20.447,19.470,15.320
0.290,-1.106,0.212,24.841,12.085,14.465
0.248,-1.096,0.197,29.175,5.066,13.916
0.200,-1.098,0.204,33.142,-0.916,12.573
0.151,-1.101,0.203,37.354,-5.798,10.254
0.107,-1.105,0.195,40.649,-9.583,8.362
0.064,-1.113,0.185,43.823,-12.207,7.385
0.035,-1.137,0.184,46.509,-13.489,7.629
-0.022,-1.167,0.153,48.401,-14.038,9.338
-0.082,-1.236,0.107,49.500,-15.076,11.597
-0.151,-1.308,0.078,48.401,-12.573,12.817
-0.224,-1.380,0.112,44.373,-2.625,12.451
-0.263,-1.410,0.136,38.269,12.268,11.841
-0.263,-1.429,0.176,31.494,28.015,10.315
-0.212,-1.435,0.220,24.475,43.030,7.935
-0.104,-1.464,0.283,19.470,53.284,8.179
-0.010,-1.499,0.327,16.846,57.251,10.681
0.079,-1.568,0.393,16.602,55.298,13.123
0.166,-1.667,0.456,17.639,44.617,15.747
0.198,-1.770,0.463,18.738,24.902,16.174
0.211,-1.769,0.458,17.822,4.517,10.132
0.225,-1.702,0.411,15.015,-13.611,2.747
0.236,-1.598,0.366,11.292,-24.353,-4.089
0.226,-1.502,0.328,6.042,-27.222,-9.338
0.210,-1.397,0.285,0.244,-24.292,-12.817
0.201,-1.303,0.255,-5.920,-16.418,-14.709
0.218,-1.246,0.280,-11.047,-6.226,-16.235
0.158,-1.030,0.214,-15.564,2.563,-18.799
0.226,-1.108,0.306,-17.578,13.977,-12.817
0.245,-1.136,0.242,-18.250,14.954,-12.024
0.194,-1.043,0.185,-18.066,21.790,-13.062
0.176,-0.983,0.189,-16.479,31.799,-9.583
0.207,-0.920,0.233,-12.329,39.001,-2.380
0.188,-0.921,0.122,-7.507,39.856,3.723
0.206,-0.873,0.188,-5.615,47.180,7.507
0.184,-0.794,0.120,-3.723,48.523,13.367
0.168,-0.769,0.130,-0.793,52.917,18.921
0.169,-0.730,0.121,1.038,54.749,22.095
0.172,-0.666,0.096,2.197,57.922,25.269
0.174,-0.639,0.104,4.089,62.500,29.602
0.168,-0.627,0.103,5.859,66.345,32.104
0.164,-0.595,0.101,7.751,69.519,33.752
0.162,-0.567,0.088,9.827,72.266,36.377
0.166,-0.574,0.086,12.512,75.623,39.185
0.180,-0.573,0.095,13.855,77.698,40.039
0.192,-0.561,0.098,14.404,78.552,41.565
0.202,-0.579,0.108,13.733,78.247,43.762
0.217,-0.586,0.115,11.780,75.928,43.396
0.229,-0.572,0.117,8.789,72.205,42.358
0.228,-0.544,0.121,5.737,68.481,42.725
0.229,-0.524,0.123,2.380,64.087,44.128
0.238,-0.531,0.118,-0.427,58.716,46.082
0.250,-0.562,0.119,-3.967,52.490,47.729
0.254,-0.608,0.126,-7.080,46.387,48.401
0.247,-0.645,0.128,-10.437,40.527,48.157
0.232,-0.655,0.121,-14.404,35.217,47.363
0.223,-0.661,0.113,-18.738,30.762,46.631
0.218,-0.682,0.102,-22.339,26.794,45.898
0.215,-0.697,0.090,-25.696,23.926,45.288
0.213,-0.720,0.082,-28.381,21.790,44.434
0.212,-0.754,0.074,-30.029,20.264,43.152
0.211,-0.791,0.068,-31.006,19.043,41.809
0.210,-0.819,0.070,-30.457,18.311,40.283
0.215,-0.848,0.076,-28.748,18.005,38.452
0.220,-0.876,0.082,-26.428,17.944,36.133
0.233,-0.916,0.087,-22.949,17.578,33.081
0.253,-0.955,0.094,-18.860,17.456,29.053
0.269,-0.977,0.100,-14.771,17.700,23.926
0.281,-0.981,0.101,-11.047,18.799,17.883
0.297,-0.980,0.097,-7.446,20.508,11.841
0.312,-0.967,0.093,-4.578,23.193,6.592
0.329,-0.947,0.091,-1.831,26.733,2.258
0.351,-0.930,0.091,0.366,30.823,-1.099
0.373,-0.910,0.090,2.014,35.889,-3.113
0.395,-0.891,0.093,3.052,40.894,-4.272
0.416,-0.872,0.099,3.723,45.715,-4.944
0.430,-0.848,0.105,4.028,49.988,-4.822
0.443,-0.825,0.106,3.723,53.040,-4.028
0.452,-0.809,0.108,3.113,54.810,-2.808
0.455,-0.801,0.104,1.526,55.115,-0.793
0.455,-0.804,0.101,0.183,54.260,1.770
0.457,-0.818,0.098,-1.953,52.551,4.211
0.457,-0.840,0.096,-4.211,50.293,5.920
0.453,-0.853,0.095,-6.287,47.180,7.141
0.448,-0.869,0.094,-8.362,43.152,7.385
0.440,-0.895,0.091,-9.949,38.818,6.592

-0.402,-0.951,1.972,-11.230,142.700,-13.977
0.164,-0.099,1.561,-6.226,171.082,-28.625
0.485,-0.115,0.782,13.184,129.333,-27.039
0.258,-0.419,0.268,25.696,117.981,-15.320
0.150,-0.809,0.082,17.151,119.507,-1.099
0.358,-0.871,-0.135,2.197,106.934,8.179
0.587,-1.006,-0.215,1.709,87.952,12.939
0.569,-1.397,-0.232,0.916,70.801,20.630
0.327,-1.711,-0.208,-11.292,73.181,26.550
0.185,-1.894,-0.299,-22.888,84.961,27.588
0.238,-1.931,-0.394,-28.870,105.042,21.912
0.305,-2.003,-0.386,-26.794,127.441,14.771
0.353,-2.190,-0.425,-15.747,143.555,3.784
0.588,-2.131,-0.421,-1.587,150.879,-8.301
0.749,-1.969,-0.444,4.944,150.391,-5.920
0.775,-2.032,-0.451,12.268,137.817,-0.549
0.828,-2.242,-0.363,17.883,113.831,5.432
0.734,-2.220,-0.396,15.930,82.764,2.258
0.640,-2.005,-0.364,14.343,62.683,-0.916
0.707,-1.967,-0.334,16.541,59.204,5.554
0.765,-2.000,-0.278,19.836,55.542,12.573
0.768,-1.895,-0.254,18.066,39.978,14.648
0.671,-1.795,-0.268,15.076,17.395,16.052
0.552,-1.793,-0.277,14.526,0.183,15.503
0.435,-1.803,-0.337,14.587,-11.597,13.123
0.353,-1.761,-0.379,12.817,-19.165,9.338
0.303,-1.697,-0.386,9.583,-21.729,4.578
0.256,-1.593,-0.346,5.859,-20.630,-0.488
0.205,-1.482,-0.316,2.319,-16.541,-5.310
0.181,-1.428,-0.245,-2.747,-9.827,-10.681
0.184,-1.388,-0.198,-6.836,-4.395,-15.198
0.200,-1.314,-0.134,-10.620,-0.488,-19.958
0.224,-1.254,-0.074,-12.268,1.770,-24.902
0.239,-1.224,-0.051,-12.817,2.014,-29.785
0.244,-1.175,-0.044,-12.573,1.587,-34.790
0.252,-1.197,-0.025,-11.841,1.221,-37.659
0.280,-1.238,-0.017,-10.681,0.793,-41.016
0.316,-1.310,-0.039,-8.667,-1.831,-46.448
0.335,-1.387,-0.016,-10.559,-6.409,-49.866
0.379,-1.455,0.008,-16.235,-12.512,-51.270
0.425,-1.484,0.036,-24.719,-20.813,-52.124
0.465,-1.491,0.064,-33.569,-31.372,-51.514
0.478,-1.495,0.096,-40.405,-42.664,-48.523
0.482,-1.514,0.139,-45.349,-53.589,-43.762
0.483,-1.528,0.185,-48.828,-65.552,-39.490
0.469,-1.549,0.208,-50.537,-78.613,-36.621
0.454,-1.564,0.211,-49.438,-92.163,-34.058
0.431,-1.561,0.190,-45.471,-106.018,-31.616
0.384,-1.499,0.147,-40.344,-117.432,-31.372
0.354,-1.401,0.135,-37.476,-122.070,-34.424
0.339,-1.323,0.124,-35.034,-120.850,-37.537
0.309,-1.262,0.101,-33.875,-114.563,-39.917
0.280,-1.191,0.080,-34.119,-104.126,-41.382
0.258,-1.109,0.060,-35.095,-90.637,-41.931
0.244,-1.031,0.039,-35.339,-75.012,-40.771
0.237,-0.967,0.017,-33.752,-58.777,-38.818
0.277,-1.007,0.017,-30.029,-42.542,-35.583
0.250,-0.809,0.026,-26.794,-26.306,-31.555
0.268,-0.861,0.023,-20.996,-9.827,-17.273
0.308,-0.923,-0.021,-16.907,-1.343,-14.465
0.298,-0.734,-0.046,-17.212,9.399,-15.808
0.269,-0.640,-0.022,-10.681,23.010,-7.324
0.283,-0.629,-0.006,-2.258,31.433,-2.380
0.319,-0.589,0.005,4.578,35.217,-0.244
0.349,-0.549,0.045,9.827,36.438,4.944
0.368,-0.533,0.080,13.550,33.203,11.230
0.384,-0.512,0.086,15.442,25.818,16.785
0.385,-0.516,0.082,18.188,17.029,24.231
0.374,-0.516,0.086,20.447,7.812,31.494
0.364,-0.510,0.098,21.545,-2.075,38.391
0.352,-0.487,0.098,21.790,-13.062,44.312
0.338,-0.465,0.086,21.667,-24.292,49.744
0.313,-0.458,0.078,21.118,-34.302,54.810
0.287,-0.476,0.073,20.691,-42.847,59.631
0.265,-0.498,0.067,19.165,-49.805,63.477
0.243,-0.513,0.064,17.212,-54.932,67.139
0.222,-0.523,0.063,15.320,-58.777,70.251
0.198,-0.548,0.064,13.611,-61.584,72.998
0.174,-0.579,0.067,11.475,-62.988,74.951
0.147,-0.604,0.067,8.606,-63.477,75.562
0.119,-0.637,0.062,5.188,-62.866,75.684
0.090,-0.685,0.055,1.160,-60.547,74.463
0.062,-0.719,0.050,-2.747,-56.519,71.777
0.052,-0.735,0.045,-6.531,-50.537,69.092
0.053,-0.764,0.045,-9.521,-43.213,66.406
0.050,-0.809,0.045,-11.292,-35.217,62.866
0.041,-0.862,0.044,-12.695,-26.672,58.594
0.030,-0.917,0.044,-14.709,-18.372,53.223
0.035,-0.975,0.045,-16.541,-10.132,46.814
0.046,-1.022,0.044,-18.494,-2.319,39.063
0.059,-1.057,0.043,-20.508,5.554,30.579
0.075,-1.070,0.040,-22.217,13.855,21.790
0.093,-1.066,0.035,-23.254,21.606,12.817
0.120,-1.048,0.034,-23.560,28.748,4.028
0.155,-1.018,0.036,-23.621,34.485,-3.967
0.197,-0.988,0.039,-23.193,38.879,-11.475
0.244,-0.949,0.043,-22.522,41.260,-18.372
0.284,-0.901,0.044,-21.240,41.626,-23.987
0.324,-0.853,0.046,-19.104,40.527,-27.527
0.363,-0.817,0.051,-16.174,37.903,-28.992
0.393,-0.790,0.051,-12.634,34.424,-28.870
0.416,-0.786,0.055,-9.094,30.273,-27.466
0.430,-0.789,0.062,-5.432,25.696,-24.902
0.437,-0.789,0.069,-2.258,21.179,-21.545
0.441,-0.792,0.073,0.977,16.113,-17.334
0.443,-0.799,0.077,3.784,10.986,-12.756
0.439,-0.807,0.081,5.981,6.287,-8.240
0.432,-0.825,0.085,7.324,2.075,-4.150
0.426,-0.854,0.088,8.423,-2.136,-1.282
0.418,-0.895,0.094,9.216,-5.676,1.099
0.409,-0.940,0.102,9.583,-8.850,2.991
0.404,-0.972,0.110,10.071,-11.841,4.517
0.402,-0.997,0.118,10.498,-15.076,5.249
0.399,-1.020,0.124,10.376,-18.250,5.981
0.392,-1.042,0.125,10.132,-21.057,6.104
0.382,-1.055,0.123,9.766,-23.254,5.981
0.377,-1.060,0.122,8.911,-25.024,6.104
0.375,-1.056,0.119,8.240,-26.245,6.226
0.373,-1.046,0.118,7.568,-26.733,6.226

-0.401,-0.814,1.367,-33.081,-24.109,-60.242
0.292,-0.759,1.292,-48.340,11.841,-28.809
0.517,-0.896,1.614,-50.659,18.433,-25.085
-0.030,-0.936,1.395,-44.006,7.202,-40.161
-0.375,-0.880,0.648,-43.579,-2.136,-36.072
-0.426,-0.744,0.057,-47.729,8.240,-26.611
-0.299,-0.998,-0.321,-49.805,32.410,-35.767
-0.115,-1.376,-0.391,-45.349,59.448,-62.622
0.382,-1.628,-0.277,-32.104,70.068,-97.778
0.743,-2.083,0.132,-14.893,58.838,-123.230
0.946,-2.478,0.342,-10.437,40.222,-141.113
1.245,-2.665,0.298,-18.250,22.583,-130.493
1.016,-2.588,0.160,-28.931,-0.488,-106.934
0.780,-2.415,0.032,-28.137,-30.457,-91.431
0.583,-2.367,-0.062,-16.479,-51.208,-75.134
0.424,-2.334,-0.095,-6.714,-54.810,-60.547
0.266,-2.290,-0.101,-6.958,-54.260,-42.297
0.127,-2.172,-0.092,-14.587,-57.861,-26.062
0.046,-2.031,-0.031,-21.545,-60.608,-11.536
-0.046,-1.856,0.038,-20.874,-57.861,-0.549
-0.143,-1.695,0.083,-14.465,-48.767,8.545
-0.239,-1.605,0.043,-5.554,-37.964,15.320
-0.394,-1.469,0.026,0.854,-25.635,18.433
-0.478,-1.376,0.060,0.610,-8.789,21.484
-0.479,-1.260,0.095,-0.244,9.277,26.001
-0.448,-1.171,0.131,1.587,29.419,28.015
-0.392,-1.131,0.145,5.188,47.485,27.527
-0.298,-1.122,0.156,9.399,64.209,25.085
-0.161,-1.134,0.163,15.503,78.491,20.996
-0.007,-1.149,0.147,21.912,89.172,16.418
0.095,-1.155,0.131,27.344,96.985,11.353
0.205,-1.222,0.128,30.273,104.004,5.859
0.300,-1.287,0.128,29.053,109.436,1.953
0.344,-1.369,0.135,26.184,109.741,-2.930
0.366,-1.483,0.111,22.888,106.323,-8.118
0.355,-1.576,0.077,18.005,100.525,-13.367
0.323,-1.627,0.083,11.414,95.215,-18.127
0.296,-1.645,0.113,3.967,90.088,-21.057
0.300,-1.635,0.167,-3.052,85.815,-22.034
0.343,-1.608,0.241,-6.775,82.214,-22.461
0.372,-1.593,0.270,-5.798,74.585,-23.987
0.332,-1.562,0.275,-3.906,61.401,-25.146
0.316,-1.490,0.311,-2.319,48.218,-27.222
0.330,-1.440,0.309,3.601,33.691,-29.663
0.324,-1.372,0.329,11.414,18.921,-31.372
0.317,-1.294,0.365,18.982,5.066,-30.762
0.331,-1.243,0.373,25.879,-8.667,-29.236
0.313,-1.200,0.358,28.503,-20.996,-26.428
0.280,-1.168,0.336,28.015,-30.212,-23.437
0.257,-1.147,0.296,24.780,-35.828,-20.569
0.241,-1.110,0.251,19.348,-38.025,-18.250
0.225,-1.044,0.203,12.756,-36.377,-16.663
0.216,-0.978,0.152,7.080,-31.616,-15.137
0.206,-0.922,0.097,3.357,-23.437,-12.878
0.202,-0.889,0.067,1.404,-12.756,-10.315
0.156,-0.786,-0.000,-0.671,-3.113,-8.789
0.225,-0.757,0.193,-2.686,6.226,-2.563
0.238,-0.856,0.041,-0.183,4.822,2.991
0.245,-0.639,0.055,-1.709,11.230,-0.854
0.245,-0.564,0.064,2.502,20.325,9.521
0.235,-0.512,0.088,9.705,25.513,17.761
0.231,-0.535,0.114,14.709,28.564,24.536
0.249,-0.500,0.147,19.104,23.865,28.442
0.225,-0.467,0.098,21.790,21.545,34.668
0.235,-0.479,0.145,23.865,19.592,41.260
0.244,-0.469,0.133,23.682,15.625,46.509
0.253,-0.454,0.141,23.010,11.536,52.307
0.235,-0.454,0.129,22.156,7.446,58.105
0.211,-0.458,0.133,20.813,4.089,61.646
0.191,-0.474,0.136,19.409,0.000,63.965
0.179,-0.475,0.133,16.296,-3.784,64.819
0.172,-0.475,0.126,12.390,-7.019,65.491
0.161,-0.480,0.116,8.179,-9.155,66.345
0.143,-0.495,0.106,3.601,-10.132,67.261
0.123,-0.519,0.095,-1.648,-10.193,67.993
0.106,-0.559,0.082,-7.202,-9.766,67.749
0.099,-0.604,0.076,-13.123,-8.240,66.162
0.094,-0.647,0.075,-18.860,-5.676,63.049
0.093,-0.688,0.078,-24.170,-3.113,58.838
0.093,-0.729,0.080,-28.442,-0.366,54.443
0.095,-0.772,0.082,-31.433,2.441,49.622
0.101,-0.821,0.081,-33.569,5.554,44.617
0.108,-0.880,0.075,-35.034,9.216,39.795
0.108,-0.940,0.063,-35.828,13.489,34.485
0.105,-0.997,0.053,-36.011,18.799,28.931
0.109,-1.042,0.044,-36.316,25.330,22.583
0.132,-1.078,0.039,-36.194,32.410,15.076
0.162,-1.092,0.041,-35.950,39.551,7.019
0.192,-1.091,0.045,-34.729,47.119,-0.122
0.225,-1.070,0.051,-32.654,53.894,-6.714
0.267,-1.028,0.059,-29.663,59.631,-13.489
0.314,-0.981,0.069,-25.452,64.026,-19.958
0.359,-0.933,0.081,-20.691,66.650,-25.513
0.398,-0.893,0.092,-15.381,68.237,-29.419
0.429,-0.865,0.106,-10.559,68.481,-31.189
0.452,-0.848,0.116,-5.493,67.383,-31.250
0.463,-0.834,0.125,-0.977,65.613,-29.480
0.464,-0.826,0.132,2.380,62.866,-26.001
0.470,-0.827,0.146,3.845,59.631,-21.301
0.471,-0.846,0.144,3.784,56.213,-15.381
0.458,-0.873,0.135,2.380,53.406,-9.216
0.441,-0.896,0.126,-0.183,50.781,-3.662
0.428,-0.915,0.121,-3.662,48.279,1.526
0.419,-0.930,0.120,-7.324,45.349,6.836
0.418,-0.948,0.124,-10.559,41.565,11.292
0.415,-0.968,0.131,-12.878,37.170,14.282
0.408,-0.988,0.136,-13.977,31.860,16.052
0.403,-1.003,0.144,-13.672,25.696,16.663
0.396,-1.015,0.151,-12.207,18.921,16.418
0.388,-1.024,0.155,-9.766,11.597,15.503
0.378,-1.027,0.154,-6.348,4.150,14.038
0.376,-1.033,0.156,-2.991,-1.953,12.146
0.376,-1.037,0.158,0.610,-7.080,9.338
0.371,-1.030,0.160,3.784,-11.108,6.531
0.367,-1.015,0.158,5.920,-13.855,3.845
0.373,-1.002,0.158,7.080,-15.381,1.526
0.375,-0.988,0.157,7.629,-15.686,0.000
0.375,-0.965,0.154,6.531,-15.198,-0.366
0.375,-0.939,0.147,5.188,-13.977,0.183

0.536,-1.059,1.754,27.527,-6.042,-30.762
0.693,-0.796,1.166,-15.686,0.977,-10.132
0.040,-0.739,0.607,-41.504,16.113,-8.484
-0.315,-0.949,0.025,-55.420,31.189,-5.127
-0.222,-0.993,-0.215,-60.486,52.490,-7.935
0.140,-1.092,-0.144,-62.256,62.439,-24.963
0.297,-1.419,-0.111,-54.932,52.063,-49.744
0.378,-1.877,-0.066,-40.344,43.579,-64.758
0.572,-2.154,0.021,-33.569,60.425,-67.993
0.585,-2.289,0.067,-39.978,79.773,-77.576
0.610,-2.217,-0.006,-46.936,81.360,-90.088
0.810,-2.149,-0.090,-43.884,69.336,-81.299
0.915,-2.108,-0.058,-35.828,57.983,-59.204
0.863,-2.100,0.033,-24.536,47.058,-40.955
0.740,-2.037,0.002,-17.639,36.377,-28.564
0.715,-2.038,-0.011,-13.977,27.893,-20.630
0.703,-1.985,0.005,-16.357,17.944,-12.024
0.615,-1.854,0.037,-18.433,5.737,-3.662
0.511,-1.820,0.024,-14.648,-7.019,2.136
0.353,-1.751,-0.004,-9.705,-17.517,4.883
0.194,-1.664,-0.026,-6.287,-21.912,5.188
0.053,-1.532,-0.038,-3.479,-20.630,4.333
-0.042,-1.388,0.015,-1.953,-13.367,2.380
-0.066,-1.306,0.002,-0.427,-3.113,1.282
-0.031,-1.235,0.033,3.418,9.216,0.305
0.013,-1.198,0.095,7.568,20.325,-1.465
0.068,-1.200,0.127,11.230,27.039,-2.991
0.113,-1.208,0.126,13.489,30.334,-3.906
0.153,-1.237,0.122,15.015,33.875,-5.310
0.132,-1.245,0.086,15.991,36.987,-6.348
0.120,-1.311,0.058,17.883,41.199,-8.484
0.166,-1.413,0.054,16.724,45.837,-9.827
0.229,-1.514,0.071,12.573,49.500,-10.315
0.272,-1.575,0.113,5.310,51.819,-12.451
0.317,-1.608,0.143,-4.150,51.697,-16.418
0.365,-1.624,0.177,-14.221,47.546,-20.264
0.415,-1.622,0.203,-23.987,38.513,-22.583
0.463,-1.620,0.239,-32.227,25.940,-23.437
0.498,-1.598,0.278,-37.903,11.841,-24.109
0.504,-1.573,0.312,-41.626,-3.723,-24.780
0.500,-1.531,0.340,-43.274,-20.081,-25.391
0.476,-1.482,0.331,-41.321,-36.804,-26.611
0.416,-1.382,0.307,-35.522,-52.246,-27.527
0.353,-1.287,0.297,-28.687,-64.453,-25.940
0.317,-1.246,0.259,-18.494,-73.547,-23.132
0.274,-1.193,0.196,-7.141,-77.209,-21.606
0.230,-1.090,0.185,0.122,-73.608,-19.775
0.218,-1.009,0.179,4.578,-65.674,-16.296
0.218,-0.965,0.155,7.874,-56.702,-12.939
0.211,-0.918,0.129,9.583,-45.349,-9.766
0.202,-0.854,0.109,10.986,-32.471,-6.409
0.201,-0.780,0.093,13.184,-18.677,-3.296
0.212,-0.725,0.093,16.663,-4.700,-0.366
0.202,-0.545,0.120,20.508,6.714,1.770
0.255,-0.565,0.146,26.123,15.686,12.634
0.283,-0.719,0.117,33.630,18.616,17.334
0.282,-0.479,0.057,34.363,20.020,10.803
0.300,-0.397,0.095,42.053,28.259,24.780
0.276,-0.516,0.119,52.246,29.907,32.654
0.289,-0.426,0.111,55.054,28.076,30.151
0.304,-0.445,0.158,59.021,26.611,38.635
0.295,-0.459,0.158,59.998,20.325,41.687
0.313,-0.433,0.167,58.167,13.367,43.213
0.311,-0.432,0.162,55.847,6.042,48.340
0.300,-0.448,0.172,52.673,-1.160,51.575
0.288,-0.447,0.164,48.523,-8.667,53.284
0.276,-0.425,0.163,43.640,-15.869,55.054
0.262,-0.456,0.151,38.452,-22.888,56.946
0.255,-0.487,0.141,33.752,-29.358,56.885
0.240,-0.511,0.135,28.137,-33.630,55.969
0.228,-0.542,0.131,23.071,-36.438,54.932
0.220,-0.581,0.131,18.555,-38.086,53.711
0.209,-0.615,0.125,13.916,-38.940,52.429
0.200,-0.651,0.122,8.606,-38.574,51.147
0.195,-0.699,0.122,3.296,-37.598,49.927
0.182,-0.751,0.110,-2.625,-35.889,48.950
0.156,-0.808,0.093,-9.705,-32.959,48.462
0.131,-0.883,0.072,-16.968,-29.175,48.096
0.109,-0.966,0.053,-24.780,-23.254,47.363
0.086,-1.032,0.038,-32.471,-15.381,45.654
0.073,-1.084,0.027,-39.429,-6.287,42.053
0.072,-1.113,0.019,-45.166,3.235,37.354
0.077,-1.128,0.009,-49.011,14.099,32.593
0.093,-1.125,0.001,-51.025,25.269,28.198
0.129,-1.109,0.002,-51.941,36.499,22.949
0.179,-1.088,0.009,-51.514,47.424,16.541
0.239,-1.058,0.019,-49.622,57.922,9.216
0.313,-1.013,0.029,-47.607,66.895,1.404
0.389,-0.966,0.038,-44.983,74.219,-5.310
0.459,-0.919,0.049,-41.687,79.529,-11.353
0.514,-0.881,0.064,-38.086,83.435,-15.137
0.547,-0.843,0.073,-34.912,85.632,-15.564
0.568,-0.808,0.080,-32.654,86.609,-13.000
0.578,-0.782,0.086,-30.457,86.365,-7.996
0.576,-0.762,0.085,-28.015,85.510,-2.014
0.568,-0.753,0.083,-25.146,84.900,4.883
0.559,-0.754,0.084,-22.461,84.717,11.780
0.540,-0.761,0.083,-19.897,84.167,17.578
0.525,-0.777,0.084,-18.250,83.496,21.729
0.513,-0.797,0.084,-17.212,82.397,24.170
0.501,-0.816,0.083,-16.235,80.200,25.391
0.500,-0.827,0.080,-15.686,77.087,25.146
0.501,-0.839,0.079,-15.686,72.876,24.414
0.501,-0.857,0.077,-15.259,66.956,23.682
0.504,-0.882,0.082,-14.648,59.448,23.010
0.513,-0.905,0.088,-13.611,50.415,21.973
0.514,-0.920,0.096,-12.085,40.161,20.935
0.513,-0.930,0.103,-10.498,29.114,19.592
0.508,-0.938,0.107,-8.545,17.944,17.578
0.502,-0.947,0.110,-6.348,7.019,15.015
0.501,-0.949,0.110,-3.906,-2.808,11.841
0.493,-0.947,0.107,-1.587,-11.414,8.057
0.486,-0.952,0.102,0.977,-18.921,3.906
0.486,-0.955,0.100,2.869,-24.292,-0.061
0.487,-0.944,0.101,4.333,-27.344,-3.235
0.486,-0.925,0.100,5.493,-29.053,-5.981
0.488,-0.913,0.098,6.470,-28.870,-7.812
0.495,-0.905,0.093,6.714,-27.527,-8.545
0.493,-0.898,0.086,6.287,-25.818,-8.423

0.374,-3.004,0.052,-17.395,72.388,-79.834
0.774,-3.018,-0.180,-27.344,70.068,-68.848
0.974,-2.667,-0.146,-41.809,76.843,-58.411
0.945,-2.381,0.030,-47.607,68.726,-58.411
0.925,-2.187,0.085,-44.861,44.495,-52.856
0.827,-2.040,-0.033,-44.495,17.212,-39.246
0.697,-1.917,-0.115,-40.955,-5.249,-25.574
0.550,-1.812,-0.042,-30.029,-23.437,-14.343
0.365,-1.786,-0.024,-17.456,-38.086,-7.507
0.145,-1.761,-0.083,-9.033,-43.579,-3.601
-0.022,-1.734,-0.118,-3.479,-38.452,-0.732
-0.121,-1.686,-0.122,1.709,-26.733,1.587
-0.172,-1.669,-0.073,7.263,-13.855,3.296
-0.182,-1.667,-0.051,13.550,-3.296,3.967
-0.191,-1.614,-0.082,18.005,6.897,3.235
-0.164,-1.580,-0.052,17.883,20.203,2.136
-0.104,-1.590,-0.034,17.517,33.447,2.686
-0.008,-1.610,0.010,16.541,43.152,2.563
0.075,-1.599,0.031,13.123,46.387,0.977
0.094,-1.569,0.058,8.484,44.312,-2.075
0.079,-1.575,0.087,3.845,41.382,-5.859
0.149,-1.586,0.111,-3.540,41.504,-7.629
0.237,-1.611,0.153,-12.146,42.297,-6.531
0.305,-1.614,0.244,-23.926,41.870,-4.578
0.333,-1.571,0.283,-36.926,36.926,-4.456
0.340,-1.534,0.270,-46.936,28.198,-4.150
0.327,-1.510,0.235,-52.368,19.165,-2.502
0.289,-1.456,0.227,-55.481,10.925,2.075
0.251,-1.375,0.226,-56.213,5.737,8.240
0.229,-1.272,0.227,-53.955,4.761,14.404
0.234,-1.200,0.239,-47.913,6.897,19.775
0.229,-1.153,0.224,-38.208,8.057,23.071
0.212,-1.098,0.241,-29.358,9.705,24.597
0.205,-1.064,0.241,-19.592,10.803,23.560
0.204,-1.009,0.229,-10.620,11.108,20.691
0.210,-0.947,0.239,-3.723,12.512,18.188
0.219,-0.928,0.214,2.930,15.442,16.724
0.216,-0.911,0.180,9.094,19.592,15.259
0.218,-0.883,0.166,13.367,25.269,13.977
0.241,-0.865,0.164,16.724,31.677,13.245
0.251,-0.847,0.166,18.494,37.659,13.672
0.260,-0.905,0.137,18.921,41.931,14.282
0.323,-0.643,0.314,16.663,45.166,16.602
0.303,-0.860,0.075,18.982,36.743,24.475
0.380,-0.784,0.217,15.442,38.452,14.954
0.419,-0.601,0.275,12.756,39.612,20.020
0.397,-0.722,0.229,15.686,32.837,25.330
0.432,-0.622,0.256,11.841,24.597,19.653
0.408,-0.590,0.242,9.399,15.686,22.461
0.378,-0.558,0.241,7.385,8.118,22.278
0.386,-0.529,0.223,4.395,1.221,22.400
0.376,-0.515,0.214,2.686,-3.906,24.475
0.340,-0.492,0.190,1.099,-7.690,26.611
0.321,-0.475,0.171,0.549,-10.498,29.297
0.314,-0.473,0.179,1.099,-11.780,32.471
0.307,-0.450,0.169,2.014,-13.611,35.889
0.303,-0.458,0.167,3.357,-14.282,41.260
0.289,-0.468,0.172,5.737,-14.404,45.776
0.274,-0.482,0.160,7.812,-14.954,49.194
0.251,-0.502,0.154,10.437,-13.977,51.941
0.229,-0.538,0.149,13.062,-11.597,52.551
0.216,-0.579,0.141,15.442,-8.179,51.758
0.209,-0.598,0.135,16.541,-3.052,50.049
0.197,-0.613,0.130,18.127,3.540,48.279
0.185,-0.637,0.125,19.165,11.597,46.692
0.171,-0.666,0.118,18.921,20.081,44.617
0.159,-0.700,0.104,17.883,29.175,42.175
0.157,-0.745,0.098,15.686,38.452,39.490
0.166,-0.794,0.092,12.085,48.096,36.682
0.179,-0.835,0.089,8.179,57.129,33.325
0.193,-0.859,0.090,4.578,65.186,29.236
0.207,-0.880,0.088,1.404,72.266,24.414
0.233,-0.913,0.091,-1.038,78.796,19.714
0.275,-0.939,0.095,-2.930,84.045,15.625
0.319,-0.967,0.104,-4.272,87.463,10.742
0.359,-0.984,0.114,-5.310,89.355,5.005
0.397,-0.979,0.117,-6.714,89.600,-1.404
0.441,-0.967,0.125,-8.667,88.074,-7.690
0.481,-0.953,0.116,-11.169,85.083,-14.648
0.511,-0.931,0.100,-13.245,81.543,-21.240
0.538,-0.904,0.085,-16.357,77.942,-26.245
0.565,-0.877,0.073,-19.287,74.463,-29.297
0.585,-0.849,0.058,-22.034,71.289,-29.724
0.603,-0.823,0.047,-24.292,68.115,-27.222
0.613,-0.805,0.038,-25.696,64.819,-22.522
0.609,-0.795,0.028,-26.917,61.523,-16.296
0.596,-0.793,0.014,-27.588,58.289,-9.766
0.576,-0.799,0.003,-27.405,56.213,-4.089
0.553,-0.809,-0.003,-26.367,54.993,0.305
0.536,-0.824,-0.005,-25.085,54.565,3.967
0.521,-0.833,-0.004,-23.010,53.467,5.981
0.513,-0.855,0.000,-20.996,52.246,6.897
0.517,-0.886,0.007,-18.372,49.927,6.531
0.520,-0.911,0.017,-15.442,46.021,5.310
0.526,-0.924,0.028,-12.878,41.077,3.662
0.540,-0.934,0.043,-10.071,34.302,1.892
0.552,-0.943,0.053,-6.836,25.879,0.366
0.560,-0.954,0.061,-4.333,16.724,-0.671
0.566,-0.958,0.066,-1.892,6.958,-1.160
0.565,-0.955,0.068,0.244,-2.869,-1.404
0.552,-0.952,0.065,1.709,-11.902,-0.427
0.538,-0.949,0.060,3.052,-19.897,1.282
0.522,-0.940,0.055,4.333,-26.184,3.418
0.503,-0.931,0.055,4.944,-30.029,5.737
0.486,-0.924,0.054,5.127,-32.043,7.996
0.469,-0.920,0.054,4.944,-32.715,9.949
0.455,-0.918,0.053,4.761,-31.799,11.230
0.441,-0.910,0.050,4.883,-29.724,12.024
0.434,-0.907,0.051,4.700,-27.161,12.817
0.432,-0.906,0.053,4.333,-23.804,13.306
0.432,-0.899,0.056,4.578,-20.386,13.306
0.430,-0.892,0.058,4.822,-17.151,13.550
0.427,-0.890,0.058,4.944,-14.404,13.794
0.424,-0.885,0.056,5.188,-11.902,14.404
0.427,-0.882,0.055,5.676,-10.071,15.808
0.423,-0.884,0.055,6.104,-8.667,17.761
0.417,-0.885,0.052,6.409,-7.202,19.348
0.404,-0.883,0.044,6.775,-5.615,20.996
0.405,-0.881,0.039,7.568,-4.150,22.949

0.441,-0.145,1.364,-72.571,-5.127,-15.869
0.210,0.092,0.815,-63.171,0.610,-0.610
0.198,0.116,0.196,-39.551,10.986,21.362
-0.023,0.039,-0.090,-11.047,35.400,37.048
-0.090,-0.518,-0.193,11.475,64.270,48.401
0.049,-1.028,-0.204,20.935,88.013,44.128
0.374,-1.247,0.010,10.132,108.582,32.227
0.672,-1.258,0.052,-8.911,116.089,30.273
0.785,-1.615,0.127,-27.893,100.464,31.982
0.767,-1.672,-0.046,-52.063,61.584,18.311
0.631,-1.708,-0.183,-66.528,39.307,12.939
0.692,-1.785,-0.213,-68.909,52.795,14.221
0.844,-1.816,-0.283,-65.430,84.656,19.714
0.953,-1.995,-0.310,-54.810,111.633,18.982
1.062,-1.920,-0.302,-50.354,124.146,10.681
1.072,-1.810,-0.431,-47.241,119.263,12.390
0.970,-1.771,-0.416,-41.931,112.915,18.311
0.898,-1.719,-0.378,-37.598,106.812,18.005
0.976,-1.633,-0.366,-30.273,102.051,20.874
1.002,-1.702,-0.452,-27.039,94.727,28.381
0.999,-1.856,-0.506,-21.423,89.661,27.344
0.974,-1.898,-0.530,-18.555,87.341,20.569
1.048,-1.867,-0.493,-18.188,85.999,15.198
1.102,-1.814,-0.459,-17.517,80.139,10.437
1.116,-1.757,-0.409,-17.273,70.313,3.723
1.081,-1.691,-0.378,-14.648,60.425,-1.038
1.061,-1.588,-0.294,-12.695,52.856,-3.113
1.109,-1.479,-0.173,-12.146,43.030,-3.540
1.061,-1.458,-0.093,-11.414,25.757,-4.211
0.970,-1.403,-0.080,-11.963,4.150,-7.385
0.909,-1.375,-0.080,-12.878,-13.977,-9.583
0.848,-1.387,-0.065,-15.625,-27.710,-12.390
0.776,-1.432,-0.036,-22.888,-37.476,-16.418
0.693,-1.450,-0.026,-31.860,-43.640,-21.912
0.599,-1.441,-0.033,-40.283,-44.861,-27.893
0.508,-1.414,-0.023,-47.424,-40.710,-33.569
0.455,-1.380,0.011,-53.406,-33.203,-40.100
0.442,-1.350,0.054,-56.885,-25.024,-48.462
0.457,-1.305,0.077,-58.533,-18.494,-57.312
0.495,-1.276,0.120,-58.167,-14.465,-65.796
0.548,-1.219,0.151,-56.702,-15.076,-74.280
0.569,-1.164,0.152,-52.917,-19.714,-78.735
0.548,-1.127,0.146,-45.532,-23.193,-75.256
0.529,-1.063,0.144,-37.476,-26.428,-67.932
0.519,-0.996,0.135,-27.954,-29.053,-59.814
0.537,-0.920,0.125,-17.151,-30.212,-51.331
0.505,-0.854,0.127,-7.629,-29.053,-39.490
0.516,-0.934,0.139,2.747,-25.635,-31.921
0.469,-0.846,0.066,12.390,-27.161,-33.325
0.438,-0.822,0.105,20.935,-22.339,-26.062
0.501,-0.796,0.077,25.574,-22.339,-24.963
0.492,-0.803,0.059,28.259,-21.729,-24.353
0.476,-0.837,0.082,30.212,-17.700,-24.109
0.430,-0.692,0.011,32.410,-18.372,-26.917
0.414,-0.759,-0.010,39.307,-17.273,-26.367
0.413,-0.709,-0.020,43.457,-15.686,-32.043
0.419,-0.689,0.037,45.776,-14.526,-32.593
0.459,-0.637,0.098,43.030,-18.677,-33.386
0.488,-0.569,0.101,37.903,-26.733,-28.870
0.474,-0.514,0.086,33.752,-34.424,-21.606
0.439,-0.501,0.085,31.250,-40.649,-13.916
0.420,-0.501,0.086,28.625,-46.082,-7.263
0.421,-0.475,0.077,25.452,-51.208,-1.587
0.411,-0.453,0.082,23.254,-54.626,4.700
0.398,-0.452,0.092,21.362,-57.434,10.742
0.390,-0.455,0.094,19.470,-60.181,14.771
0.377,-0.453,0.093,17.700,-62.073,17.151
0.358,-0.446,0.088,15.808,-62.805,19.165
0.342,-0.459,0.086,14.771,-62.866,21.667
0.332,-0.485,0.082,14.221,-62.134,24.170
0.323,-0.502,0.076,14.343,-60.913,26.001
0.318,-0.531,0.070,14.343,-58.044,27.283
0.314,-0.574,0.067,14.648,-54.016,28.442
0.305,-0.610,0.066,13.855,-48.523,29.663
0.300,-0.636,0.064,12.695,-41.809,31.189
0.296,-0.668,0.061,11.047,-34.546,33.447
0.290,-0.720,0.060,9.033,-26.550,35.645
0.286,-0.783,0.056,6.165,-18.311,37.170
0.286,-0.848,0.051,2.625,-10.010,38.269
0.289,-0.905,0.045,-1.770,-1.709,38.879
0.290,-0.950,0.038,-6.226,6.287,38.818
0.297,-0.987,0.031,-10.254,14.282,38.574
0.310,-1.014,0.025,-13.733,21.606,37.598
0.317,-1.037,0.021,-16.968,27.771,35.645
0.322,-1.052,0.014,-19.714,33.691,32.288
0.328,-1.057,0.005,-22.278,39.551,28.137
0.336,-1.047,-0.004,-23.865,44.678,23.376
0.354,-1.022,-0.010,-24.902,49.072,18.738
0.379,-0.990,-0.012,-24.780,52.368,14.099
0.401,-0.946,-0.015,-23.865,53.955,9.399
0.422,-0.896,-0.017,-22.766,54.443,5.188
0.445,-0.842,-0.019,-21.240,54.260,1.526
0.461,-0.803,-0.019,-18.555,52.734,-1.343
0.477,-0.774,-0.017,-15.808,50.415,-2.869
0.495,-0.751,-0.015,-13.000,47.302,-3.418
0.502,-0.736,-0.014,-10.498,42.908,-3.662
0.506,-0.732,-0.013,-7.996,38.269,-3.540
0.516,-0.736,-0.010,-5.981,32.898,-3.052
0.524,-0.749,-0.008,-4.089,26.978,-1.953
0.522,-0.767,-0.006,-2.197,20.935,-0.305
0.516,-0.797,-0.005,-0.305,14.587,1.709
0.515,-0.824,-0.001,1.343,7.996,3.967
0.506,-0.841,0.000,2.502,1.831,5.615
0.497,-0.851,0.000,3.540,-3.784,6.226
0.490,-0.861,-0.002,4.639,-8.850,6.042
0.482,-0.871,-0.004,6.226,-13.794,4.944
0.477,-0.878,-0.002,7.935,-18.433,3.418
0.474,-0.886,-0.001,9.949,-22.766,1.526
0.467,-0.903,-0.003,11.475,-26.489,-0.671
0.464,-0.910,0.000,13.245,-29.114,-2.563
0.469,-0.911,0.003,14.709,-30.945,-3.784
0.473,-0.913,0.009,16.663,-32.227,-4.944
0.476,-0.911,0.018,18.127,-32.898,-5.798
0.480,-0.907,0.025,19.165,-33.569,-6.897
0.490,-0.910,0.033,19.409,-33.813,-7.812
0.499,-0.908,0.037,19.226,-33.691,-8.789
0.501,-0.902,0.042,19.226,-33.447,-9.033
0.515,-0.882,0.054,18.982,-33.325,-8.423
0.530,-0.875,0.062,18.738,-33.875,-6.653

-0.194,-2.192,0.107,-18.066,-47.668,-95.825
-0.049,-2.248,0.120,-18.738,-30.457,-87.524
-0.042,-2.363,0.043,-15.320,-25.391,-88.379
-0.060,-2.375,-0.075,-9.888,-27.466,-97.961
0.118,-2.402,-0.169,-8.728,-30.090,-99.792
0.166,-2.362,-0.149,-12.085,-31.372,-97.961
0.160,-2.290,-0.103,-16.418,-31.067,-94.238
0.135,-2.186,-0.025,-19.775,-34.180,-85.327
0.077,-2.016,0.007,-22.095,-41.809,-73.547
-0.004,-1.938,-0.034,-23.071,-50.598,-60.181
-0.116,-1.853,-0.055,-20.996,-55.237,-47.913
-0.247,-1.753,-0.054,-16.296,-55.298,-35.767
-0.379,-1.620,-0.027,-11.047,-50.171,-24.231
-0.488,-1.498,-0.008,-4.456,-40.527,-11.658
-0.518,-1.446,0.038,0.000,-27.283,-1.648
-0.561,-1.406,0.020,1.038,-12.878,6.531
-0.545,-1.356,0.074,1.099,4.578,16.602
-0.540,-1.286,0.011,1.770,19.409,26.794
-0.534,-1.322,0.072,4.456,35.400,36.377
-0.505,-1.363,0.041,8.179,46.936,41.016
-0.444,-1.413,0.106,10.986,61.707,45.410
-0.438,-1.489,0.151,12.390,75.562,50.598
-0.418,-1.551,0.198,9.460,87.708,51.941
-0.349,-1.573,0.241,4.700,102.173,53.284
-0.240,-1.556,0.247,0.427,112.976,55.115
-0.119,-1.531,0.242,-1.221,118.103,56.702
-0.022,-1.550,0.252,-2.075,120.605,60.547
0.027,-1.550,0.250,-1.953,120.667,65.369
0.008,-1.488,0.262,-2.869,118.530,69.824
0.000,-1.444,0.279,-4.639,118.835,74.097
0.001,-1.382,0.283,-5.615,120.605,77.698
-0.007,-1.302,0.292,-6.714,124.573,78.735
0.013,-1.254,0.290,-8.240,129.761,76.355
0.047,-1.212,0.281,-10.681,134.583,72.937
0.080,-1.157,0.266,-13.916,138.184,68.665
0.104,-1.102,0.252,-17.639,140.259,63.110
0.125,-1.043,0.242,-20.752,140.564,56.335
0.144,-0.997,0.229,-22.217,138.794,49.316
0.160,-0.948,0.199,-22.217,135.986,41.504
0.165,-0.884,0.159,-20.874,132.935,33.936
0.169,-0.813,0.107,-17.822,130.981,27.344
0.185,-0.755,0.062,-13.794,131.104,22.400
0.214,-0.708,0.039,-8.667,133.362,18.982
0.261,-0.705,0.055,-3.174,134.827,16.724
0.286,-0.515,0.146,0.427,132.751,13.367
0.326,-0.704,0.141,1.770,121.582,17.151
0.342,-0.619,0.026,3.296,107.727,13.794
0.363,-0.654,0.122,3.113,108.032,15.259
0.363,-0.485,0.162,0.427,96.741,7.629
0.399,-0.424,0.161,1.160,82.336,11.292
0.394,-0.473,0.160,3.174,67.871,13.428
0.368,-0.534,0.184,2.136,55.603,10.742
0.366,-0.479,0.168,0.671,40.466,6.653
0.375,-0.438,0.136,0.610,28.015,5.920
0.357,-0.471,0.141,2.747,20.935,8.667
0.341,-0.491,0.136,3.235,12.573,9.399
0.337,-0.452,0.119,2.747,5.554,10.742
0.330,-0.445,0.104,3.479,2.136,15.564
0.329,-0.459,0.100,5.127,0.244,19.592
0.330,-0.491,0.100,6.470,-0.916,22.949
0.324,-0.507,0.091,8.545,-1.099,25.940
0.314,-0.519,0.081,10.132,0.122,29.175
0.300,-0.546,0.074,11.536,2.930,32.471
0.291,-0.584,0.061,12.817,6.958,35.095
0.286,-0.640,0.049,14.099,12.085,37.415
0.285,-0.680,0.046,15.076,18.250,38.757
0.280,-0.718,0.045,15.503,25.024,39.673
0.277,-0.763,0.045,15.625,32.043,40.039
0.279,-0.817,0.045,14.771,39.185,38.940
0.285,-0.866,0.044,13.855,46.448,35.645
0.301,-0.906,0.047,12.024,53.528,31.006
0.319,-0.926,0.042,10.254,60.059,25.574
0.346,-0.957,0.040,9.033,65.979,20.935
0.389,-0.985,0.041,7.812,70.435,16.113
0.424,-1.003,0.039,5.676,73.547,9.644
0.462,-1.000,0.043,3.052,75.806,2.930
0.501,-0.990,0.045,-0.549,76.965,-2.686
0.530,-0.968,0.040,-4.822,76.721,-7.385
0.553,-0.938,0.032,-9.094,75.806,-11.841
0.577,-0.908,0.025,-12.878,73.730,-14.954
0.599,-0.879,0.017,-16.418,70.923,-16.541
0.611,-0.844,0.009,-19.226,67.200,-16.907
0.615,-0.821,0.002,-21.606,63.782,-15.198
0.624,-0.803,-0.001,-22.766,60.059,-11.963
0.623,-0.783,-0.006,-22.705,56.335,-7.507
0.608,-0.779,-0.010,-21.973,52.795,-2.441
0.587,-0.783,-0.015,-20.569,49.561,2.808
0.568,-0.794,-0.024,-18.799,46.326,7.568
0.551,-0.812,-0.028,-17.517,43.945,11.841
0.538,-0.834,-0.025,-15.930,42.053,14.893
0.530,-0.855,-0.021,-14.465,39.917,16.296
0.521,-0.873,-0.017,-12.634,37.354,16.418
0.513,-0.881,-0.010,-10.803,34.119,15.747
0.518,-0.887,-0.004,-8.179,30.029,14.648
0.525,-0.898,-0.000,-5.615,24.841,13.367
0.519,-0.912,0.001,-3.357,19.348,12.024
0.521,-0.916,0.006,-0.793,13.611,11.475
0.531,-0.915,0.010,2.380,7.568,11.047
0.529,-0.915,0.016,5.188,1.465,10.498
0.520,-0.912,0.013,8.057,-3.723,9.949
0.511,-0.906,0.012,10.315,-7.935,9.460
0.502,-0.900,0.012,12.573,-11.169,9.277
0.497,-0.893,0.016,14.099,-13.733,9.094
0.489,-0.894,0.017,15.076,-15.442,8.911
0.479,-0.896,0.016,15.991,-16.479,8.911
0.482,-0.887,0.023,16.663,-16.418,9.644
0.484,-0.879,0.030,17.029,-16.785,10.559
0.478,-0.881,0.036,16.907,-17.700,11.475
0.469,-0.883,0.041,16.113,-18.311,11.963
0.465,-0.887,0.043,14.587,-18.921,11.841
0.460,-0.897,0.039,12.878,-19.470,11.292
0.448,-0.912,0.035,11.047,-20.264,10.498
0.444,-0.913,0.034,9.583,-20.691,10.071
0.442,-0.909,0.034,7.874,-21.545,10.132
0.433,-0.908,0.031,6.287,-22.278,10.376
0.423,-0.913,0.029,4.517,-22.522,10.315
0.407,-0.914,0.022,2.686,-22.339,9.460
0.391,-0.914,0.013,0.916,-21.301,8.667
0.386,-0.906,0.010,0.122,-19.592,7.874

0.731,-1.731,-0.449,-26.611,153.687,-6.836
0.629,-1.793,-0.574,-26.672,168.762,-1.465
0.748,-2.052,-0.546,-22.827,175.598,2.930
1.009,-2.121,-0.512,-22.522,167.725,4.944
1.102,-1.979,-0.484,-24.109,150.879,7.568
1.113,-1.871,-0.418,-21.057,133.911,7.874
1.158,-1.792,-0.361,-15.320,116.943,7.385
1.240,-1.722,-0.305,-11.963,98.572,8.301
1.258,-1.610,-0.264,-11.414,77.332,8.972
1.205,-1.516,-0.230,-11.963,52.490,8.850
1.115,-1.451,-0.219,-11.719,27.161,7.263
1.016,-1.414,-0.198,-10.376,3.662,4.517
0.915,-1.383,-0.171,-7.690,-16.052,0.671
0.816,-1.411,-0.160,-6.348,-31.372,-2.258
0.743,-1.445,-0.141,-6.104,-42.114,-5.493
0.668,-1.492,-0.141,-8.972,-50.232,-10.559
0.619,-1.537,-0.131,-13.000,-55.420,-16.724
0.610,-1.557,-0.126,-16.541,-58.838,-23.132
0.590,-1.568,-0.113,-20.264,-62.683,-28.870
0.575,-1.569,-0.099,-22.156,-68.604,-33.752
0.578,-1.562,-0.071,-24.170,-75.623,-39.001
0.590,-1.566,-0.035,-25.635,-81.055,-44.739
0.599,-1.606,-0.000,-27.405,-86.060,-50.049
0.604,-1.641,0.036,-32.227,-91.553,-53.955
0.597,-1.624,0.066,-40.161,-99.243,-57.800
0.573,-1.568,0.083,-46.936,-109.680,-61.340
0.533,-1.499,0.082,-49.683,-119.995,-62.866
0.496,-1.435,0.065,-47.913,-126.953,-60.608
0.473,-1.383,0.035,-41.931,-129.395,-54.932
0.446,-1.294,0.030,-35.400,-126.465,-47.974
0.414,-1.223,0.053,-28.015,-117.859,-39.490
0.378,-1.167,0.088,-20.264,-106.567,-31.189
0.356,-1.155,0.115,-13.733,-94.238,-23.865
0.346,-1.126,0.099,-9.155,-80.811,-18.677
0.324,-1.093,0.084,-7.141,-64.636,-14.832
0.295,-1.058,0.045,-6.287,-47.729,-11.597
0.286,-1.132,0.080,-6.348,-28.564,-11.108
0.265,-0.929,0.022,-9.460,-12.024,-14.648
0.300,-0.936,0.029,-6.836,3.662,-12.146
0.324,-0.827,-0.009,-5.249,17.456,-14.954
0.331,-0.769,0.019,-1.892,33.386,-11.841
0.381,-0.742,0.043,1.099,44.556,-7.446
0.413,-0.724,0.030,5.066,50.720,-4.456
0.414,-0.701,0.046,10.193,53.650,-3.235
0.438,-0.665,0.086,14.709,52.429,-3.174
0.467,-0.619,0.109,18.250,44.861,-3.357
0.490,-0.577,0.128,20.691,33.630,-2.930
0.478,-0.517,0.109,23.193,20.813,-0.916
0.453,-0.490,0.082,27.527,9.949,4.272
0.417,-0.468,0.062,32.471,1.282,10.315
0.396,-0.457,0.058,36.926,-5.310,16.052
0.395,-0.442,0.048,40.222,-10.803,21.667
0.391,-0.439,0.044,42.786,-14.343,28.076
0.378,-0.448,0.041,44.861,-16.113,34.058
0.365,-0.448,0.027,45.166,-16.846,39.124
0.364,-0.445,0.024,44.739,-15.930,44.617
0.365,-0.435,0.023,43.152,-14.709,50.537
0.369,-0.444,0.020,41.626,-13.489,56.763
0.381,-0.474,0.024,40.039,-12.512,62.073
0.388,-0.495,0.021,38.330,-11.292,66.223
0.391,-0.514,0.022,36.438,-9.644,70.129
0.390,-0.557,0.022,34.607,-8.423,74.036
0.387,-0.609,0.017,32.776,-7.019,77.698
0.383,-0.641,0.021,29.968,-5.371,80.322
0.368,-0.666,0.023,26.245,-3.967,82.581
0.344,-0.714,0.024,22.339,-2.441,84.900
0.321,-0.764,0.020,17.761,-0.488,85.938
0.293,-0.809,0.012,12.878,1.709,85.327
0.275,-0.845,0.006,8.179,5.188,83.069
0.269,-0.868,0.001,4.395,9.460,79.407
0.275,-0.889,0.002,1.282,14.221,74.890
0.296,-0.900,0.004,-1.465,18.799,69.946
0.316,-0.913,0.001,-3.967,22.156,64.331
0.339,-0.926,-0.010,-6.104,24.658,57.495
0.381,-0.932,-0.011,-8.301,26.123,51.147
0.447,-0.926,0.002,-10.803,26.245,46.692
0.510,-0.894,0.006,-13.367,23.560,43.945
0.556,-0.853,0.009,-16.663,17.700,41.626
0.588,-0.815,0.002,-19.775,9.705,39.307
0.609,-0.775,-0.012,-22.156,1.770,36.499
0.615,-0.735,-0.030,-23.865,-4.578,32.593
0.627,-0.705,-0.037,-23.987,-9.521,28.015
0.629,-0.685,-0.049,-22.522,-13.855,23.621
0.613,-0.665,-0.057,-20.813,-16.296,20.325
0.608,-0.647,-0.050,-17.578,-17.517,18.738
0.604,-0.640,-0.047,-13.611,-18.860,17.944
0.604,-0.648,-0.035,-9.399,-19.226,17.944
0.601,-0.660,-0.024,-5.249,-19.531,18.433
0.592,-0.672,-0.022,-0.732,-20.264,19.043
0.587,-0.687,-0.018,2.808,-21.362,19.653
0.589,-0.709,-0.011,6.042,-23.132,19.470
0.590,-0.737,-0.014,8.667,-24.658,17.944
0.590,-0.767,-0.012,10.437,-25.940,15.381
0.592,-0.785,-0.009,12.085,-27.466,11.902
0.596,-0.798,-0.001,13.855,-29.053,7.935
0.605,-0.807,0.007,15.625,-30.579,4.333
0.619,-0.816,0.025,17.395,-32.532,0.916
0.636,-0.822,0.039,18.860,-35.461,-2.136
0.654,-0.828,0.050,20.142,-39.551,-4.272
0.661,-0.831,0.059,21.362,-44.189,-6.226
0.667,-0.831,0.066,23.010,-49.377,-7.019
0.674,-0.830,0.072,24.292,-54.565,-6.836
0.677,-0.825,0.077,25.574,-59.326,-6.226
0.674,-0.816,0.086,26.672,-63.477,-5.371
0.668,-0.807,0.094,27.893,-67.017,-4.700
0.664,-0.809,0.099,29.175,-69.885,-4.272
0.653,-0.813,0.102,29.907,-72.571,-3.845
0.639,-0.814,0.107,30.334,-74.463,-3.662
0.630,-0.815,0.114,30.212,-75.867,-4.211
0.615,-0.818,0.120,30.212,-77.026,-5.066
0.600,-0.820,0.126,30.212,-78.003,-5.859
0.595,-0.815,0.119,30.884,-79.224,-6.409
0.593,-0.817,0.130,31.433,-80.261,-6.042
0.582,-0.811,0.145,31.189,-81.482,-4.517
0.593,-0.812,0.128,30.884,-84.351,-3.113
0.615,-0.826,0.113,30.396,-86.487,-0.671
0.617,-0.844,0.120,29.785,-87.585,2.197
0.599,-0.860,0.127,28.198,-88.501,2.808
0.576,-0.872,0.137,25.757,-88.867,0.549

-0.064,-0.835,1.271,-44.434,17.639,-76.233
-0.197,-0.448,1.039,-71.106,4.883,-76.660
0.030,-0.381,0.679,-74.524,-14.343,-79.468
0.123,-0.387,0.331,-59.326,-20.386,-78.857
0.188,-0.417,0.251,-43.335,-6.042,-72.937
0.233,-0.455,0.201,-40.649,5.249,-67.749
0.301,-0.430,0.023,-46.082,-0.854,-68.970
0.294,-0.549,-0.090,-46.936,-18.860,-68.298
0.094,-0.725,-0.023,-37.231,-35.706,-70.313
-0.210,-1.008,0.156,-19.897,-38.696,-83.130
-0.266,-1.177,0.337,-8.545,-21.973,-93.323
-0.276,-1.311,0.450,-9.277,6.592,-91.980
-0.441,-1.291,0.497,-17.578,30.884,-93.994
-0.325,-1.355,0.387,-30.945,51.758,-98.694
-0.184,-1.165,0.030,-42.847,61.218,-97.717
-0.106,-1.400,-0.080,-49.438,61.890,-87.036
-0.151,-1.684,-0.013,-61.768,63.660,-71.350
-0.175,-2.156,0.150,-81.604,60.730,-61.707
-0.047,-2.135,0.227,-89.539,49.316,-69.885
0.164,-1.958,0.243,-84.351,42.053,-70.251
0.258,-2.062,0.344,-73.242,27.466,-56.030
0.095,-1.978,0.271,-58.044,-0.793,-49.255
-0.116,-1.879,0.112,-49.316,-20.325,-41.870
-0.305,-1.830,0.027,-45.776,-28.259,-33.752
-0.463,-1.786,-0.010,-43.030,-31.311,-30.396
-0.635,-1.774,-0.012,-35.889,-28.809,-30.029
-0.706,-1.668,-0.061,-30.579,-18.433,-31.067
-0.614,-1.643,0.032,-24.719,-5.432,-29.846
-0.533,-1.600,0.153,-17.883,5.676,-24.414
-0.506,-1.472,0.087,-12.939,11.108,-16.907
-0.399,-1.537,0.218,-7.690,14.343,-7.690
-0.426,-1.433,0.187,-2.258,10.864,-2.991
-0.411,-1.378,0.160,1.709,10.620,3.174
-0.445,-1.300,0.156,3.662,11.414,9.094
-0.458,-1.243,0.149,2.686,13.855,15.320
-0.475,-1.157,0.156,1.526,18.555,19.592
-0.482,-1.095,0.177,1.831,24.536,23.193
-0.483,-1.073,0.170,4.150,31.677,27.100
-0.471,-1.091,0.175,9.277,40.466,30.151
-0.449,-1.177,0.168,16.602,50.049,33.447
-0.448,-1.245,0.137,21.606,59.265,35.950
-0.484,-1.273,0.120,24.780,70.435,37.537
-0.459,-1.405,0.121,28.076,86.670,38.147
-0.401,-1.482,0.127,28.992,105.774,38.269
-0.306,-1.571,0.158,27.222,122.925,38.208
-0.258,-1.675,0.201,25.452,136.536,38.025
-0.216,-1.719,0.291,23.010,148.682,38.391
-0.078,-1.716,0.408,24.109,155.273,39.551
0.104,-1.699,0.480,32.715,151.550,44.739
0.222,-1.751,0.516,42.664,134.583,55.664
0.273,-1.873,0.493,50.415,107.727,68.054
0.344,-1.909,0.455,51.758,76.782,76.843
0.427,-1.847,0.448,44.922,49.194,81.116
0.445,-1.755,0.418,34.058,27.954,82.153
0.378,-1.650,0.324,21.606,12.024,81.787
0.288,-1.523,0.242,8.728,4.272,81.238
0.225,-1.408,0.194,-3.174,4.150,80.688
0.201,-1.288,0.157,-12.390,7.690,80.200
0.194,-1.181,0.128,-17.822,13.000,80.261
0.196,-1.099,0.110,-18.494,19.470,81.787
0.211,-1.029,0.105,-15.564,26.062,84.167
0.224,-0.972,0.110,-10.132,31.799,86.060
0.235,-0.914,0.116,-3.418,36.133,86.121
0.256,-0.857,0.108,4.333,38.452,84.167
0.291,-0.841,0.125,12.329,40.222,81.543
0.310,-0.693,0.147,19.165,39.673,78.308
0.318,-0.704,0.127,26.917,36.865,80.139
0.327,-0.665,0.134,31.067,34.424,76.660
0.325,-0.637,0.156,33.508,30.273,74.402
0.314,-0.595,0.155,32.898,25.391,72.266
0.299,-0.557,0.140,31.128,20.752,70.679
0.301,-0.484,0.186,27.771,17.517,69.092
0.283,-0.393,0.141,24.109,13.000,70.374
0.279,-0.414,0.147,22.705,12.634,74.646
0.276,-0.408,0.147,20.386,11.780,75.012
0.272,-0.364,0.134,17.029,11.719,76.721
0.263,-0.350,0.118,15.015,12.390,79.285
0.265,-0.374,0.125,13.916,13.916,79.468
0.253,-0.387,0.121,12.573,14.893,77.026
0.245,-0.407,0.121,11.414,15.869,73.608
0.250,-0.397,0.121,10.498,16.541,69.580
0.262,-0.364,0.119,8.850,16.541,65.979
0.260,-0.353,0.122,7.690,16.235,64.148
0.247,-0.362,0.131,6.836,15.076,62.683
0.239,-0.373,0.133,5.798,12.878,61.401
0.244,-0.383,0.133,4.639,9.888,59.814
0.247,-0.398,0.129,2.808,6.287,57.373
0.240,-0.434,0.118,0.366,3.113,54.260
0.235,-0.472,0.101,-2.258,0.854,50.720
0.232,-0.503,0.091,-5.371,0.427,47.241
0.223,-0.528,0.077,-7.935,1.404,44.250
0.221,-0.546,0.066,-8.789,2.930,42.236
0.233,-0.603,0.069,-8.728,5.554,40.466
0.256,-0.662,0.081,-8.057,9.155,36.133
0.271,-0.689,0.090,-7.141,12.695,29.419
0.291,-0.709,0.099,-5.981,16.602,22.888
0.327,-0.750,0.110,-4.822,20.325,16.479
0.370,-0.802,0.119,-4.333,23.071,10.132
0.418,-0.850,0.124,-5.615,25.330,3.784
0.468,-0.885,0.133,-7.629,27.100,-2.625
0.531,-0.907,0.143,-9.338,28.015,-8.911
0.610,-0.911,0.159,-9.949,27.588,-15.625
0.678,-0.906,0.179,-10.010,25.391,-22.095
0.716,-0.892,0.195,-9.399,20.813,-26.978
0.727,-0.869,0.203,-8.850,14.526,-28.870
0.721,-0.849,0.210,-8.606,7.202,-28.015
0.703,-0.836,0.213,-9.033,0.244,-25.330
0.675,-0.833,0.207,-9.460,-5.310,-21.912
0.646,-0.840,0.197,-10.681,-9.094,-18.555
0.613,-0.855,0.188,-12.573,-10.620,-15.442
0.577,-0.869,0.165,-15.198,-10.193,-12.939
0.544,-0.869,0.145,-18.372,-7.935,-11.047
0.511,-0.865,0.129,-21.484,-3.845,-9.583
0.489,-0.860,0.118,-24.109,1.099,-8.423
0.483,-0.861,0.112,-25.635,6.287,-7.263
0.484,-0.857,0.108,-25.696,10.620,-6.104
0.488,-0.857,0.107,-25.146,13.977,-4.761
0.488,-0.863,0.105,-22.705,15.930,-3.784
0.486,-0.874,0.109,-18.921,16.968,-3.845

0.813,-2.356,-0.148,-24.109,123.901,-17.700
0.590,-2.373,-0.170,-32.227,121.094,-16.602
0.667,-2.477,-0.233,-31.555,99.548,-24.414
0.782,-2.377,-0.294,-36.560,76.782,-16.418
0.848,-2.373,-0.251,-35.889,56.091,-12.512
0.837,-2.316,-0.148,-31.128,36.560,-9.949
0.773,-2.201,-0.169,-27.771,15.564,-11.780
0.706,-2.073,-0.170,-22.827,-7.690,-11.780
0.540,-1.951,-0.176,-19.104,-30.457,-11.719
0.377,-1.854,-0.161,-17.456,-48.706,-9.460
0.211,-1.737,-0.152,-16.907,-59.692,-5.005
0.053,-1.644,-0.173,-17.029,-65.125,-0.793
-0.095,-1.532,-0.172,-14.282,-65.063,3.052
-0.208,-1.427,-0.113,-13.000,-57.312,5.554
-0.250,-1.407,-0.069,-13.489,-44.556,8.118
-0.260,-1.373,-0.024,-14.709,-30.640,9.460
-0.234,-1.353,0.034,-15.869,-17.029,9.094
-0.217,-1.334,0.057,-16.418,-5.005,7.874
-0.198,-1.350,0.065,-14.954,7.263,5.859
-0.146,-1.390,0.084,-13.184,21.301,6.287
-0.082,-1.430,0.147,-12.024,36.987,8.667
0.009,-1.486,0.206,-9.216,54.260,11.047
0.096,-1.552,0.219,-5.981,66.040,13.428
0.175,-1.599,0.189,-2.197,70.129,12.512
0.251,-1.608,0.156,3.784,68.909,10.620
0.338,-1.573,0.154,9.888,61.951,10.986
0.409,-1.595,0.146,18.372,50.293,11.902
0.397,-1.603,0.164,24.963,37.292,12.390
0.361,-1.557,0.199,26.428,26.184,10.803
0.366,-1.503,0.204,26.245,15.869,7.446
0.366,-1.453,0.186,24.475,8.179,2.625
0.351,-1.407,0.175,21.057,4.272,-2.625
0.344,-1.371,0.172,15.930,2.930,-7.263
0.344,-1.319,0.156,9.705,2.014,-11.230
0.345,-1.262,0.136,2.075,1.770,-13.306
0.347,-1.197,0.114,-5.371,2.197,-14.404
0.347,-1.129,0.100,-11.414,2.869,-14.709
0.344,-1.062,0.096,-15.686,2.869,-14.282
0.339,-1.001,0.096,-18.066,2.136,-13.184
0.336,-0.935,0.094,-18.372,0.183,-11.780
0.336,-0.860,0.080,-17.212,-2.014,-9.888
0.336,-0.777,0.064,-14.526,-4.089,-7.019
0.333,-0.703,0.038,-10.681,-4.822,-3.418
0.314,-0.650,0.002,-5.554,-3.601,0.671
0.310,-0.639,0.018,0.305,0.244,5.676
0.277,-0.557,0.059,4.700,2.625,6.836
0.293,-0.435,0.051,7.141,3.906,13.428
0.348,-0.722,0.058,13.184,5.493,24.414
0.326,-0.567,0.015,11.597,3.662,13.184
0.304,-0.377,0.059,14.038,9.094,17.090
0.301,-0.463,0.073,18.921,12.024,25.330
0.333,-0.496,0.087,20.203,9.827,23.560
0.309,-0.452,0.095,19.958,6.592,23.315
0.299,-0.469,0.131,19.714,2.869,25.818
0.318,-0.447,0.114,18.738,-4.639,25.513
0.326,-0.450,0.115,18.250,-11.108,27.161
0.312,-0.450,0.100,17.517,-18.250,27.649
0.302,-0.442,0.089,16.357,-24.109,28.015
0.289,-0.382,0.097,15.320,-28.320,28.931
0.290,-0.407,0.082,15.991,-32.776,31.982
0.281,-0.447,0.068,18.127,-37.231,32.837
0.282,-0.457,0.073,19.958,-40.588,32.288
0.290,-0.479,0.082,23.071,-43.030,32.959
0.289,-0.513,0.095,25.635,-45.471,33.447
0.272,-0.542,0.097,27.222,-48.340,34.180
0.245,-0.585,0.088,28.442,-50.659,36.072
0.220,-0.643,0.085,29.419,-51.758,38.330
0.193,-0.703,0.081,29.541,-51.880,40.771
0.160,-0.747,0.073,28.625,-50.476,42.419
0.129,-0.770,0.070,26.123,-46.814,43.030
0.104,-0.806,0.062,22.461,-41.443,42.786
0.084,-0.855,0.054,18.127,-34.485,41.321
0.065,-0.908,0.049,13.000,-25.879,37.781
0.057,-0.950,0.046,7.263,-15.869,32.349
0.065,-0.992,0.045,2.075,-5.371,25.635
0.089,-1.033,0.048,-3.601,5.615,18.433
0.123,-1.062,0.053,-8.667,16.602,10.010
0.164,-1.066,0.056,-12.817,26.245,0.427
0.216,-1.051,0.066,-16.418,34.058,-9.460
0.280,-1.028,0.062,-18.860,39.856,-18.738
0.356,-0.999,0.062,-19.287,44.312,-27.100
0.425,-0.973,0.068,-19.287,46.265,-33.386
0.481,-0.956,0.076,-18.494,45.715,-38.147
0.515,-0.932,0.071,-17.700,43.640,-40.283
0.542,-0.901,0.068,-16.541,40.588,-38.757
0.567,-0.870,0.076,-15.076,36.804,-33.752
0.576,-0.865,0.072,-12.634,31.616,-25.879
0.571,-0.882,0.065,-10.132,27.161,-16.174
0.554,-0.905,0.068,-7.507,23.499,-6.836
0.517,-0.921,0.054,-5.432,20.691,0.427
0.492,-0.934,0.051,-4.150,19.592,6.348
0.466,-0.955,0.042,-4.150,19.409,10.864
0.445,-0.984,0.033,-4.150,20.020,13.550
0.432,-0.999,0.034,-4.944,21.179,14.465
0.432,-1.001,0.039,-5.493,21.912,14.099
0.441,-1.009,0.050,-5.798,21.179,13.123
0.454,-1.022,0.064,-5.920,18.433,11.597
0.464,-1.028,0.077,-5.188,13.672,9.766
0.470,-1.027,0.086,-4.150,7.080,8.301
0.473,-1.025,0.093,-3.113,-0.427,7.324
0.470,-1.017,0.095,-1.221,-8.423,7.385
0.462,-1.005,0.094,0.793,-16.724,8.423
0.451,-0.995,0.091,2.930,-24.597,10.193
0.446,-0.983,0.090,4.822,-31.067,13.184
0.436,-0.978,0.090,6.348,-36.133,16.113
0.416,-0.981,0.090,6.897,-39.429,18.494
0.398,-0.982,0.090,7.019,-40.833,20.081
0.382,-0.980,0.089,6.531,-40.649,20.935
0.367,-0.975,0.089,5.493,-39.063,21.301
0.354,-0.970,0.088,4.211,-37.048,21.362
0.344,-0.962,0.087,2.380,-33.752,21.606
0.334,-0.959,0.084,0.366,-29.968,21.790
0.324,-0.959,0.080,-1.404,-25.635,21.790
0.318,-0.958,0.076,-3.662,-20.935,21.667
0.314,-0.960,0.069,-5.859,-16.052,21.057
0.312,-0.962,0.062,-7.385,-11.169,20.508
0.313,-0.971,0.059,-9.155,-6.470,19.958
0.312,-0.982,0.049,-10.193,-1.953,19.165
0.317,-0.980,0.043,-10.498,2.747,18.616

0.329,-1.997,-0.311,-37.537,84.534,-31.738
0.344,-2.029,-0.249,-30.212,91.003,-41.321
0.564,-1.931,-0.195,-21.118,96.008,-38.635
0.604,-1.791,-0.150,-13.123,95.703,-23.743
0.388,-1.812,-0.279,-6.409,90.149,-16.296
0.443,-1.983,-0.369,-0.427,82.031,-11.475
0.511,-1.959,-0.334,-1.160,76.660,-0.122
0.483,-1.933,-0.322,-2.869,67.810,7.141
0.443,-1.925,-0.311,-0.610,60.120,11.658
0.452,-1.865,-0.326,3.235,56.213,13.306
0.488,-1.773,-0.307,7.812,53.589,14.465
0.463,-1.693,-0.281,12.634,47.913,12.756
0.443,-1.628,-0.220,15.198,41.992,9.583
0.412,-1.554,-0.200,15.930,33.386,5.798
0.387,-1.484,-0.186,16.724,24.475,2.319
0.364,-1.425,-0.172,17.700,17.151,-0.427
0.325,-1.405,-0.170,20.691,11.719,-2.747
0.305,-1.419,-0.138,22.949,9.644,-4.211
0.310,-1.452,-0.109,24.353,8.423,-4.456
0.311,-1.519,-0.106,23.437,5.310,-6.775
0.324,-1.590,-0.102,20.325,2.014,-10.071
0.310,-1.630,-0.115,15.564,-0.488,-12.573
0.321,-1.663,-0.113,10.925,-2.258,-15.259
0.381,-1.672,-0.087,4.639,-4.517,-18.372
0.449,-1.703,-0.030,-3.052,-8.606,-22.034
0.519,-1.744,0.029,-12.085,-18.005,-25.146
0.543,-1.760,0.040,-23.193,-33.630,-27.466
0.523,-1.709,0.025,-34.241,-51.392,-29.663
0.510,-1.633,0.001,-41.870,-68.176,-30.457
0.500,-1.550,0.002,-46.692,-79.224,-29.846
0.462,-1.469,0.013,-49.561,-82.458,-27.283
0.400,-1.408,0.017,-50.232,-79.102,-23.132
0.345,-1.355,0.021,-49.744,-70.679,-18.982
0.322,-1.291,0.024,-49.805,-59.204,-14.832
0.321,-1.226,0.025,-49.744,-46.631,-10.071
0.323,-1.164,0.020,-49.744,-34.302,-5.066
0.316,-1.101,0.008,-49.683,-22.949,-0.427
0.306,-1.045,0.001,-48.401,-12.390,4.761
0.299,-1.001,0.000,-45.959,-3.357,9.399
0.302,-0.960,0.002,-42.664,4.700,12.817
0.310,-0.911,-0.000,-37.598,10.986,15.259
0.311,-0.860,-0.012,-30.579,16.724,17.578
0.300,-0.822,-0.033,-22.522,22.339,19.531
0.313,-0.848,-0.031,-14.160,28.137,20.142
0.257,-0.704,-0.016,-7.996,33.447,19.043
0.307,-0.704,0.022,-2.380,39.124,23.926
0.370,-0.739,-0.024,2.319,37.598,25.085
0.328,-0.616,-0.077,7.690,36.743,22.278
0.293,-0.654,-0.035,16.296,39.917,23.437
0.336,-0.626,0.016,22.461,39.673,20.447
0.390,-0.632,0.068,26.428,33.447,19.043
0.407,-0.590,0.080,27.283,22.461,17.761
0.407,-0.578,0.103,27.771,10.071,18.738
0.395,-0.561,0.107,27.527,-3.357,19.165
0.383,-0.538,0.091,27.100,-16.296,20.142
0.357,-0.517,0.072,26.855,-27.527,21.484
0.336,-0.501,0.067,26.062,-36.194,22.522
0.324,-0.489,0.061,25.146,-43.701,23.254
0.318,-0.479,0.059,24.292,-49.194,23.926
0.310,-0.481,0.057,23.376,-52.979,24.841
0.296,-0.488,0.054,22.583,-55.969,25.574
0.290,-0.493,0.048,22.156,-58.167,26.062
0.290,-0.506,0.041,21.606,-59.265,27.649
0.289,-0.532,0.037,21.362,-59.387,29.541
0.277,-0.557,0.034,20.996,-58.716,31.372
0.263,-0.575,0.030,20.691,-57.190,33.264
0.251,-0.589,0.031,19.714,-55.054,34.851
0.238,-0.617,0.029,18.982,-52.124,36.926
0.220,-0.654,0.031,17.578,-48.523,38.940
0.202,-0.696,0.034,15.930,-44.128,40.405
0.182,-0.744,0.034,13.306,-39.307,40.405
0.164,-0.793,0.034,10.315,-33.569,38.757
0.145,-0.832,0.033,7.263,-27.222,35.767
0.133,-0.860,0.032,4.395,-20.386,32.227
0.128,-0.882,0.031,1.404,-13.245,28.137
0.126,-0.906,0.031,-0.977,-6.348,23.193
0.128,-0.927,0.031,-3.540,0.488,17.212
0.137,-0.939,0.028,-5.920,7.324,10.193
0.150,-0.948,0.022,-8.423,13.916,2.563
0.168,-0.952,0.015,-10.376,20.691,-5.066
0.185,-0.950,0.003,-11.780,28.015,-13.062
0.210,-0.947,-0.003,-12.390,35.828,-20.447
0.246,-0.936,-0.004,-12.390,44.373,-26.184
0.288,-0.918,-0.005,-12.146,52.246,-30.701
0.329,-0.901,-0.011,-11.475,59.326,-33.264
0.371,-0.891,-0.004,-11.292,66.040,-33.508
0.412,-0.878,0.001,-12.329,71.167,-31.921
0.440,-0.873,-0.001,-13.550,74.463,-29.053
0.455,-0.872,-0.011,-14.893,76.355,-25.330
0.468,-0.882,-0.023,-15.686,77.271,-21.545
0.480,-0.901,-0.028,-16.296,77.637,-17.944
0.495,-0.920,-0.025,-16.907,77.515,-14.343
0.502,-0.938,-0.016,-17.456,76.477,-10.925
0.510,-0.953,-0.010,-17.151,74.524,-8.423
0.515,-0.958,-0.003,-16.418,71.411,-6.592
0.523,-0.964,0.002,-16.113,67.322,-4.761
0.525,-0.975,0.003,-16.235,62.073,-3.418
0.523,-0.986,-0.001,-16.541,55.908,-2.686
0.526,-0.987,-0.002,-16.785,49.561,-1.953
0.530,-0.985,-0.003,-16.907,42.664,-1.160
0.528,-0.990,-0.004,-16.235,35.461,-0.488
0.528,-0.985,-0.004,-15.625,28.687,-0.183
0.529,-0.969,-0.003,-14.465,22.034,-0.183
0.526,-0.953,-0.000,-12.939,15.991,-0.244
0.518,-0.939,0.001,-10.986,10.254,-0.427
0.510,-0.929,0.000,-8.728,5.188,-0.732
0.502,-0.927,0.001,-6.287,0.793,-0.183
0.500,-0.926,0.005,-3.784,-2.930,0.793
0.496,-0.923,0.010,-1.465,-6.470,2.319
0.490,-0.920,0.019,0.244,-9.399,4.089
0.483,-0.917,0.026,1.526,-12.268,5.859
0.471,-0.912,0.028,2.563,-15.259,7.202
0.462,-0.910,0.031,3.296,-17.883,8.667
0.455,-0.919,0.035,3.845,-20.508,10.010
0.449,-0.929,0.039,3.601,-22.461,10.986
0.440,-0.928,0.041,3.052,-24.414,11.658
0.432,-0.930,0.042,2.502,-26.367,12.329
0.428,-0.937,0.044,1.953,-28.198,13.000
0.415,-0.942,0.041,1.221,-29.419,13.611

0.358,-2.174,0.023,-27.588,34.119,-92.590
0.449,-2.016,-0.020,-35.034,33.264,-77.087
0.389,-1.914,-0.050,-38.940,20.569,-66.772
0.373,-1.841,-0.017,-38.879,2.686,-53.650
0.239,-1.737,0.012,-38.330,-8.667,-37.109
0.113,-1.585,0.025,-34.424,-15.686,-24.780
0.020,-1.427,0.010,-29.663,-14.526,-13.367
-0.085,-1.407,0.012,-23.621,-9.949,-3.662
-0.167,-1.486,-0.008,-16.541,-6.348,2.502
-0.174,-1.499,-0.032,-10.681,0.549,4.211
-0.105,-1.492,-0.016,-4.456,12.573,1.404
0.004,-1.579,0.037,0.916,21.790,-2.136
0.128,-1.605,0.096,4.761,22.339,-3.357
0.163,-1.566,0.108,6.226,15.564,-3.967
0.196,-1.560,0.129,5.737,6.592,-3.845
0.186,-1.501,0.160,5.920,-2.869,-3.662
0.135,-1.453,0.166,5.554,-13.123,-3.845
0.052,-1.395,0.174,5.371,-21.301,-5.005
-0.021,-1.294,0.181,6.531,-26.001,-6.714
-0.087,-1.222,0.178,7.812,-26.672,-7.446
-0.155,-1.171,0.158,10.315,-25.696,-7.202
-0.204,-1.152,0.158,13.306,-23.071,-6.287
-0.235,-1.156,0.161,17.212,-17.029,-5.066
-0.245,-1.181,0.137,20.508,-8.057,-3.845
-0.249,-1.223,0.108,23.132,1.831,-2.197
-0.283,-1.275,0.072,24.414,12.573,0.793
-0.264,-1.353,0.033,25.574,25.818,4.333
-0.256,-1.403,0.013,24.536,42.480,8.667
-0.225,-1.473,0.057,22.217,61.707,12.512
-0.148,-1.528,0.134,17.212,81.665,17.273
-0.038,-1.570,0.232,11.353,97.351,21.057
0.105,-1.603,0.298,4.150,106.018,23.987
0.266,-1.612,0.346,-2.808,105.469,29.297
0.388,-1.599,0.405,-7.629,94.482,38.635
0.440,-1.603,0.454,-10.681,76.233,48.645
0.453,-1.553,0.431,-13.123,53.040,54.382
0.437,-1.588,0.412,-14.221,26.550,58.533
0.409,-1.468,0.348,-16.235,2.502,53.955
0.386,-1.385,0.281,-16.663,-12.512,48.218
0.354,-1.340,0.237,-17.090,-19.348,43.152
0.302,-1.265,0.201,-19.897,-19.531,37.170
0.252,-1.216,0.142,-23.376,-14.282,32.837
0.253,-1.094,0.174,-26.794,-5.005,27.649
0.198,-1.026,0.039,-26.611,4.333,24.841
0.214,-0.900,0.138,-23.132,20.325,20.752
0.202,-0.865,0.083,-18.188,30.029,20.508
0.197,-0.783,0.088,-11.963,41.321,17.090
0.201,-0.732,0.075,-5.981,50.903,15.259
0.212,-0.656,0.080,0.916,60.120,14.404
0.225,-0.594,0.078,7.935,67.322,15.686
0.235,-0.545,0.089,14.954,72.754,18.677
0.233,-0.521,0.101,21.179,76.538,23.132
0.235,-0.502,0.122,24.597,78.491,28.625
0.230,-0.481,0.113,26.123,79.224,34.546
0.218,-0.487,0.131,27.283,80.627,41.504
0.246,-0.517,0.107,24.841,80.994,48.889
0.286,-0.518,0.107,19.592,82.275,54.688
0.347,-0.478,0.189,12.878,84.473,61.279
0.378,-0.466,0.231,5.920,81.299,68.237
0.394,-0.421,0.216,-1.343,72.205,70.496
0.422,-0.441,0.226,-6.775,64.453,74.646
0.399,-0.469,0.179,-9.338,54.565,76.782
0.355,-0.466,0.141,-10.681,48.096,76.050
0.335,-0.466,0.138,-11.169,45.166,74.463
0.339,-0.484,0.159,-11.719,44.617,70.679
0.354,-0.517,0.176,-11.719,43.701,64.575
0.354,-0.521,0.176,-12.207,42.297,58.533
0.331,-0.520,0.165,-12.207,41.321,54.688
0.308,-0.528,0.140,-11.597,40.955,52.185
0.298,-0.563,0.108,-9.827,41.565,50.415
0.283,-0.598,0.088,-8.362,43.884,48.889
0.269,-0.648,0.078,-7.324,47.180,46.631
0.249,-0.689,0.061,-7.019,50.659,43.274
0.245,-0.737,0.054,-6.897,55.298,38.818
0.250,-0.778,0.050,-6.653,59.570,32.959
0.273,-0.828,0.060,-5.859,63.110,26.428
0.293,-0.847,0.060,-5.188,64.697,18.555
0.317,-0.870,0.066,-3.174,64.941,10.925
0.350,-0.900,0.075,-0.366,63.904,3.479
0.384,-0.924,0.079,1.648,60.425,-2.991
0.415,-0.945,0.081,3.235,54.871,-8.911
0.449,-0.956,0.081,4.517,47.180,-15.015
0.481,-0.952,0.078,4.517,37.781,-20.203
0.507,-0.934,0.073,3.418,27.710,-24.414
0.526,-0.904,0.059,1.587,17.273,-27.771
0.530,-0.871,0.039,-0.427,7.507,-29.541
0.529,-0.844,0.024,-1.709,-0.549,-30.090
0.529,-0.824,0.020,-2.563,-6.348,-29.419
0.528,-0.808,0.020,-2.502,-11.169,-28.015
0.522,-0.796,0.021,-1.709,-15.137,-26.123
0.513,-0.788,0.027,-0.427,-18.005,-23.376
0.502,-0.785,0.030,0.671,-20.142,-20.142
0.491,-0.791,0.034,2.197,-21.240,-16.663
0.476,-0.808,0.036,3.174,-21.301,-13.489
0.460,-0.839,0.035,3.967,-20.630,-10.559
0.444,-0.871,0.030,4.211,-19.165,-8.057
0.433,-0.891,0.028,4.028,-17.029,-6.165
0.426,-0.907,0.029,3.967,-14.771,-4.883
0.426,-0.921,0.036,4.028,-12.756,-4.517
0.423,-0.933,0.044,4.150,-11.414,-4.883
0.422,-0.935,0.052,4.700,-10.376,-5.737
0.422,-0.936,0.058,5.554,-10.437,-6.836
0.427,-0.942,0.066,6.897,-11.414,-7.690
0.434,-0.950,0.073,8.728,-13.245,-8.667
0.437,-0.959,0.082,10.925,-15.747,-9.766
0.443,-0.968,0.088,12.268,-18.433,-10.925
0.447,-0.972,0.089,13.428,-21.606,-12.268
0.450,-0.970,0.090,14.709,-24.536,-13.184
0.450,-0.966,0.087,15.991,-27.283,-13.977
0.450,-0.959,0.086,16.663,-29.358,-14.343
0.451,-0.950,0.086,17.578,-31.067,-14.282
0.452,-0.942,0.083,17.517,-31.921,-13.672
0.457,-0.938,0.087,17.517,-32.166,-12.390
0.459,-0.934,0.086,16.602,-32.349,-10.376
0.458,-0.935,0.086,15.137,-32.166,-8.240
0.450,-0.935,0.083,13.306,-31.616,-5.981
0.441,-0.935,0.080,11.597,-30.396,-3.906
0.429,-0.943,0.076,9.033,-28.625,-2.258
0.415,-0.960,0.069,6.714,-26.306,-0.366

0.663,-2.055,-0.340,-5.798,180.359,-2.747
0.391,-1.934,-0.494,-32.288,198.486,0.366
0.412,-1.958,-0.672,-38.208,206.116,-12.146
0.697,-2.301,-0.725,-17.761,192.871,-15.503
0.876,-2.402,-0.738,-3.296,180.542,-6.104
0.930,-2.265,-0.825,5.371,161.743,16.602
0.938,-2.261,-0.595,17.944,135.193,42.664
0.887,-2.079,-0.560,21.179,114.014,62.195
0.804,-1.896,-0.550,23.865,94.543,73.242
0.621,-1.821,-0.518,28.320,75.684,71.045
0.578,-1.724,-0.471,30.884,63.049,60.425
0.607,-1.635,-0.460,30.701,55.176,49.072
0.644,-1.603,-0.448,28.015,47.791,40.833
0.625,-1.597,-0.482,21.790,34.668,34.485
0.573,-1.632,-0.492,13.916,19.531,29.053
0.568,-1.623,-0.462,5.676,9.338,24.536
0.545,-1.565,-0.402,-2.808,5.615,19.714
0.526,-1.527,-0.376,-10.864,2.991,12.207
0.537,-1.374,-0.224,-18.433,-0.732,1.831
0.412,-1.259,-0.243,-25.146,-8.789,-4.700
0.389,-1.270,-0.236,-27.710,-14.954,-4.700
0.331,-1.213,-0.228,-28.992,-18.311,-9.094
0.277,-1.139,-0.226,-29.175,-20.142,-13.916
0.270,-1.112,-0.201,-27.222,-19.592,-16.846
0.278,-1.114,-0.181,-24.170,-18.799,-20.020
0.293,-1.132,-0.193,-20.142,-17.700,-23.987
0.308,-1.173,-0.207,-15.442,-16.418,-28.687
0.306,-1.202,-0.226,-10.132,-15.930,-33.142
0.331,-1.287,-0.185,-4.517,-16.357,-36.865
0.310,-1.275,-0.222,-1.099,-21.057,-43.091
0.297,-1.296,-0.220,1.465,-27.161,-45.105
0.308,-1.337,-0.214,1.831,-32.288,-46.631
0.290,-1.334,-0.231,0.122,-36.316,-48.523
0.300,-1.392,-0.219,-3.479,-38.208,-46.509
0.358,-1.462,-0.184,-8.118,-42.053,-46.570
0.347,-1.451,-0.168,-14.832,-49.072,-48.767
0.346,-1.520,-0.118,-21.912,-55.420,-47.180
0.291,-1.488,-0.130,-29.602,-61.768,-49.316
0.266,-1.477,-0.111,-34.546,-61.523,-48.645
0.271,-1.495,-0.107,-36.438,-58.655,-43.640
0.280,-1.427,-0.130,-37.354,-54.443,-39.673
0.265,-1.401,-0.158,-36.743,-47.485,-32.776
0.230,-1.349,-0.185,-34.546,-36.133,-28.931
0.226,-1.394,-0.151,-31.555,-18.860,-26.306
0.278,-1.327,-0.128,-31.616,-1.526,-28.625
0.322,-1.174,-0.157,-33.508,14.282,-29.846
0.358,-1.082,-0.117,-33.630,32.837,-24.353
0.412,-1.022,-0.082,-34.302,45.654,-19.043
0.403,-0.960,-0.136,-34.485,51.270,-14.465
0.374,-0.927,-0.115,-34.302,59.875,-7.751
0.363,-0.889,-0.150,-34.668,66.895,-1.282
0.388,-0.858,-0.119,-34.180,72.388,4.944
0.405,-0.795,-0.109,-33.386,74.463,10.559
0.427,-0.755,-0.078,-32.532,73.730,17.822
0.435,-0.704,-0.069,-31.921,69.458,25.024
0.424,-0.736,-0.049,-30.762,62.805,31.372
0.389,-0.641,-0.093,-28.564,53.772,33.813
0.391,-0.610,-0.060,-24.780,44.739,40.283
0.408,-0.590,-0.030,-24.475,34.912,46.021
0.405,-0.591,-0.041,-23.132,21.790,49.255
0.356,-0.581,-0.075,-20.081,10.437,51.086
0.324,-0.573,-0.057,-16.846,3.357,52.307
0.318,-0.554,-0.069,-13.367,-4.150,52.307
0.292,-0.532,-0.108,-9.338,-11.047,52.063
0.261,-0.502,-0.111,-5.554,-13.794,52.002
0.251,-0.502,-0.111,-0.183,-15.137,52.368
0.228,-0.494,-0.122,5.005,-16.541,52.124
0.220,-0.516,-0.097,10.315,-16.418,52.246
0.223,-0.535,-0.085,14.526,-18.494,50.415
0.224,-0.525,-0.085,17.883,-21.667,47.974
0.225,-0.522,-0.073,20.447,-24.353,47.241
0.224,-0.541,-0.067,22.583,-27.771,47.180
0.200,-0.575,-0.073,24.536,-31.677,47.241
0.162,-0.597,-0.075,25.940,-34.729,46.875
0.154,-0.615,-0.071,26.245,-36.377,46.692
0.151,-0.647,-0.072,26.245,-37.964,46.387
0.131,-0.696,-0.075,25.146,-38.269,45.288
0.115,-0.758,-0.072,23.132,-37.476,43.213
0.105,-0.806,-0.065,20.264,-36.255,40.222
0.105,-0.839,-0.062,16.968,-35.156,36.011
0.105,-0.875,-0.057,13.977,-34.302,31.067
0.099,-0.918,-0.056,10.986,-33.386,25.391
0.100,-0.955,-0.059,7.141,-32.166,19.165
0.107,-0.981,-0.061,3.540,-31.128,11.963
0.120,-0.997,-0.065,-0.183,-30.334,4.089
0.139,-1.008,-0.070,-3.784,-30.151,-3.479
0.152,-1.015,-0.077,-6.958,-30.396,-11.230
0.177,-1.016,-0.083,-10.071,-30.396,-19.104
0.208,-1.003,-0.084,-12.390,-30.396,-25.879
0.254,-0.983,-0.080,-12.939,-31.006,-31.738
0.293,-0.958,-0.078,-12.695,-32.715,-36.499
0.324,-0.935,-0.074,-12.146,-35.156,-40.466
0.349,-0.910,-0.072,-11.108,-38.574,-43.457
0.372,-0.892,-0.075,-9.033,-42.419,-45.044
0.401,-0.876,-0.071,-6.653,-46.753,-45.532
0.430,-0.869,-0.062,-4.028,-51.819,-44.983
0.450,-0.866,-0.051,-1.160,-57.861,-43.335
0.463,-0.872,-0.049,1.465,-64.514,-41.199
0.470,-0.879,-0.044,4.028,-71.228,-39.063
0.476,-0.893,-0.035,6.531,-76.782,-36.621
0.487,-0.916,-0.024,8.789,-81.543,-33.936
0.494,-0.930,-0.007,9.949,-85.815,-31.006
0.498,-0.940,0.008,10.498,-90.271,-27.466
0.501,-0.952,0.017,10.803,-95.703,-23.376
0.504,-0.970,0.030,10.803,-101.624,-19.470
0.492,-0.972,0.034,10.376,-107.483,-15.686
0.491,-0.980,0.043,9.705,-112.732,-11.841
0.492,-0.990,0.053,9.216,-117.920,-8.667
0.485,-0.997,0.064,8.728,-123.657,-6.470
0.473,-1.002,0.073,8.911,-129.456,-4.944
0.462,-1.001,0.080,9.583,-135.315,-4.150
0.456,-1.005,0.091,10.437,-141.235,-3.418
0.454,-1.005,0.106,11.169,-146.790,-2.502
0.447,-1.004,0.120,12.146,-152.283,-0.916
0.435,-1.000,0.133,13.367,-157.532,1.038
0.426,-0.990,0.146,13.916,-161.987,3.967
0.405,-0.966,0.151,14.404,-166.016,7.507
0.387,-0.951,0.153,14.709,-168.518,11.536
0.365,-0.947,0.148,15.259,-169.250,15.015

-0.775,-1.449,0.429,-94.604,-22.034,111.694
1.035,0.180,0.593,-82.397,44.678,54.199
0.301,-1.104,0.882,-25.146,60.425,-19.287
0.107,-1.563,1.004,20.691,37.170,-21.423
0.130,-1.983,1.022,54.504,1.343,-43.945
0.179,-1.841,0.935,71.167,-26.794,-65.918
0.087,-1.974,0.767,74.463,-37.903,-100.281
0.097,-2.043,0.605,72.021,-35.034,-111.206
0.201,-1.996,0.530,60.974,-21.729,-113.403
0.219,-1.953,0.496,48.767,0.427,-114.990
0.201,-1.922,0.486,36.011,27.039,-110.718
0.207,-1.908,0.503,22.400,54.321,-98.083
0.232,-1.888,0.531,12.146,77.881,-78.125
0.265,-1.839,0.554,6.714,93.872,-55.298
0.268,-1.773,0.562,4.639,101.685,-33.813
0.235,-1.706,0.556,5.127,102.600,-15.137
0.191,-1.647,0.537,8.362,98.755,-1.526
0.162,-1.609,0.515,12.512,92.529,7.324
0.145,-1.591,0.494,16.968,84.656,10.986
0.137,-1.566,0.477,20.630,76.782,10.071
0.149,-1.558,0.457,23.926,68.848,6.348
0.171,-1.565,0.437,26.978,60.425,0.610
0.161,-1.583,0.424,29.663,52.124,-4.944
0.130,-1.609,0.404,30.823,44.250,-9.399
0.110,-1.624,0.375,29.907,36.072,-12.695
0.100,-1.621,0.345,26.184,28.687,-13.855
0.092,-1.591,0.320,20.996,21.851,-13.184
0.072,-1.536,0.296,16.113,15.381,-11.353
0.048,-1.479,0.279,11.780,10.315,-8.728
0.023,-1.416,0.263,9.155,7.141,-5.676
-0.002,-1.360,0.250,8.057,5.859,-3.174
-0.020,-1.319,0.248,8.789,6.836,-0.793
-0.027,-1.295,0.247,10.803,9.460,1.526
-0.036,-1.277,0.243,13.000,12.634,2.991
-0.045,-1.270,0.233,14.893,16.724,3.418
-0.043,-1.264,0.220,15.503,21.667,2.563
-0.024,-1.256,0.210,15.564,27.039,0.610
-0.007,-1.241,0.202,15.320,32.776,-2.258
0.000,-1.222,0.198,15.198,38.269,-4.883
0.012,-1.196,0.200,15.564,43.823,-8.301
0.030,-1.166,0.213,15.991,49.072,-11.719
0.048,-1.139,0.222,17.578,53.284,-14.709
0.067,-1.107,0.229,19.653,55.847,-17.151
0.090,-1.069,0.243,20.996,57.251,-19.592
0.103,-1.036,0.251,22.766,56.702,-20.813
0.102,-1.001,0.245,24.170,54.321,-20.935
0.094,-0.966,0.237,23.804,51.270,-19.714
0.078,-0.931,0.219,21.973,48.279,-17.151
0.064,-0.886,0.206,18.066,46.753,-13.977
0.039,-0.848,0.187,12.573,45.532,-10.315
-0.005,-0.814,0.158,6.836,45.288,-6.104
-0.052,-0.788,0.127,1.465,48.889,-2.319
-0.062,-0.744,0.109,-4.333,58.105,1.221
-0.040,-0.683,0.108,-9.399,70.923,3.052
-0.033,-0.637,0.099,-12.207,84.106,3.784
-0.022,-0.630,0.117,-13.123,97.229,6.042
-0.035,-0.655,0.124,-12.634,107.300,9.155
-0.051,-0.648,0.116,-12.024,116.333,10.803
0.022,-0.628,0.123,-14.648,127.930,8.484
0.066,-0.577,0.136,-18.005,139.099,4.333
0.031,-0.499,0.151,-19.897,149.109,1.892
0.027,-0.466,0.122,-20.935,156.677,1.892
0.078,-0.463,0.091,-21.790,162.415,4.211
0.146,-0.451,0.103,-22.278,167.114,8.362
0.184,-0.425,0.121,-23.621,168.274,13.184
0.196,-0.421,0.130,-24.109,164.612,17.761
0.193,-0.450,0.138,-24.536,157.654,21.301
0.180,-0.480,0.132,-24.902,149.292,24.353
0.167,-0.502,0.129,-25.574,142.029,27.222
0.162,-0.517,0.124,-26.245,136.108,29.236
0.159,-0.531,0.118,-27.161,131.470,30.762
0.147,-0.557,0.121,-27.039,127.319,31.616
0.139,-0.595,0.127,-25.879,123.840,32.104
0.146,-0.632,0.131,-23.987,120.728,31.738
0.161,-0.667,0.139,-22.034,117.310,30.701
0.167,-0.708,0.147,-19.958,113.403,28.625
0.167,-0.750,0.150,-17.517,108.887,26.123
0.172,-0.788,0.153,-14.648,103.943,23.499
0.183,-0.830,0.156,-11.597,98.694,21.240
0.193,-0.876,0.159,-8.362,93.323,18.921
0.201,-0.922,0.161,-5.127,87.463,15.991
0.206,-0.965,0.164,-2.869,81.604,12.512
0.213,-0.993,0.168,-1.343,75.806,7.874
0.226,-1.008,0.171,-0.244,70.251,2.563
0.241,-1.015,0.175,0.366,64.392,-2.808
0.261,-1.007,0.174,0.732,58.228,-7.874
0.283,-0.995,0.179,0.854,52.002,-12.878
0.308,-0.990,0.185,1.160,45.898,-17.273
0.333,-0.981,0.194,2.075,39.612,-21.118
0.352,-0.958,0.200,3.235,33.386,-24.048
0.369,-0.937,0.203,4.395,27.283,-25.757
0.382,-0.928,0.206,5.310,21.667,-26.245
0.387,-0.924,0.207,6.348,16.602,-25.513
0.384,-0.914,0.205,6.226,12.268,-23.376
0.367,-0.901,0.197,5.554,8.972,-20.203
0.348,-0.896,0.192,4.700,7.568,-15.869
0.329,-0.901,0.186,3.357,7.507,-11.108
0.313,-0.911,0.182,1.465,8.850,-6.226
0.299,-0.918,0.179,-0.366,10.681,-2.136
0.292,-0.931,0.181,-2.441,12.695,1.709
0.287,-0.946,0.178,-4.150,14.587,4.578
0.284,-0.961,0.182,-5.554,16.052,5.798
0.288,-0.973,0.189,-6.348,16.846,6.165
0.302,-0.979,0.195,-6.653,16.296,5.432
0.318,-0.983,0.202,-6.165,14.221,4.517
0.334,-0.982,0.208,-5.371,10.803,3.723
0.345,-0.977,0.212,-3.845,6.042,3.235
0.351,-0.970,0.214,-1.892,0.793,3.296
0.351,-0.967,0.215,-0.366,-4.578,3.235
0.347,-0.970,0.215,1.160,-9.888,3.113
0.336,-0.977,0.214,2.075,-14.465,2.747
0.323,-0.984,0.210,2.136,-17.822,2.808
0.312,-0.986,0.206,1.831,-19.958,2.869
0.299,-0.980,0.198,0.732,-20.569,2.930
0.287,-0.977,0.193,-0.305,-19.897,2.991
0.278,-0.975,0.186,-1.709,-17.944,3.174
0.272,-0.974,0.177,-3.479,-14.771,3.540
0.267,-0.969,0.171,-5.798,-11.108,3.845
0.263,-0.960,0.166,-8.057,-7.385,4.272

0.579,-1.799,0.442,-16.418,18.188,25.391
0.511,-1.848,0.473,-4.272,24.963,15.686
0.492,-1.854,0.525,7.568,43.457,3.235
0.567,-1.887,0.549,21.423,68.054,-9.766
0.724,-1.925,0.556,34.607,88.806,-24.414
0.854,-1.940,0.567,45.288,99.854,-38.330
0.923,-1.935,0.569,52.979,101.074,-47.729
0.979,-1.903,0.570,56.030,92.834,-51.453
1.021,-1.858,0.567,55.115,76.477,-50.354
1.041,-1.828,0.544,50.903,52.490,-46.387
1.019,-1.791,0.507,43.274,23.560,-41.016
0.950,-1.747,0.459,35.095,-5.981,-35.706
0.871,-1.723,0.416,26.794,-32.593,-30.884
0.795,-1.707,0.374,19.287,-54.749,-27.283
0.723,-1.691,0.351,12.817,-72.205,-25.208
0.661,-1.688,0.332,7.812,-85.083,-24.414
0.595,-1.704,0.318,5.432,-94.666,-25.146
0.515,-1.727,0.310,4.761,-100.464,-27.283
0.432,-1.742,0.284,5.005,-103.455,-29.419
0.350,-1.724,0.259,5.310,-102.966,-29.175
0.305,-1.671,0.241,5.188,-98.755,-25.757
0.277,-1.590,0.223,4.761,-92.590,-20.447
0.239,-1.512,0.203,4.333,-84.717,-14.099
0.188,-1.469,0.171,4.333,-75.439,-7.690
0.158,-1.382,0.146,4.211,-63.599,-2.808
0.146,-1.351,0.122,4.333,-49.561,3.174
0.124,-1.307,0.107,4.333,-33.325,6.958
0.114,-1.265,0.109,5.493,-16.479,9.033
0.124,-1.222,0.120,6.897,-1.221,9.766
0.135,-1.184,0.128,8.728,12.573,9.277
0.144,-1.149,0.143,10.193,25.024,8.240
0.159,-1.113,0.159,11.353,34.119,6.287
0.185,-1.071,0.171,12.512,39.429,3.906
0.220,-1.023,0.175,13.977,41.382,1.221
0.245,-0.963,0.173,15.930,40.161,-1.404
0.261,-0.905,0.170,18.433,37.354,-3.052
0.275,-0.856,0.167,21.118,33.752,-4.150
0.292,-0.807,0.169,23.865,29.236,-5.615
0.303,-0.772,0.167,26.733,23.804,-6.775
0.319,-0.757,0.175,28.442,17.334,-7.812
0.291,-0.731,0.184,29.602,10.010,-7.935
0.248,-0.714,0.188,29.053,1.892,-9.583
0.292,-0.649,0.144,27.039,-6.348,-12.695
0.276,-0.610,0.168,26.489,-8.179,-10.132
0.249,-0.583,0.163,25.208,-11.292,-8.484
0.242,-0.552,0.149,24.353,-14.954,-6.226
0.228,-0.537,0.141,23.010,-16.602,-2.563
0.213,-0.528,0.132,21.179,-17.517,1.099
0.191,-0.526,0.126,18.860,-17.395,4.517
0.172,-0.525,0.124,15.686,-16.418,6.897
0.166,-0.514,0.127,12.268,-14.709,7.996
0.172,-0.500,0.131,8.240,-12.878,8.301
0.175,-0.463,0.127,4.395,-11.047,8.667
0.174,-0.439,0.122,0.671,-9.033,10.437
0.168,-0.440,0.115,-1.587,-7.141,13.000
0.163,-0.455,0.113,-3.479,-5.310,15.625
0.159,-0.477,0.111,-5.005,-3.662,18.005
0.160,-0.495,0.114,-6.531,-2.563,19.653
0.159,-0.505,0.116,-7.385,-1.892,20.813
0.157,-0.524,0.120,-8.362,-1.770,21.729
0.158,-0.551,0.120,-8.911,-1.892,22.095
0.158,-0.583,0.123,-9.155,-2.563,22.156
0.155,-0.616,0.122,-9.155,-3.723,21.667
0.147,-0.655,0.118,-9.399,-5.005,21.057
0.142,-0.702,0.113,-9.277,-6.348,21.057
0.137,-0.757,0.109,-9.521,-7.324,21.362
0.140,-0.821,0.116,-9.277,-8.118,20.813
0.142,-0.867,0.119,-9.277,-9.216,18.677
0.142,-0.909,0.121,-9.094,-9.521,16.113
0.147,-0.948,0.127,-8.667,-9.399,13.245
0.151,-0.981,0.126,-7.751,-9.521,9.644
0.157,-1.006,0.124,-6.653,-9.094,5.615
0.166,-1.036,0.122,-5.371,-7.812,1.038
0.177,-1.056,0.120,-4.028,-5.920,-3.784
0.192,-1.058,0.119,-2.686,-4.028,-8.423
0.213,-1.046,0.119,-1.404,-1.953,-12.451
0.235,-1.035,0.120,-0.366,-0.366,-14.954
0.257,-1.018,0.122,0.671,1.038,-16.113
0.271,-0.998,0.125,1.892,2.014,-16.357
0.281,-0.976,0.126,3.174,2.747,-15.747
0.290,-0.954,0.129,4.700,3.540,-14.282
0.301,-0.929,0.135,6.470,3.906,-12.268
0.306,-0.906,0.141,8.362,4.211,-9.949
0.310,-0.885,0.147,10.071,4.150,-7.690
0.310,-0.873,0.153,11.780,3.540,-5.432
0.308,-0.875,0.157,13.245,2.747,-3.601
0.307,-0.877,0.166,14.343,1.770,-2.747
0.306,-0.885,0.174,15.015,-0.122,-1.770
0.305,-0.899,0.181,15.015,-2.258,-0.671
0.303,-0.919,0.187,14.832,-5.127,0.244
0.300,-0.942,0.191,14.282,-8.423,1.221
0.294,-0.964,0.192,13.428,-12.085,2.197
0.283,-0.985,0.191,11.902,-15.808,2.747
0.269,-0.998,0.186,10.742,-19.226,2.502
0.257,-1.003,0.180,8.667,-22.034,2.014
0.245,-1.007,0.175,6.897,-23.987,0.671
0.237,-1.007,0.171,5.615,-25.452,-0.610
0.228,-1.008,0.167,4.517,-26.001,-2.258
0.222,-1.010,0.167,4.028,-25.879,-3.479
0.218,-1.002,0.164,4.639,-25.269,-4.639
0.218,-0.993,0.162,5.127,-24.109,-5.737
0.215,-0.992,0.161,5.920,-22.522,-6.531
0.214,-0.996,0.162,6.836,-20.386,-7.324
0.211,-1.000,0.162,8.057,-17.700,-8.240
0.211,-1.001,0.164,8.606,-14.587,-8.972
0.213,-1.004,0.164,9.338,-11.230,-9.766
0.216,-1.001,0.164,9.338,-7.629,-10.437
0.221,-0.993,0.164,8.789,-4.395,-11.108
0.228,-0.980,0.165,8.118,-1.160,-11.658
0.236,-0.967,0.165,7.324,1.648,-11.597
0.244,-0.958,0.163,6.470,4.272,-11.047
0.250,-0.953,0.162,5.249,6.165,-10.193
0.254,-0.950,0.159,3.418,7.690,-8.667
0.256,-0.948,0.154,1.709,8.606,-6.592
0.259,-0.953,0.152,-0.061,8.972,-4.089
0.261,-0.961,0.152,-1.648,8.972,-2.136
0.255,-0.975,0.149,-2.869,8.301,-0.183
0.247,-0.986,0.148,-4.028,7.751,1.099
0.238,-0.992,0.142,-5.432,7.324,2.014

0.799,-1.712,0.311,30.029,143.250,-18.799
0.938,-1.834,0.313,29.297,127.197,-32.654
1.056,-1.893,0.332,25.391,98.755,-43.579
1.139,-1.884,0.337,18.250,59.753,-50.171
1.160,-1.837,0.314,10.925,12.817,-50.049
1.126,-1.805,0.270,5.676,-36.255,-42.847
1.038,-1.762,0.211,2.502,-83.313,-32.349
0.911,-1.705,0.158,-0.366,-120.728,-21.545
0.751,-1.664,0.106,-1.892,-145.081,-11.536
0.594,-1.638,0.068,-2.197,-154.663,-4.028
0.493,-1.616,0.058,-2.563,-150.208,0.000
0.473,-1.597,0.067,-3.540,-137.146,2.258
0.488,-1.590,0.070,-3.967,-123.657,1.892
0.477,-1.595,0.071,-3.052,-111.572,-0.061
0.448,-1.585,0.101,-1.892,-99.304,-3.174
0.434,-1.585,0.139,0.488,-88.257,-6.592
0.437,-1.606,0.168,4.089,-79.712,-10.315
0.429,-1.642,0.187,7.568,-73.975,-14.465
0.410,-1.671,0.206,11.353,-70.251,-17.639
0.406,-1.696,0.224,14.526,-67.932,-19.226
0.409,-1.706,0.229,16.846,-68.237,-19.470
0.396,-1.681,0.231,18.250,-69.580,-18.677
0.369,-1.634,0.230,19.165,-71.350,-15.869
0.337,-1.590,0.218,18.921,-72.693,-11.230
0.298,-1.556,0.199,18.188,-72.205,-6.226
0.249,-1.524,0.183,16.602,-69.336,-1.587
0.204,-1.500,0.166,14.038,-64.514,2.441
0.170,-1.471,0.162,10.864,-57.312,5.066
0.137,-1.457,0.166,7.690,-48.584,5.127
0.123,-1.444,0.173,4.211,-39.856,2.563
0.122,-1.417,0.189,1.221,-32.410,-2.197
0.115,-1.386,0.205,-1.465,-25.879,-7.751
0.115,-1.359,0.211,-2.563,-20.630,-13.733
0.123,-1.330,0.211,-2.747,-16.418,-18.677
0.134,-1.306,0.210,-2.441,-13.306,-22.827
0.152,-1.272,0.207,-1.770,-11.230,-25.452
0.170,-1.233,0.198,-0.549,-10.071,-26.794
0.178,-1.199,0.187,0.793,-8.911,-26.611
0.177,-1.176,0.169,1.831,-6.042,-25.146
0.177,-1.144,0.148,2.380,-1.282,-23.010
0.182,-1.114,0.127,2.380,5.676,-20.081
0.177,-1.090,0.099,1.892,14.771,-16.907
0.177,-1.065,0.076,0.732,25.146,-13.428
0.192,-1.053,0.074,-0.732,36.438,-10.193
0.205,-0.947,0.073,-3.174,47.607,-7.263
0.190,-1.000,0.097,-4.272,57.983,-1.953
0.178,-0.945,0.066,-6.592,65.002,-2.441
0.188,-0.900,0.075,-9.827,74.890,-1.770
0.192,-0.871,0.083,-12.024,81.970,0.671
0.199,-0.848,0.084,-13.489,85.938,0.977
0.254,-0.776,0.068,-15.198,86.365,0.610
0.270,-0.709,0.079,-14.648,86.548,3.235
0.268,-0.671,0.089,-13.245,84.351,6.470
0.243,-0.632,0.062,-12.878,79.834,9.705
0.234,-0.603,0.078,-11.902,75.928,13.184
0.212,-0.598,0.073,-10.986,71.411,16.235
0.196,-0.578,0.064,-11.475,66.406,17.456
0.178,-0.542,0.052,-12.085,62.134,18.738
0.162,-0.514,0.050,-12.329,59.631,19.958
0.157,-0.492,0.047,-12.390,57.556,20.630
0.162,-0.475,0.046,-11.719,55.847,20.935
0.168,-0.475,0.053,-9.888,53.711,21.057
0.181,-0.481,0.060,-7.202,49.744,20.813
0.208,-0.490,0.079,-3.967,44.189,20.203
0.248,-0.503,0.099,-0.671,36.438,19.958
0.280,-0.514,0.114,2.625,26.001,19.043
0.305,-0.532,0.129,5.615,14.038,18.066
0.325,-0.555,0.134,8.484,0.549,17.029
0.332,-0.580,0.133,10.986,-13.184,15.991
0.324,-0.600,0.123,12.634,-26.917,15.869
0.298,-0.618,0.107,12.939,-39.307,16.541
0.267,-0.641,0.092,12.512,-49.011,18.188
0.240,-0.672,0.077,11.475,-55.908,20.447
0.204,-0.710,0.059,9.827,-59.570,22.400
0.173,-0.750,0.048,8.179,-59.570,23.254
0.153,-0.791,0.040,6.409,-56.274,22.766
0.143,-0.829,0.039,4.883,-50.293,21.240
0.140,-0.863,0.040,4.028,-43.152,18.921
0.148,-0.894,0.045,3.906,-35.278,16.052
0.168,-0.919,0.054,4.822,-27.771,13.306
0.186,-0.940,0.068,6.592,-21.667,10.315
0.204,-0.953,0.081,8.789,-16.846,7.935
0.213,-0.961,0.092,11.414,-13.428,6.226
0.224,-0.969,0.099,13.977,-11.353,4.700
0.232,-0.976,0.102,16.235,-9.949,3.113
0.235,-0.984,0.106,17.700,-8.789,1.282
0.239,-0.988,0.109,18.616,-7.507,-0.671
0.248,-0.987,0.112,18.738,-6.592,-2.869
0.256,-0.983,0.119,18.494,-5.676,-5.066
0.267,-0.974,0.125,17.578,-5.432,-7.690
0.278,-0.963,0.132,16.541,-5.615,-10.376
0.289,-0.949,0.136,15.381,-6.348,-12.329
0.303,-0.934,0.139,14.648,-7.874,-13.550
0.312,-0.922,0.143,13.428,-9.949,-13.489
0.317,-0.912,0.143,12.268,-12.695,-12.695
0.315,-0.910,0.143,10.803,-15.808,-11.475
0.308,-0.911,0.138,9.460,-18.921,-9.521
0.303,-0.917,0.136,7.629,-21.729,-6.897
0.295,-0.922,0.132,6.226,-24.170,-4.150
0.285,-0.934,0.130,4.272,-26.001,-2.014
0.273,-0.945,0.129,2.625,-27.344,-0.122
0.257,-0.955,0.126,1.282,-28.076,1.343
0.250,-0.961,0.124,0.244,-27.832,2.930
0.246,-0.961,0.125,-0.183,-27.405,4.272
0.239,-0.961,0.124,-0.244,-26.978,5.371
0.229,-0.963,0.122,-0.488,-25.818,5.981
0.221,-0.964,0.118,-0.183,-24.475,6.042
0.215,-0.968,0.115,-0.061,-22.766,5.615
0.207,-0.972,0.113,0.061,-20.752,5.127
0.203,-0.974,0.112,0.366,-18.433,4.761
0.202,-0.973,0.112,0.793,-16.052,3.906
0.197,-0.974,0.113,0.671,-13.611,3.479
0.193,-0.973,0.115,0.854,-11.353,3.052
0.194,-0.971,0.118,1.404,-9.277,2.625
0.194,-0.968,0.121,1.953,-7.202,1.953
0.193,-0.965,0.123,2.502,-5.127,1.038
0.194,-0.962,0.125,3.235,-3.357,0.061
0.199,-0.960,0.128,3.418,-1.526,-1.038
0.205,-0.953,0.130,3.357,-0.122,-2.319

-0.051,-1.554,1.009,-46.204,42.358,-55.115
-0.070,-1.380,0.728,-70.984,18.066,-74.829
0.038,-1.130,0.330,-78.857,-9.644,-79.956
0.082,-1.085,0.111,-67.810,-21.667,-75.562
0.113,-1.386,0.054,-45.288,-11.780,-74.890
0.165,-1.757,0.201,-32.837,12.146,-79.041
0.246,-1.898,0.259,-34.973,23.132,-87.585
0.264,-1.807,0.122,-45.715,22.522,-91.919
0.107,-1.738,0.056,-53.162,17.456,-87.952
-0.128,-1.771,0.025,-60.547,19.104,-78.003
-0.220,-1.802,0.066,-67.200,29.968,-65.308
-0.276,-1.675,0.075,-69.275,43.030,-55.237
-0.295,-1.611,0.021,-64.026,53.650,-46.570
-0.193,-1.655,0.081,-46.936,62.622,-40.283
-0.069,-1.705,0.134,-26.306,69.824,-35.156
0.101,-1.754,0.101,-13.062,73.181,-30.762
0.233,-1.808,0.080,-5.676,70.496,-25.208
0.369,-1.803,0.123,-1.709,63.232,-18.188
0.408,-1.745,0.139,0.366,48.584,-8.240
0.354,-1.708,0.151,2.625,28.564,0.183
0.217,-1.638,0.144,5.554,9.338,8.118
0.063,-1.571,0.105,7.507,-4.211,14.221
-0.065,-1.549,0.079,10.254,-13.184,17.029
-0.166,-1.407,0.125,14.160,-17.151,18.555
-0.227,-1.388,0.100,18.494,-18.311,20.447
-0.290,-1.336,0.135,20.325,-12.634,17.029
-0.303,-1.262,0.146,22.156,-7.202,16.174
-0.276,-1.277,0.130,24.658,-2.563,18.555
-0.271,-1.292,0.110,26.794,3.113,19.043
-0.289,-1.310,0.084,27.771,10.376,20.264
-0.330,-1.351,0.044,27.527,21.179,22.644
-0.348,-1.407,0.057,26.062,37.048,23.071
-0.317,-1.469,0.061,23.621,56.213,23.499
-0.234,-1.499,0.097,19.653,75.989,23.560
-0.116,-1.523,0.159,15.137,92.529,24.170
0.013,-1.582,0.241,11.597,102.722,27.100
0.129,-1.621,0.286,8.850,103.577,31.677
0.241,-1.634,0.342,6.348,95.154,38.574
0.340,-1.616,0.380,4.272,79.895,47.913
0.372,-1.590,0.362,1.648,58.655,56.946
0.387,-1.575,0.364,-0.610,37.170,63.416
0.413,-1.562,0.360,-1.038,17.151,65.979
0.405,-1.521,0.344,-2.625,1.099,62.622
0.362,-1.453,0.327,-6.592,-7.874,54.443
0.318,-1.367,0.295,-12.573,-10.498,44.678
0.267,-1.172,0.251,-19.470,-7.690,35.339
0.250,-1.146,0.272,-24.536,0.732,31.921
0.228,-1.086,0.201,-27.222,9.399,25.940
0.206,-0.979,0.163,-28.687,23.315,19.714
0.196,-0.851,0.154,-26.611,39.551,18.127
0.207,-0.779,0.166,-21.240,54.749,19.958
0.221,-0.759,0.144,-13.977,65.063,20.752
0.229,-0.691,0.110,-6.775,73.669,20.569
0.235,-0.646,0.112,1.892,82.581,24.597
0.235,-0.621,0.096,10.437,87.952,28.870
0.242,-0.614,0.102,18.921,91.858,33.325
0.256,-0.596,0.090,25.818,93.201,37.842
0.271,-0.567,0.090,31.433,93.262,42.480
0.271,-0.571,0.091,36.133,92.590,47.241
0.269,-0.582,0.092,39.368,90.271,49.683
0.269,-0.569,0.093,40.894,87.646,50.598
0.272,-0.553,0.102,40.833,84.656,51.453
0.270,-0.542,0.110,39.490,81.055,52.002
0.273,-0.536,0.112,37.903,76.355,52.063
0.282,-0.535,0.120,35.339,70.313,51.697
0.287,-0.535,0.127,31.616,62.805,49.988
0.294,-0.528,0.133,27.893,54.626,47.668
0.303,-0.519,0.133,24.292,45.959,45.105
0.310,-0.517,0.132,20.874,37.170,43.091
0.310,-0.524,0.129,17.944,28.198,41.199
0.302,-0.531,0.122,15.076,18.982,39.856
0.296,-0.538,0.113,12.146,9.949,38.818
0.294,-0.549,0.109,10.498,1.953,38.147
0.289,-0.570,0.107,9.155,-5.005,37.659
0.274,-0.594,0.103,7.446,-10.803,37.292
