aX,aY,aZ,gX,gY,gZ
0.716,-0.803,1.543,71.045,-3.662,8.606
0.620,-1.187,1.676,74.829,-26.001,54.138
0.477,-1.565,1.822,64.575,-45.776,94.727
0.436,-1.844,1.941,45.898,-66.284,108.887
0.282,-1.962,1.924,25.024,-92.041,88.562
-0.005,-1.836,1.809,5.798,-115.173,47.546
-0.286,-1.641,1.686,-4.089,-120.667,9.827
-0.440,-1.511,1.597,-0.244,-103.394,-13.428
-0.401,-1.434,1.584,16.968,-70.251,-27.466
-0.232,-1.410,1.672,43.640,-37.109,-38.391
-0.074,-1.494,1.765,72.876,-18.372,-48.523
-0.009,-1.638,1.798,98.511,-14.038,-58.167
-0.021,-1.800,1.837,114.563,-12.817,-67.505
-0.025,-1.923,1.846,121.094,-5.066,-77.148
0.067,-1.928,1.871,117.615,13.123,-86.365
0.224,-1.868,1.922,108.276,36.560,-92.712
0.406,-1.762,1.960,97.412,56.458,-92.102
0.576,-1.611,1.971,85.876,65.979,-81.116
0.707,-1.471,1.963,75.378,62.866,-59.753
0.782,-1.417,1.928,66.895,48.340,-31.738
0.781,-1.447,1.867,58.289,25.635,-2.991
0.676,-1.485,1.755,46.265,-0.671,20.752
0.508,-1.499,1.584,31.128,-24.719,36.865
0.307,-1.477,1.399,14.404,-42.114,46.082
0.091,-1.424,1.215,-1.221,-49.133,49.194
-0.085,-1.337,1.058,-12.817,-45.227,46.387
-0.156,-1.268,0.938,-18.921,-32.288,39.124
-0.165,-1.209,0.849,-20.630,-16.418,30.945
-0.141,-1.128,0.795,-18.494,-3.723,23.560
-0.107,-1.027,0.771,-11.597,4.089,16.174
-0.076,-0.954,0.764,0.366,9.155,7.935
-0.053,-0.915,0.765,15.137,13.367,-0.610
-0.035,-0.892,0.776,29.968,19.592,-8.545
-0.011,-0.888,0.797,43.030,28.809,-15.808
0.027,-0.910,0.836,52.002,41.748,-19.409
0.106,-0.921,0.875,54.688,57.190,-16.785
0.209,-0.910,0.936,51.208,71.167,-8.362
0.322,-0.882,1.027,43.274,79.163,3.418
0.430,-0.850,1.117,34.363,75.806,17.151
0.471,-0.844,1.189,26.367,60.669,30.212
0.466,-0.855,1.227,19.348,36.926,41.138
0.405,-0.865,1.213,12.634,10.864,47.485
0.294,-0.843,1.168,5.554,-10.071,47.913
0.197,-0.809,1.100,-0.427,-21.118,43.701
0.106,-0.776,1.041,-4.639,-20.386,37.415
0.032,-0.725,0.989,-9.277,-6.836,30.151
0.036,-0.633,0.971,-14.465,15.808,25.452
0.125,-0.561,1.019,-19.104,40.161,25.269
0.197,-0.507,1.065,-20.325,57.617,28.198
0.252,-0.465,1.102,-18.860,67.017,34.607
0.310,-0.466,1.145,-15.564,69.397,44.189
0.375,-0.500,1.172,-13.062,65.125,52.673
0.380,-0.528,1.160,-12.268,54.565,53.162
0.354,-0.561,1.136,-14.465,42.969,45.715
0.319,-0.533,1.082,-18.982,33.875,32.959
0.288,-0.554,1.020,-25.574,31.128,19.592
0.265,-0.484,0.957,-33.447,35.278,6.287
0.270,-0.384,0.907,-40.039,44.800,-1.709
0.285,-0.327,0.902,-44.189,58.960,-3.479
0.334,-0.302,0.886,-46.448,74.036,-3.235
0.396,-0.240,0.913,-45.715,83.496,-2.563
0.452,-0.182,0.947,-43.518,84.229,0.183
0.448,-0.160,0.850,-40.405,77.515,4.089
0.397,-0.180,0.873,-36.438,71.960,5.737
0.349,-0.228,0.800,-31.921,66.833,2.625
0.295,-0.180,0.725,-28.992,65.002,-4.517
0.256,-0.145,0.670,-26.672,67.566,-10.315
0.259,-0.144,0.623,-24.597,75.195,-13.977
0.260,-0.135,0.600,-22.339,85.327,-17.090
0.319,-0.136,0.595,-18.860,95.947,-17.517
0.396,-0.140,0.609,-15.442,101.990,-14.893
0.444,-0.126,0.598,-12.939,101.379,-7.996
0.463,-0.140,0.590,-11.047,95.581,1.465
0.489,-0.157,0.583,-9.583,87.463,10.437
0.502,-0.179,0.592,-7.263,78.247,16.968
0.494,-0.213,0.581,-5.798,66.467,20.325
0.451,-0.250,0.551,-7.568,53.711,23.071
0.382,-0.261,0.519,-12.207,44.067,25.574
0.344,-0.266,0.501,-17.639,39.734,27.771
0.376,-0.281,0.502,-22.827,39.429,28.137
0.377,-0.299,0.491,-26.733,41.260,25.696
0.364,-0.309,0.517,-30.396,46.082,22.949
0.425,-0.271,0.570,-34.973,48.828,20.996
0.516,-0.251,0.599,-38.879,44.861,21.240
0.586,-0.272,0.614,-41.870,35.583,24.353
0.548,-0.276,0.594,-45.898,22.705,28.320
0.458,-0.258,0.546,-51.086,11.108,31.982
0.371,-0.226,0.494,-55.664,4.028,34.790
0.344,-0.205,0.479,-60.425,3.174,36.804
0.362,-0.223,0.487,-63.660,6.226,38.269
0.389,-0.250,0.512,-67.566,10.864,40.466
0.383,-0.231,0.518,-72.327,14.709,43.213
0.418,-0.176,0.548,-76.233,18.433,45.471
0.500,-0.132,0.587,-74.524,20.569,44.800
0.509,-0.108,0.599,-68.848,17.639,40.039
0.488,-0.070,0.587,-62.683,10.742,33.447
0.485,-0.047,0.571,-57.373,2.563,27.283
0.439,-0.064,0.557,-53.833,-5.371,21.912
0.387,-0.080,0.529,-55.176,-11.658,20.142
0.348,-0.055,0.508,-59.998,-15.503,20.813
0.364,-0.021,0.525,-64.392,-16.052,20.081
0.398,0.001,0.536,-63.904,-16.907,14.771
0.380,0.011,0.536,-60.181,-19.348,4.211
0.371,0.031,0.537,-56.213,-21.301,-5.310
0.402,0.054,0.554,-51.208,-22.400,-11.597
0.418,0.064,0.568,-44.800,-23.193,-15.076
0.383,0.054,0.562,-38.330,-23.132,-16.052
0.383,0.028,0.578,-33.997,-20.630,-14.709
0.385,0.020,0.585,-33.569,-15.259,-11.169
0.400,0.028,0.611,-35.522,-8.301,-6.714
0.411,0.033,0.630,-37.109,-0.854,-4.028
0.412,0.035,0.638,-37.109,6.836,-3.906
0.413,0.047,0.630,-36.743,14.771,-5.493
0.462,0.073,0.643,-35.461,21.912,-7.935
0.527,0.091,0.667,-32.166,25.269,-11.780
0.548,0.078,0.678,-27.649,24.109,-16.846
0.547,0.069,0.682,-24.231,20.203,-19.226
0.569,0.063,0.696,-22.705,16.296,-17.029
0.561,0.046,0.698,-21.790,11.536,-13.062

0.670,-0.674,1.297,-14.343,-40.955,-13.672
0.553,-0.673,1.330,-26.245,-46.204,-13.550
0.443,-0.708,1.349,-30.518,-50.720,-11.108
0.356,-0.814,1.367,-25.940,-54.199,-10.620
0.263,-1.015,1.421,-15.198,-57.007,-18.921
0.168,-1.197,1.437,-5.554,-54.749,-31.982
0.163,-1.298,1.468,-0.427,-44.006,-42.786
0.265,-1.367,1.492,0.854,-27.100,-54.932
0.390,-1.353,1.476,-1.831,-4.089,-70.923
0.558,-1.322,1.494,-9.155,22.156,-86.243
0.743,-1.233,1.526,-20.264,46.875,-96.497
0.927,-1.060,1.579,-33.630,65.857,-96.191
1.102,-0.926,1.640,-46.204,70.984,-81.543
1.217,-0.826,1.687,-53.772,57.251,-58.472
1.261,-0.731,1.688,-54.382,27.344,-36.377
1.215,-0.634,1.642,-48.035,-11.169,-20.508
1.034,-0.546,1.551,-36.865,-47.729,-11.047
0.793,-0.543,1.447,-22.400,-69.275,-5.615
0.588,-0.615,1.389,-10.315,-68.726,-1.892
0.449,-0.671,1.415,-2.625,-49.072,-0.610
0.422,-0.764,1.497,2.197,-20.813,-1.282
0.521,-0.921,1.574,3.906,4.822,-4.211
0.671,-1.071,1.604,-1.770,19.226,-7.019
0.799,-1.149,1.557,-15.198,16.846,-8.057
0.833,-1.133,1.450,-31.616,1.343,-8.423
0.763,-1.069,1.322,-43.640,-17.273,-8.179
0.646,-0.962,1.217,-47.119,-28.870,-5.737
0.518,-0.842,1.159,-42.542,-29.114,-0.854
0.414,-0.746,1.137,-31.433,-20.081,5.676
0.339,-0.722,1.149,-17.151,-6.042,9.155
0.298,-0.736,1.183,-5.920,9.583,7.507
0.314,-0.726,1.256,-0.793,25.146,3.601
0.356,-0.687,1.327,-0.244,36.011,-0.732
0.401,-0.650,1.388,-2.686,40.771,-3.723
0.452,-0.674,1.417,-5.310,38.879,-5.188
0.466,-0.755,1.393,-9.216,31.494,-4.395
0.466,-0.797,1.346,-15.564,23.193,-3.235
0.450,-0.802,1.306,-23.132,18.982,-2.686
0.429,-0.788,1.253,-28.381,20.691,-2.319
0.437,-0.741,1.232,-31.128,28.748,-1.770
0.449,-0.687,1.221,-29.968,40.100,-0.122
0.492,-0.660,1.204,-26.794,52.124,1.831
0.533,-0.633,1.187,-25.024,62.195,3.967
0.592,-0.568,1.205,-25.208,67.505,7.507
0.648,-0.495,1.237,-24.597,64.758,12.878
0.644,-0.441,1.257,-22.400,53.223,18.250
0.589,-0.445,1.243,-16.907,37.109,21.545
0.505,-0.508,1.190,-10.376,23.132,21.973
0.404,-0.571,1.085,-6.836,16.357,17.639
0.349,-0.576,1.027,-8.179,19.165,10.071
0.339,-0.531,0.998,-11.047,27.954,3.601
0.375,-0.481,0.978,-12.085,38.513,-1.343
0.426,-0.427,0.974,-11.047,47.302,-5.798
0.483,-0.360,0.971,-8.423,53.101,-8.362
0.549,-0.302,0.975,-3.662,55.298,-7.080
0.617,-0.275,0.973,3.418,53.467,-4.272
0.670,-0.282,0.954,10.681,48.889,-2.686
0.665,-0.296,0.919,16.418,44.250,-2.075
0.629,-0.293,0.902,19.226,42.114,-2.014
0.604,-0.272,0.896,18.738,42.847,0.549
0.615,-0.245,0.912,18.188,43.884,4.944
0.644,-0.221,0.927,19.043,43.152,8.362
0.685,-0.195,0.942,20.142,38.513,11.047
0.713,-0.174,0.977,21.606,28.870,13.855
0.711,-0.188,0.988,23.926,14.099,16.663
0.668,-0.213,0.965,25.696,-1.709,18.555
0.603,-0.231,0.939,24.963,-13.123,19.592
0.555,-0.258,0.906,21.912,-17.639,20.081
0.520,-0.269,0.881,17.090,-14.893,18.250
0.495,-0.235,0.873,11.414,-7.690,14.282
0.460,-0.179,0.839,6.531,1.404,9.766
0.486,-0.100,0.843,2.869,11.475,4.883
0.525,-0.056,0.822,1.770,18.372,0.244
0.567,0.008,0.829,2.136,20.996,-2.930
0.618,0.057,0.841,3.174,19.775,-3.235
0.652,0.061,0.849,6.653,14.709,-1.099
0.651,0.055,0.865,11.719,8.118,2.869
0.620,0.028,0.864,17.090,2.136,6.714
0.576,-0.034,0.848,20.874,-0.183,9.949
0.535,-0.073,0.818,21.240,2.991,10.132
0.518,-0.079,0.799,19.226,11.475,7.690
0.523,-0.084,0.797,16.418,23.071,3.174
0.525,-0.090,0.802,13.123,34.912,-1.831
0.538,-0.088,0.789,9.216,45.227,-5.310
0.585,-0.075,0.782,4.761,53.040,-7.019
0.655,-0.045,0.788,0.977,55.603,-5.981
0.713,-0.031,0.797,-1.038,50.537,-3.418
0.722,-0.032,0.789,-1.770,39.001,0.427
0.687,-0.032,0.758,-2.625,24.170,5.920
0.635,-0.034,0.714,-3.723,9.399,11.047
0.579,-0.036,0.665,-4.700,-2.625,14.343
0.514,-0.038,0.618,-4.761,-10.010,15.503
0.459,-0.039,0.586,-5.005,-12.451,15.320
0.421,-0.032,0.552,-4.639,-10.864,13.428
0.374,-0.025,0.517,-3.784,-6.348,11.108
0.353,-0.028,0.514,-2.258,0.549,9.460
0.359,-0.027,0.521,-0.854,9.460,9.888
0.389,-0.009,0.531,-0.183,17.944,13.367
0.447,-0.005,0.544,0.793,23.132,18.127
0.485,-0.031,0.556,3.052,23.010,22.278
0.503,-0.038,0.561,5.066,18.127,25.024
0.523,-0.023,0.591,6.104,9.399,26.855
0.543,-0.029,0.621,6.897,-2.075,27.710
0.532,-0.051,0.630,7.629,-14.893,28.015
0.508,-0.077,0.634,6.775,-27.100,28.564
0.483,-0.103,0.636,5.432,-36.865,30.457
0.447,-0.130,0.628,2.686,-42.786,32.532
0.448,-0.139,0.647,-0.732,-44.495,34.851
0.430,-0.150,0.660,-2.563,-43.091,35.583
0.384,-0.167,0.652,-4.639,-39.490,34.851
0.386,-0.157,0.661,-7.996,-33.142,33.447
0.386,-0.155,0.671,-10.864,-25.879,30.579
0.361,-0.154,0.661,-12.451,-18.311,26.245
0.351,-0.143,0.668,-13.794,-10.559,21.545
0.339,-0.140,0.660,-14.832,-2.808,17.517
0.377,-0.116,0.693,-15.564,5.066,13.306
0.406,-0.114,0.713,-14.893,12.695,9.033
0.416,-0.134,0.721,-14.648,18.738,5.310
0.445,-0.132,0.725,-16.846,24.292,3.906

1.055,-0.557,1.231,9.460,-124.084,112.000
0.861,-0.918,1.282,44.495,-148.499,131.165
0.617,-1.276,1.310,67.505,-155.579,137.024
0.428,-1.643,1.407,77.271,-139.709,127.136
0.379,-1.989,1.486,74.768,-96.375,100.098
0.480,-2.107,1.586,55.908,-31.006,69.519
0.841,-1.955,1.752,26.672,36.621,39.368
1.295,-1.552,1.878,1.587,85.693,4.639
1.477,-1.135,1.907,-13.794,99.976,-32.471
1.452,-0.907,1.839,-20.691,84.167,-62.561
1.391,-0.898,1.707,-25.085,55.237,-82.581
1.278,-0.936,1.531,-30.945,26.917,-94.971
1.162,-0.890,1.344,-38.635,7.141,-104.675
1.058,-0.788,1.182,-42.603,-0.122,-113.159
0.979,-0.656,1.056,-39.368,3.052,-118.103
0.939,-0.544,0.965,-25.757,12.390,-118.164
0.911,-0.452,0.918,-4.395,24.414,-117.554
0.845,-0.389,0.922,22.766,36.804,-116.211
0.892,-0.442,0.998,54.138,48.218,-112.793
1.004,-0.634,1.114,82.825,54.504,-104.248
1.051,-0.846,1.168,98.694,50.964,-88.013
1.074,-0.995,1.196,99.854,39.063,-64.636
1.080,-1.050,1.217,91.187,22.034,-39.307
0.997,-1.044,1.196,79.041,1.282,-20.691
0.840,-0.986,1.155,67.200,-19.348,-9.277
0.626,-0.913,1.089,59.021,-36.194,-4.578
0.437,-0.907,1.030,55.969,-44.617,-7.019
0.311,-0.960,1.001,54.443,-41.687,-12.878
0.226,-0.997,0.957,49.438,-28.931,-17.212
0.203,-0.989,0.926,42.114,-11.169,-22.339
0.320,-1.001,0.920,35.461,7.812,-30.029
0.454,-0.995,0.925,26.184,22.156,-38.757
0.564,-0.926,0.924,15.869,29.114,-48.340
0.665,-0.842,0.920,7.751,30.518,-56.946
0.754,-0.762,0.912,3.540,28.503,-62.012
0.829,-0.709,0.916,2.563,25.024,-61.462
0.882,-0.658,0.938,3.296,22.400,-53.955
0.913,-0.604,0.942,4.883,20.325,-41.199
0.910,-0.550,0.927,7.568,17.761,-27.588
0.892,-0.539,0.913,11.780,14.587,-16.296
0.884,-0.573,0.917,16.968,10.864,-9.521
0.852,-0.601,0.925,22.339,6.042,-7.019
0.809,-0.658,0.927,26.855,2.197,-7.935
0.767,-0.737,0.905,27.832,2.991,-9.644
0.756,-0.776,0.867,24.353,9.521,-11.963
0.766,-0.748,0.839,16.968,20.386,-14.771
0.803,-0.663,0.843,8.850,31.860,-17.517
0.887,-0.543,0.894,3.784,39.856,-17.151
0.986,-0.466,0.944,3.845,39.978,-12.085
1.017,-0.436,0.954,6.897,31.128,-5.066
1.005,-0.433,0.951,10.986,18.005,1.953
0.989,-0.464,0.928,13.672,5.249,9.827
0.939,-0.495,0.895,13.611,-3.967,16.296
0.877,-0.521,0.858,11.047,-8.179,19.714
0.821,-0.553,0.809,6.592,-6.165,20.203
0.757,-0.542,0.744,-0.366,1.221,17.517
0.727,-0.453,0.722,-9.399,12.634,13.977
0.744,-0.389,0.722,-16.174,23.315,12.390
0.761,-0.316,0.732,-20.020,29.663,11.597
0.796,-0.246,0.750,-20.020,30.762,11.963
0.848,-0.206,0.780,-16.296,26.306,14.404
0.891,-0.191,0.808,-9.583,16.602,18.250
0.914,-0.222,0.812,-0.732,3.479,23.315
0.904,-0.285,0.802,6.897,-9.277,28.992
0.855,-0.345,0.782,10.864,-18.555,33.813
0.781,-0.403,0.740,11.658,-21.973,36.133
0.726,-0.439,0.700,7.690,-18.555,35.217
0.694,-0.454,0.671,0.671,-10.254,31.494
0.650,-0.456,0.623,-7.629,0.183,25.635
0.654,-0.395,0.618,-16.602,13.367,18.738
0.724,-0.325,0.654,-23.132,24.658,14.404
0.806,-0.281,0.677,-24.353,28.015,13.428
0.897,-0.241,0.718,-22.034,23.437,16.479
0.931,-0.211,0.735,-16.113,10.681,22.888
0.895,-0.208,0.716,-8.545,-6.287,30.212
0.839,-0.238,0.683,-0.732,-20.996,36.743
0.767,-0.287,0.650,5.859,-30.945,40.649
0.682,-0.337,0.614,9.644,-33.630,41.870
0.610,-0.370,0.580,9.827,-28.503,40.710
0.554,-0.388,0.545,7.935,-16.602,36.926
0.536,-0.393,0.525,5.249,-0.671,30.518
0.541,-0.383,0.520,3.052,17.273,22.888
0.573,-0.354,0.528,2.380,33.325,14.343
0.636,-0.319,0.555,3.723,45.654,6.165
0.697,-0.296,0.583,6.836,52.063,0.916
0.746,-0.282,0.604,10.498,51.941,-0.488
0.773,-0.270,0.607,13.733,46.387,2.014
0.796,-0.271,0.606,16.296,37.048,6.714
0.807,-0.282,0.594,18.188,25.330,11.658
0.771,-0.295,0.570,18.555,12.573,15.625
0.719,-0.302,0.543,16.235,1.709,19.287
0.670,-0.312,0.513,12.390,-5.676,22.461
0.615,-0.308,0.486,7.812,-8.850,23.987
0.586,-0.292,0.470,3.418,-6.836,23.499
0.564,-0.284,0.456,0.244,-1.526,20.996
0.550,-0.263,0.445,-2.075,5.859,16.846
0.555,-0.226,0.444,-3.296,14.160,12.451
0.576,-0.204,0.450,-1.587,21.484,8.240
0.589,-0.200,0.450,2.014,27.283,3.601
0.607,-0.201,0.456,5.920,32.043,-0.610
0.658,-0.211,0.473,9.155,34.668,-1.648
0.699,-0.219,0.493,10.742,33.325,1.587
0.747,-0.224,0.517,12.451,27.588,6.958
0.773,-0.237,0.531,15.442,19.043,11.414
0.750,-0.250,0.529,18.311,10.071,13.794
0.734,-0.242,0.526,20.325,2.625,15.991
0.726,-0.245,0.525,21.545,-2.625,17.334
0.685,-0.272,0.517,20.569,-6.226,18.372
0.677,-0.283,0.520,17.273,-7.263,20.874
0.675,-0.282,0.519,13.306,-6.226,22.705
0.619,-0.294,0.496,9.277,-5.188,22.705
0.592,-0.301,0.482,4.211,-2.441,21.606
0.606,-0.290,0.481,-1.465,1.404,19.897
0.614,-0.303,0.477,-7.080,4.578,17.456
0.605,-0.322,0.471,-12.878,6.287,13.916
0.634,-0.324,0.480,-18.982,8.545,9.827
0.670,-0.320,0.489,-25.513,11.292,5.554
0.652,-0.319,0.476,-31.555,14.282,1.892
0.604,-0.303,0.440,-37.598,19.287,0.122

2.728,-1.739,0.296,-43.396,289.917,-123.962
3.522,-1.814,0.620,-63.538,193.115,-77.454
3.474,-1.898,0.578,-69.275,37.781,-31.433
2.798,-1.934,0.205,-58.350,-99.976,-16.052
1.959,-2.005,-0.125,-44.861,-164.490,-28.076
1.354,-2.196,-0.378,-34.180,-137.695,-55.481
1.195,-2.171,-0.501,-37.598,-41.016,-77.576
1.349,-1.847,-0.527,-50.415,74.463,-90.637
1.642,-1.524,-0.495,-57.007,172.913,-100.525
1.865,-1.245,-0.418,-52.429,232.361,-103.455
1.954,-1.061,-0.314,-39.551,249.573,-94.849
2.023,-1.081,-0.245,-24.536,232.910,-78.369
1.965,-1.050,-0.189,-14.648,187.622,-60.913
1.800,-1.154,-0.234,-9.705,123.474,-44.922
1.599,-1.248,-0.281,-7.080,60.669,-36.560
1.484,-1.238,-0.339,-8.972,11.963,-27.100
1.373,-1.144,-0.349,-12.878,-20.142,-16.663
1.274,-1.106,-0.377,-10.681,-36.987,-9.827
1.302,-1.055,-0.324,-2.075,-39.551,-8.240
1.313,-1.004,-0.253,9.888,-35.767,-7.568
1.247,-1.022,-0.213,23.254,-30.457,-4.700
1.166,-1.034,-0.190,33.508,-22.644,1.160
1.024,-1.059,-0.179,38.513,-13.184,6.042
0.885,-1.100,-0.187,38.391,-2.136,5.676
0.796,-1.127,-0.172,34.607,10.620,0.244
0.778,-1.114,-0.134,28.809,22.766,-7.812
0.826,-1.076,-0.078,22.827,29.907,-17.090
0.893,-1.066,-0.042,17.517,29.297,-24.658
0.904,-1.066,-0.055,12.695,22.034,-31.067
0.909,-1.051,-0.081,7.446,14.465,-35.583
0.930,-1.042,-0.114,0.671,9.033,-35.278
0.903,-1.028,-0.180,-9.827,5.127,-30.518
0.858,-1.002,-0.251,-20.874,5.737,-27.039
0.835,-0.981,-0.300,-30.762,12.268,-26.733
0.824,-0.955,-0.327,-37.415,21.545,-27.527
0.839,-0.930,-0.348,-39.673,31.677,-29.053
0.859,-0.922,-0.362,-38.086,41.138,-30.762
0.859,-0.914,-0.360,-34.851,48.157,-31.677
0.849,-0.904,-0.348,-31.738,52.063,-32.959
0.891,-0.935,-0.338,-29.236,53.467,-34.729
0.932,-0.957,-0.336,-28.931,51.025,-37.964
1.004,-0.959,-0.323,-29.358,45.532,-41.321
1.077,-0.955,-0.315,-29.602,36.804,-42.236
1.058,-0.947,-0.339,-30.151,26.489,-40.710
0.984,-0.919,-0.387,-29.846,20.081,-38.635
0.873,-0.868,-0.424,-28.992,22.644,-36.316
0.796,-0.885,-0.452,-28.748,33.142,-34.363
0.791,-0.884,-0.441,-29.907,46.936,-34.241
0.909,-0.864,-0.389,-30.823,59.082,-36.804
1.041,-0.859,-0.334,-30.457,61.951,-40.466
1.140,-0.872,-0.299,-28.809,53.894,-42.847
1.189,-0.873,-0.285,-27.161,38.940,-41.687
1.122,-0.823,-0.308,-26.428,22.400,-36.865
0.987,-0.789,-0.359,-26.123,10.010,-29.968
0.874,-0.818,-0.416,-26.611,6.104,-24.170
0.792,-0.844,-0.466,-28.259,11.047,-23.071
0.737,-0.787,-0.485,-30.579,22.888,-24.353
0.790,-0.702,-0.453,-31.738,37.537,-24.475
0.890,-0.701,-0.419,-29.663,48.035,-23.315
0.969,-0.721,-0.397,-26.672,49.988,-22.156
0.999,-0.688,-0.378,-24.475,45.715,-20.630
1.024,-0.675,-0.365,-21.729,37.720,-17.761
1.027,-0.700,-0.376,-18.616,27.344,-14.648
1.015,-0.716,-0.390,-16.296,16.479,-12.329
0.983,-0.719,-0.423,-15.198,5.737,-10.803
0.920,-0.711,-0.465,-13.977,-3.601,-9.888
0.870,-0.713,-0.506,-13.306,-9.460,-9.033
0.820,-0.707,-0.557,-12.634,-11.963,-8.240
0.761,-0.625,-0.571,-10.559,-9.277,-6.104
0.757,-0.551,-0.542,-5.432,-0.610,-1.892
0.805,-0.601,-0.512,2.258,9.583,3.601
0.854,-0.692,-0.479,8.606,16.907,6.226
0.910,-0.746,-0.442,10.864,19.653,6.042
0.968,-0.781,-0.417,10.498,16.113,4.944
0.963,-0.802,-0.424,9.277,6.592,3.418
0.892,-0.792,-0.450,9.277,-3.479,2.502
0.817,-0.761,-0.473,10.986,-9.094,3.906
0.749,-0.739,-0.499,14.343,-9.949,6.714
0.687,-0.727,-0.520,18.433,-6.470,7.812
0.650,-0.708,-0.516,23.071,1.099,7.385
0.626,-0.689,-0.508,26.978,10.071,7.385
0.599,-0.680,-0.506,29.480,18.738,7.690
0.578,-0.671,-0.506,30.945,27.649,8.484
0.557,-0.644,-0.496,31.006,35.400,9.949
0.549,-0.613,-0.480,30.518,41.748,11.047
0.547,-0.586,-0.464,30.273,45.654,11.108
0.550,-0.556,-0.442,30.090,47.363,9.888
0.565,-0.526,-0.422,29.297,46.570,8.362
0.579,-0.500,-0.411,28.442,42.419,6.958
0.576,-0.467,-0.405,27.649,35.461,5.737
0.542,-0.439,-0.419,27.954,28.381,3.540
0.504,-0.420,-0.435,29.663,23.743,1.465
0.478,-0.403,-0.446,31.982,22.400,0.244
0.463,-0.394,-0.452,34.119,23.499,0.305
0.452,-0.375,-0.453,36.072,25.452,0.793
0.448,-0.354,-0.454,37.354,27.649,1.465
0.439,-0.373,-0.471,38.025,29.297,1.526
0.437,-0.406,-0.496,37.231,31.128,0.305
0.439,-0.403,-0.515,34.790,33.630,-1.709
0.457,-0.388,-0.523,33.325,36.255,-3.723
0.490,-0.380,-0.521,33.386,37.842,-5.615
0.494,-0.355,-0.522,34.668,37.598,-7.080
0.481,-0.328,-0.520,36.926,35.889,-7.385
0.479,-0.335,-0.526,39.978,34.485,-4.944
0.474,-0.364,-0.547,42.236,33.081,-2.319
0.449,-0.376,-0.554,42.664,33.508,-0.977
0.391,-0.375,-0.565,42.603,36.316,-1.404
0.364,-0.372,-0.569,42.236,43.213,-2.686
0.388,-0.352,-0.556,41.382,53.589,-3.418
0.428,-0.330,-0.534,39.063,63.721,-3.174
0.467,-0.330,-0.536,35.522,70.251,-1.709
0.501,-0.304,-0.524,30.701,73.547,0.671
0.535,-0.278,-0.502,25.879,73.242,3.357
0.558,-0.286,-0.512,19.958,68.542,6.470
0.560,-0.307,-0.525,12.817,61.523,8.728
0.558,-0.269,-0.525,5.249,53.467,10.437
0.546,-0.215,-0.531,0.000,44.800,12.573
0.538,-0.182,-0.552,-3.052,36.194,15.015
0.517,-0.159,-0.575,-4.089,28.442,17.029

0.266,-1.457,-1.306,-34.912,-44.739,20.813
0.271,-1.641,-1.358,-42.297,-87.219,9.705
0.298,-1.736,-1.406,-49.500,-122.131,-0.671
0.277,-1.752,-1.445,-54.565,-148.071,-7.202
0.188,-1.721,-1.504,-57.251,-162.476,-9.338
0.058,-1.683,-1.580,-56.335,-160.583,-9.583
-0.010,-1.615,-1.610,-53.345,-139.893,-10.010
0.031,-1.506,-1.568,-48.157,-107.117,-12.207
0.191,-1.439,-1.531,-39.429,-73.242,-15.625
0.398,-1.414,-1.471,-29.541,-46.570,-18.311
0.552,-1.309,-1.353,-19.531,-31.433,-18.738
0.622,-1.213,-1.254,-7.446,-29.297,-15.625
0.612,-1.218,-1.194,5.554,-35.461,-8.606
0.464,-1.242,-1.125,15.869,-41.321,-1.343
0.344,-1.324,-1.135,21.912,-41.321,5.798
0.213,-1.446,-1.151,20.142,-32.104,12.817
0.146,-1.448,-1.114,10.071,-16.357,15.747
0.171,-1.427,-1.079,-3.052,-1.099,17.822
0.239,-1.427,-1.067,-15.198,8.728,19.287
0.284,-1.339,-1.025,-24.353,10.742,15.076
0.381,-1.275,-0.973,-25.879,3.723,9.338
0.459,-1.305,-0.974,-21.545,-14.343,4.272
0.516,-1.349,-0.988,-15.503,-38.452,-1.404
0.498,-1.278,-0.965,-9.216,-61.890,-11.108
0.455,-1.226,-0.974,-0.732,-83.191,-19.287
0.395,-1.226,-0.989,9.399,-95.642,-23.437
0.294,-1.181,-0.971,20.020,-93.994,-25.208
0.226,-1.144,-0.944,27.954,-79.651,-23.437
0.199,-1.164,-0.922,30.823,-56.763,-19.409
0.202,-1.165,-0.887,26.917,-30.762,-14.893
0.240,-1.156,-0.861,16.479,-7.812,-11.169
0.292,-1.137,-0.852,2.502,9.521,-8.240
0.363,-1.098,-0.841,-11.169,20.569,-5.127
0.409,-1.065,-0.841,-24.109,23.865,-2.563
0.428,-1.037,-0.854,-34.058,20.142,-1.587
0.444,-1.019,-0.868,-40.161,12.451,-2.380
0.456,-1.012,-0.896,-43.823,2.441,-4.456
0.459,-1.002,-0.932,-44.983,-7.874,-7.690
0.458,-0.973,-0.964,-43.152,-16.541,-10.803
0.459,-0.929,-0.995,-38.330,-22.034,-13.306
0.439,-0.912,-1.022,-32.288,-23.926,-15.442
0.407,-0.916,-1.038,-27.222,-21.973,-16.479
0.384,-0.909,-1.041,-24.231,-17.212,-16.235
0.409,-0.918,-1.035,-23.804,-11.414,-14.832
0.423,-0.916,-1.043,-26.794,-6.836,-13.611
0.449,-0.896,-1.039,-31.250,-3.235,-12.695
0.503,-0.888,-1.041,-35.034,-2.014,-12.207
0.553,-0.880,-1.037,-37.598,-4.395,-12.451
0.587,-0.863,-1.029,-38.513,-9.583,-13.855
0.612,-0.848,-1.026,-37.109,-17.639,-14.587
0.633,-0.823,-1.029,-35.217,-27.588,-13.123
0.616,-0.783,-1.027,-32.776,-39.246,-10.681
0.605,-0.768,-1.036,-28.931,-51.453,-8.240
0.598,-0.750,-1.043,-24.475,-62.622,-6.897
0.534,-0.694,-1.065,-20.508,-71.045,-8.057
0.524,-0.662,-1.056,-16.113,-72.876,-10.254
0.590,-0.674,-1.033,-11.780,-68.481,-11.536
0.658,-0.683,-1.003,-8.789,-63.904,-12.756
0.711,-0.648,-0.968,-7.446,-62.744,-12.390
0.738,-0.624,-0.938,-5.615,-65.491,-8.972
0.735,-0.644,-0.936,-3.479,-70.801,-3.845
0.692,-0.637,-0.945,-2.075,-76.782,2.502
0.617,-0.583,-0.948,-1.160,-79.895,9.216
0.550,-0.536,-0.955,2.136,-77.698,15.259
0.504,-0.520,-0.971,7.507,-69.763,19.836
0.485,-0.528,-0.986,12.634,-57.129,23.437
0.480,-0.523,-0.982,15.625,-41.443,25.757
0.487,-0.474,-0.956,16.968,-26.367,28.137
0.521,-0.503,-0.966,18.188,-13.855,32.227
0.542,-0.515,-0.945,17.578,-3.601,33.203
0.540,-0.478,-0.903,15.198,3.418,32.288
0.545,-0.454,-0.874,14.954,6.958,32.776
0.501,-0.399,-0.830,16.235,7.446,33.203
0.467,-0.387,-0.805,20.508,5.981,35.156
0.425,-0.381,-0.781,25.940,4.761,35.950
0.375,-0.366,-0.750,30.701,4.700,35.400
0.346,-0.366,-0.712,35.278,5.310,34.546
0.344,-0.363,-0.677,38.757,5.493,32.593
0.339,-0.348,-0.632,40.833,4.333,28.992
0.349,-0.352,-0.607,41.748,1.404,24.963
0.333,-0.347,-0.588,40.710,-1.892,20.752
0.318,-0.328,-0.569,37.903,-5.432,17.883
0.308,-0.290,-0.550,34.180,-8.301,16.968
0.295,-0.259,-0.529,31.494,-10.437,16.724
0.291,-0.246,-0.514,30.457,-12.451,17.822
0.293,-0.234,-0.503,30.579,-14.404,19.653
0.289,-0.220,-0.497,31.189,-16.541,20.874
0.279,-0.216,-0.498,32.715,-18.372,21.118
0.256,-0.206,-0.487,34.485,-19.287,20.142
0.230,-0.225,-0.500,36.194,-19.165,18.188
0.214,-0.244,-0.515,36.499,-17.456,14.648
0.217,-0.236,-0.510,35.217,-13.733,11.047
0.236,-0.233,-0.506,34.790,-10.559,8.606
0.277,-0.243,-0.510,35.828,-10.071,7.141
0.302,-0.282,-0.518,36.377,-12.207,5.798
0.337,-0.308,-0.514,35.278,-16.113,4.028
0.362,-0.290,-0.512,33.813,-23.071,2.014
0.377,-0.276,-0.534,32.654,-32.043,0.427
0.391,-0.272,-0.565,31.677,-41.077,-0.427
0.386,-0.271,-0.600,30.212,-48.767,-1.831
0.386,-0.251,-0.628,28.748,-53.650,-3.113
0.413,-0.249,-0.644,28.870,-56.335,-2.930
0.434,-0.266,-0.654,29.480,-58.228,-1.648
0.442,-0.262,-0.657,27.588,-59.998,-0.549
0.461,-0.243,-0.660,25.391,-60.364,0.854
0.503,-0.224,-0.667,23.865,-60.852,2.991
0.548,-0.209,-0.654,22.278,-63.110,6.531
0.548,-0.179,-0.644,18.677,-66.406,9.460
0.567,-0.162,-0.656,14.832,-69.946,11.963
0.583,-0.169,-0.676,10.803,-73.425,15.076
0.575,-0.193,-0.705,6.531,-75.195,16.296
0.564,-0.186,-0.706,1.343,-73.547,15.564
0.576,-0.161,-0.694,-3.113,-70.313,13.245
0.600,-0.156,-0.703,-4.761,-66.101,10.925
0.618,-0.144,-0.710,-6.470,-61.646,10.315
0.625,-0.122,-0.714,-9.216,-56.641,10.193
0.648,-0.125,-0.733,-9.949,-49.866,10.010
0.668,-0.144,-0.755,-11.108,-42.358,11.230
0.687,-0.141,-0.770,-13.123,-34.241,12.634

1.411,-0.711,0.709,-101.074,-33.325,-18.738
1.424,-0.721,0.665,-103.455,-66.528,-39.612
1.384,-0.678,0.641,-97.290,-98.511,-54.199
1.334,-0.714,0.636,-81.238,-122.070,-59.631
1.246,-0.869,0.669,-63.782,-132.751,-50.354
1.021,-1.058,0.712,-59.082,-129.639,-20.081
0.879,-1.298,0.753,-68.298,-116.089,22.034
0.843,-1.516,0.801,-79.468,-96.130,55.847
0.799,-1.584,0.839,-87.158,-78.613,65.002
0.717,-1.544,0.893,-83.679,-65.979,55.664
0.718,-1.564,0.991,-64.758,-57.556,42.480
0.761,-1.656,1.061,-34.241,-57.861,22.095
0.745,-1.740,1.098,-2.991,-64.941,-9.644
0.630,-1.818,1.085,20.142,-67.322,-42.786
0.504,-1.840,1.090,25.391,-53.955,-58.899
0.507,-1.836,1.086,17.090,-27.466,-57.617
0.642,-1.806,1.082,3.906,5.371,-51.819
0.791,-1.730,1.062,-8.362,35.950,-53.101
0.953,-1.681,1.035,-16.846,57.007,-63.843
1.070,-1.643,1.016,-21.667,66.711,-80.078
1.166,-1.578,0.996,-23.743,66.956,-95.215
1.204,-1.518,0.929,-23.132,60.791,-104.248
1.187,-1.430,0.915,-21.118,55.908,-106.262
1.176,-1.338,0.915,-15.137,52.917,-103.394
1.195,-1.276,0.927,-6.104,50.415,-98.694
1.233,-1.245,0.959,3.662,42.847,-90.942
1.205,-1.252,0.986,12.146,25.146,-80.688
1.080,-1.311,0.961,18.311,-2.136,-68.298
0.880,-1.358,0.909,20.264,-32.898,-53.101
0.644,-1.382,0.867,19.653,-59.692,-35.950
0.415,-1.404,0.822,19.104,-77.820,-16.846
0.192,-1.437,0.764,17.700,-85.449,1.465
-0.012,-1.442,0.714,14.404,-80.383,14.343
-0.163,-1.419,0.700,10.559,-61.523,18.860
-0.226,-1.375,0.691,7.202,-32.715,15.686
-0.198,-1.327,0.699,5.005,0.488,7.935
-0.078,-1.338,0.732,2.563,33.630,0.061
0.124,-1.329,0.783,-3.052,62.683,0.183
0.350,-1.286,0.817,-12.268,80.688,8.789
0.521,-1.221,0.831,-22.583,85.266,19.836
0.630,-1.127,0.844,-30.518,78.674,28.320
0.658,-1.046,0.832,-32.349,64.819,31.494
0.615,-0.970,0.789,-28.564,49.316,29.724
0.595,-0.954,0.786,-21.484,37.476,25.940
0.550,-0.959,0.755,-12.695,28.198,20.264
0.510,-0.995,0.736,-4.944,24.536,15.869
0.530,-1.029,0.743,1.587,24.658,15.259
0.568,-1.058,0.783,6.714,26.611,18.127
0.653,-1.093,0.807,10.315,27.527,23.926
0.758,-1.133,0.829,10.803,26.306,34.912
0.780,-1.137,0.809,6.775,22.217,46.692
0.749,-1.145,0.762,0.671,19.531,53.467
0.727,-1.169,0.689,-7.568,21.484,53.833
0.686,-1.154,0.610,-18.433,29.053,48.645
0.646,-0.995,0.592,-29.602,40.344,39.734
0.738,-0.833,0.669,-33.386,51.636,34.424
0.875,-0.763,0.752,-25.940,52.673,32.837
0.937,-0.741,0.768,-12.634,41.443,30.396
0.949,-0.747,0.767,2.075,24.231,27.344
0.932,-0.776,0.743,14.954,7.080,26.062
0.889,-0.841,0.703,24.292,-4.272,26.794
0.857,-0.901,0.657,27.344,-6.836,28.198
0.827,-0.914,0.609,24.048,-1.526,30.396
0.770,-0.867,0.558,15.137,9.705,33.813
0.733,-0.801,0.538,4.578,23.010,35.767
0.750,-0.729,0.585,-3.113,36.316,34.485
0.817,-0.656,0.659,-6.042,44.617,30.823
0.877,-0.583,0.716,-5.310,43.457,25.574
0.973,-0.557,0.759,-0.366,33.936,20.874
1.069,-0.558,0.794,7.568,17.761,17.517
1.065,-0.585,0.767,14.893,-3.174,15.564
1.006,-0.616,0.723,18.372,-20.691,16.052
0.956,-0.657,0.692,17.639,-27.710,18.127
0.885,-0.613,0.656,12.024,-23.437,19.287
0.830,-0.503,0.634,5.493,-10.498,20.996
0.813,-0.459,0.656,0.977,5.920,23.865
0.846,-0.471,0.705,-1.892,19.531,23.682
0.896,-0.474,0.678,-3.967,25.513,20.264
0.990,-0.432,0.706,-6.470,26.062,18.066
1.040,-0.401,0.733,-8.484,16.052,18.860
1.000,-0.390,0.673,-8.972,-4.822,18.616
0.916,-0.349,0.603,-9.460,-24.536,16.541
0.776,-0.305,0.500,-8.972,-36.804,13.184
0.649,-0.261,0.418,-6.287,-36.621,9.888
0.521,-0.204,0.306,-1.160,-24.170,7.507
0.477,-0.254,0.327,5.371,0.732,6.531
0.578,-0.287,0.361,11.902,25.024,-0.244
0.630,-0.206,0.343,15.503,40.405,-8.789
0.620,-0.167,0.333,17.090,53.345,-11.230
0.563,-0.177,0.282,18.250,64.087,-9.521
0.558,-0.198,0.276,16.968,78.979,-3.540
0.591,-0.180,0.290,13.977,93.628,2.625
0.604,-0.156,0.272,11.475,103.699,7.141
0.650,-0.165,0.276,9.277,109.985,7.690
0.652,-0.166,0.261,8.240,113.403,3.296
0.663,-0.176,0.265,8.545,114.258,-2.197
0.694,-0.159,0.261,7.690,110.718,-6.653
0.686,-0.122,0.246,6.653,103.638,-8.606
0.643,-0.098,0.226,5.371,96.375,-6.226
0.618,-0.084,0.204,5.615,90.027,-1.587
0.647,-0.084,0.191,7.874,84.290,4.272
0.666,-0.094,0.188,11.658,78.125,8.911
0.652,-0.110,0.182,16.479,71.289,11.292
0.624,-0.128,0.169,21.973,64.453,11.353
0.614,-0.150,0.165,27.893,59.448,9.827
0.637,-0.168,0.173,33.691,55.847,8.667
0.673,-0.182,0.192,38.757,53.528,10.071
0.711,-0.202,0.212,42.664,50.537,13.916
0.771,-0.236,0.236,45.227,46.265,19.287
0.837,-0.275,0.265,46.448,39.673,23.621
0.868,-0.294,0.301,44.922,31.067,28.259
0.841,-0.270,0.328,39.124,20.508,36.682
0.767,-0.229,0.324,31.494,8.057,45.593
0.700,-0.213,0.307,23.804,-1.526,52.307
0.656,-0.228,0.286,15.625,-6.042,55.237
0.585,-0.221,0.267,6.104,-5.859,55.786
0.544,-0.219,0.255,-4.089,-1.160,56.030
0.531,-0.216,0.257,-15.686,7.874,56.030
0.531,-0.181,0.267,-27.710,18.494,54.749

-0.972,-1.117,0.671,-5.920,-146.240,85.388
-1.000,-1.164,0.694,-2.930,-142.639,82.825
-1.044,-1.181,0.684,2.014,-137.024,79.651
-1.049,-1.268,0.656,7.751,-125.183,80.200
-1.029,-1.420,0.639,12.573,-106.873,81.177
-0.989,-1.577,0.655,15.625,-83.679,76.233
-0.936,-1.635,0.668,18.311,-59.021,57.678
-0.940,-1.652,0.654,23.499,-33.020,28.625
-0.965,-1.646,0.640,32.043,-4.883,-0.549
-0.983,-1.642,0.631,44.189,27.283,-24.963
-0.985,-1.670,0.625,58.350,62.561,-43.030
-0.937,-1.691,0.626,70.251,99.304,-55.420
-0.842,-1.695,0.608,78.735,134.949,-65.308
-0.691,-1.710,0.585,82.336,167.847,-73.975
-0.527,-1.721,0.562,80.627,195.496,-82.397
-0.391,-1.695,0.584,73.486,215.332,-89.294
-0.268,-1.646,0.625,63.721,224.365,-92.163
-0.151,-1.644,0.675,54.749,221.619,-90.698
-0.060,-1.673,0.716,45.227,206.848,-86.365
-0.080,-1.632,0.752,33.447,180.969,-82.214
-0.138,-1.593,0.750,22.095,149.597,-75.439
-0.173,-1.569,0.698,11.230,117.493,-66.223
-0.220,-1.521,0.637,0.244,89.294,-56.824
-0.272,-1.420,0.650,-9.460,67.688,-46.326
-0.311,-1.355,0.639,-14.648,49.133,-32.593
-0.375,-1.275,0.663,-15.015,31.921,-19.836
-0.443,-1.256,0.700,-10.071,18.494,-6.653
-0.466,-1.319,0.741,-3.235,5.981,5.798
-0.478,-1.389,0.768,0.916,-4.211,14.771
-0.496,-1.471,0.799,0.183,-11.780,19.531
-0.477,-1.561,0.866,-7.019,-15.198,21.057
-0.451,-1.636,0.928,-23.010,-15.564,21.423
-0.449,-1.629,0.963,-46.753,-12.512,22.156
-0.454,-1.537,0.959,-73.669,-4.456,23.804
-0.477,-1.407,0.937,-98.022,9.705,26.733
-0.483,-1.256,0.956,-114.685,29.053,31.006
-0.465,-1.111,0.990,-121.582,47.302,35.156
-0.440,-0.970,0.974,-117.249,59.570,38.208
-0.399,-0.891,0.987,-102.356,65.247,40.222
-0.342,-0.879,1.010,-81.726,63.477,41.382
-0.288,-0.924,1.048,-59.753,54.749,41.443
-0.230,-0.993,1.104,-41.870,40.527,41.626
-0.223,-1.080,1.139,-30.151,22.827,41.260
-0.259,-1.177,1.143,-26.001,6.653,39.001
-0.297,-1.257,1.096,-29.236,-2.197,35.095
-0.369,-1.269,1.006,-39.917,-1.038,29.907
-0.413,-1.206,0.956,-54.688,11.841,25.513
-0.380,-1.123,0.940,-67.139,31.494,24.231
-0.321,-1.025,0.933,-74.280,49.377,23.987
-0.283,-0.906,0.933,-75.623,62.622,24.353
-0.205,-0.802,0.952,-71.045,69.397,28.564
-0.117,-0.728,0.988,-61.829,67.566,35.706
-0.085,-0.705,1.011,-49.683,57.922,42.603
-0.081,-0.730,1.022,-37.170,44.800,48.462
-0.098,-0.764,1.017,-28.015,31.372,52.612
-0.148,-0.800,1.011,-22.339,20.386,54.260
-0.216,-0.855,1.000,-20.447,14.587,54.016
-0.303,-0.901,0.968,-23.987,17.151,52.979
-0.370,-0.897,0.917,-32.593,29.663,50.903
-0.388,-0.805,0.881,-44.373,50.415,47.241
-0.355,-0.672,0.885,-54.382,74.402,42.053
-0.263,-0.553,0.923,-56.946,94.177,36.255
-0.156,-0.461,0.958,-51.758,106.018,30.457
-0.066,-0.390,0.997,-41.443,107.971,25.879
0.000,-0.374,1.028,-27.344,100.769,24.414
0.035,-0.409,1.056,-12.939,88.074,25.574
0.027,-0.478,1.073,-1.953,73.364,28.137
0.017,-0.561,1.085,3.357,59.692,30.457
-0.020,-0.631,1.066,2.380,48.218,29.541
-0.108,-0.667,1.014,-4.272,42.847,24.048
-0.226,-0.630,0.948,-14.526,46.875,16.113
-0.267,-0.546,0.895,-26.550,60.791,9.094
-0.262,-0.466,0.854,-36.011,79.651,2.258
-0.248,-0.418,0.826,-40.100,99.487,-5.371
-0.212,-0.383,0.803,-39.063,118.530,-14.099
-0.149,-0.364,0.791,-35.156,136.353,-22.888
-0.050,-0.346,0.786,-29.114,151.123,-29.358
0.053,-0.338,0.781,-22.644,159.851,-33.691
0.132,-0.341,0.757,-16.602,163.025,-36.804
0.195,-0.338,0.752,-12.207,163.391,-39.063
0.233,-0.332,0.749,-9.094,162.415,-39.795
0.247,-0.334,0.726,-7.202,160.461,-39.673
0.254,-0.322,0.716,-7.385,159.973,-38.940
0.262,-0.301,0.710,-9.155,161.438,-36.194
0.279,-0.265,0.700,-11.047,162.659,-32.410
0.301,-0.244,0.684,-12.573,163.269,-28.625
0.307,-0.231,0.662,-13.489,162.903,-26.306
0.324,-0.214,0.641,-13.672,161.987,-25.940
0.351,-0.208,0.616,-12.329,160.095,-26.489
0.353,-0.210,0.578,-10.193,157.410,-27.405
0.363,-0.206,0.559,-7.996,154.602,-28.015
0.385,-0.197,0.555,-6.042,151.001,-28.259
0.407,-0.194,0.549,-4.395,145.203,-28.381
0.437,-0.204,0.544,-2.991,138.550,-26.855
0.442,-0.230,0.530,-2.136,129.761,-23.804
0.449,-0.260,0.521,-3.052,120.544,-20.874
0.424,-0.276,0.502,-4.211,111.694,-19.958
0.401,-0.264,0.499,-6.470,104.126,-21.301
0.415,-0.248,0.499,-8.850,97.107,-23.376
0.380,-0.242,0.475,-11.475,90.820,-25.818
0.368,-0.252,0.465,-14.404,86.487,-28.076
0.398,-0.262,0.468,-17.639,84.351,-29.175
0.424,-0.262,0.488,-19.836,82.703,-30.945
0.463,-0.276,0.512,-20.264,81.238,-32.715
0.449,-0.282,0.515,-20.081,79.529,-33.325
0.457,-0.257,0.529,-20.081,78.613,-33.264
0.523,-0.245,0.565,-19.348,79.102,-31.189
0.576,-0.262,0.596,-18.860,78.857,-26.917
0.579,-0.281,0.605,-20.081,76.477,-20.996
0.583,-0.280,0.614,-23.376,72.632,-14.282
0.587,-0.279,0.600,-26.367,67.627,-9.705
0.516,-0.264,0.566,-29.114,64.148,-8.484
0.501,-0.242,0.557,-32.410,64.331,-10.376
0.528,-0.233,0.559,-34.363,66.467,-15.442
0.535,-0.238,0.555,-35.828,68.787,-24.475
0.514,-0.221,0.544,-38.940,70.679,-34.363
0.512,-0.180,0.526,-43.030,72.205,-42.480
0.520,-0.145,0.501,-46.875,73.975,-47.913
0.541,-0.119,0.485,-50.842,76.172,-50.659

1.594,-1.285,0.174,-47.485,26.733,-18.982
1.644,-1.381,0.193,-60.486,21.851,-6.104
1.543,-1.521,0.178,-55.969,25.696,0.977
1.468,-1.679,0.202,-35.034,48.157,-3.601
1.512,-1.846,0.333,-6.409,85.754,-18.188
1.662,-2.021,0.459,23.010,122.803,-41.321
1.853,-2.172,0.529,43.335,149.536,-68.604
2.066,-2.141,0.597,50.049,160.095,-91.797
2.172,-2.017,0.611,44.067,149.170,-102.600
2.067,-1.863,0.532,28.870,122.131,-100.464
1.833,-1.661,0.432,8.606,93.994,-90.027
1.528,-1.459,0.326,-11.108,73.792,-76.111
1.220,-1.306,0.204,-28.687,67.017,-63.171
0.984,-1.229,0.109,-43.762,74.890,-54.871
0.819,-1.216,0.013,-55.664,93.140,-52.612
0.704,-1.211,-0.047,-64.880,119.385,-57.190
0.785,-1.258,-0.052,-67.505,152.405,-66.467
0.961,-1.314,-0.034,-62.500,181.641,-76.477
1.130,-1.348,-0.015,-53.345,199.829,-84.778
1.316,-1.362,-0.004,-42.297,203.979,-86.182
1.457,-1.364,0.022,-29.297,191.956,-77.698
1.527,-1.382,0.061,-15.930,165.649,-60.181
1.516,-1.397,0.088,-3.662,128.235,-35.706
1.441,-1.417,0.097,6.592,85.022,-7.812
1.311,-1.443,0.088,15.015,41.687,17.700
1.152,-1.472,0.081,22.644,3.967,36.926
0.972,-1.479,0.072,28.748,-25.879,48.096
0.726,-1.465,0.032,33.325,-46.692,51.514
0.509,-1.458,0.002,37.842,-52.063,48.828
0.404,-1.450,0.021,41.504,-41.687,42.358
0.395,-1.441,0.056,43.396,-22.705,32.837
0.432,-1.442,0.084,42.358,-1.282,21.545
0.514,-1.429,0.111,36.438,18.921,11.658
0.641,-1.413,0.124,26.123,34.241,5.310
0.726,-1.399,0.095,13.123,42.297,1.221
0.753,-1.358,0.041,-0.916,45.349,-1.160
0.808,-1.260,-0.004,-13.977,45.776,-0.916
0.884,-1.133,-0.024,-22.888,43.457,1.160
0.929,-1.027,-0.039,-24.170,35.767,3.723
0.957,-0.959,-0.037,-18.127,23.071,7.263
0.990,-0.936,-0.020,-7.385,5.859,10.681
1.010,-0.957,-0.001,5.371,-14.771,12.695
0.997,-1.003,0.004,17.883,-37.231,11.963
0.956,-1.051,-0.002,28.381,-57.068,7.874
0.932,-1.082,-0.001,34.668,-70.984,2.747
0.913,-1.076,0.007,35.767,-79.163,-1.160
0.909,-1.029,0.036,33.447,-82.642,-2.991
0.939,-1.020,0.069,30.273,-83.435,-2.441
0.972,-1.016,0.096,26.367,-84.473,0.122
1.001,-0.982,0.128,22.400,-86.365,5.066
1.029,-0.937,0.155,19.287,-91.064,10.986
1.064,-0.921,0.161,17.639,-99.182,15.808
1.060,-0.909,0.134,16.235,-110.107,18.250
1.016,-0.844,0.110,13.733,-120.972,18.799
0.987,-0.789,0.108,12.451,-128.052,18.494
0.959,-0.800,0.103,14.038,-130.371,17.456
0.946,-0.792,0.105,16.113,-126.526,15.808
0.946,-0.761,0.120,17.517,-117.615,15.442
0.972,-0.768,0.135,18.982,-106.873,17.151
0.995,-0.792,0.146,18.860,-96.436,21.362
0.974,-0.806,0.136,16.296,-86.792,27.100
0.915,-0.766,0.107,12.207,-75.806,32.166
0.881,-0.669,0.109,6.897,-61.340,34.851
0.909,-0.632,0.137,3.235,-45.959,34.912
0.944,-0.639,0.153,1.282,-33.936,31.616
0.983,-0.605,0.177,-0.671,-25.452,26.184
1.036,-0.573,0.202,-1.953,-21.179,21.545
1.086,-0.565,0.216,-1.953,-21.484,18.921
1.111,-0.573,0.218,-1.465,-23.926,18.677
1.111,-0.583,0.199,-1.221,-26.794,20.813
1.064,-0.549,0.164,-1.282,-27.893,23.865
1.031,-0.506,0.144,-1.404,-25.879,27.832
1.021,-0.479,0.146,-0.854,-22.705,32.593
0.994,-0.468,0.144,1.404,-20.691,36.865
0.943,-0.467,0.143,5.066,-20.020,39.307
0.895,-0.457,0.145,8.972,-19.104,39.673
0.871,-0.460,0.153,12.939,-18.005,37.903
0.862,-0.486,0.155,16.052,-17.517,34.058
0.856,-0.508,0.156,17.029,-19.409,29.602
0.847,-0.529,0.144,15.503,-23.865,24.658
0.817,-0.536,0.123,10.620,-29.297,20.081
0.763,-0.528,0.093,4.700,-33.813,16.541
0.715,-0.501,0.064,-1.892,-34.851,14.893
0.654,-0.453,0.037,-7.263,-31.738,15.442
0.619,-0.406,0.010,-10.071,-23.071,17.944
0.631,-0.360,0.009,-9.338,-10.620,22.949
0.675,-0.318,0.026,-7.019,1.343,29.480
0.728,-0.300,0.041,-2.441,10.010,35.522
0.765,-0.303,0.054,3.418,13.672,40.222
0.782,-0.309,0.059,9.216,12.207,42.542
0.774,-0.310,0.058,15.259,7.080,43.945
0.756,-0.303,0.058,20.142,0.366,45.654
0.726,-0.300,0.049,23.987,-5.859,47.058
0.686,-0.296,0.041,26.855,-10.132,48.828
0.676,-0.300,0.040,27.893,-12.207,52.124
0.683,-0.318,0.040,27.344,-13.428,56.335
0.668,-0.319,0.047,25.208,-14.099,60.059
0.648,-0.306,0.054,22.705,-14.221,62.683
0.660,-0.309,0.065,19.409,-13.977,65.125
0.681,-0.303,0.076,15.381,-14.771,67.322
0.678,-0.285,0.085,10.498,-17.151,70.251
0.667,-0.269,0.081,6.104,-20.203,72.632
0.642,-0.263,0.076,2.563,-20.996,74.280
0.620,-0.241,0.069,0.000,-18.494,75.623
0.599,-0.229,0.073,-1.953,-13.000,77.087
0.589,-0.240,0.071,-3.418,-6.714,78.979
0.617,-0.249,0.079,-3.906,0.244,79.285
0.620,-0.240,0.091,-3.845,7.812,77.881
0.650,-0.241,0.096,-3.418,14.282,77.271
0.683,-0.250,0.111,-3.601,20.630,78.125
0.730,-0.274,0.121,-4.639,26.611,80.505
0.796,-0.291,0.125,-6.470,31.799,81.055
0.821,-0.299,0.143,-10.315,36.682,78.796
0.833,-0.285,0.151,-16.113,40.283,74.829
0.814,-0.252,0.133,-23.071,41.931,69.824
0.795,-0.225,0.108,-30.212,42.847,63.660
0.830,-0.200,0.083,-36.499,45.105,54.749
0.836,-0.125,0.067,-41.931,47.363,43.701
0.811,-0.055,0.065,-44.922,47.119,32.837

-0.028,-1.652,1.277,38.147,-218.567,59.143
-0.169,-1.839,1.483,57.190,-227.783,87.097
-0.336,-2.007,1.651,82.886,-225.037,105.835
-0.434,-2.136,1.816,109.619,-210.815,110.474
-0.516,-2.136,1.891,133.606,-188.843,98.206
-0.676,-2.049,1.873,153.320,-158.936,73.792
-0.711,-2.034,1.791,167.297,-117.859,47.424
-0.619,-2.065,1.647,171.692,-66.528,23.315
-0.445,-2.113,1.528,165.405,-9.521,0.000
-0.196,-2.143,1.447,150.330,45.227,-22.522
0.101,-2.087,1.409,129.761,90.454,-46.570
0.356,-1.978,1.401,108.765,119.080,-68.665
0.509,-1.876,1.412,92.957,128.845,-83.679
0.593,-1.819,1.390,83.374,122.620,-91.919
0.591,-1.823,1.279,78.064,107.056,-96.008
0.510,-1.886,1.090,72.083,89.294,-97.473
0.438,-2.013,0.853,59.753,75.745,-94.238
0.397,-2.042,0.658,39.368,68.604,-85.571
0.420,-1.975,0.550,15.137,62.683,-68.848
0.435,-1.937,0.556,-7.202,50.171,-43.274
0.368,-1.801,0.551,-23.865,28.137,-17.517
0.226,-1.696,0.549,-31.311,2.625,6.592
0.077,-1.623,0.499,-31.738,-19.226,23.621
-0.090,-1.573,0.428,-28.992,-32.410,30.579
-0.239,-1.520,0.386,-26.123,-32.288,29.480
-0.292,-1.471,0.398,-22.888,-19.104,23.499
-0.244,-1.419,0.467,-19.592,2.319,15.991
-0.086,-1.365,0.575,-16.724,25.879,10.254
0.123,-1.324,0.705,-14.099,43.640,8.789
0.309,-1.283,0.813,-13.428,50.354,13.123
0.398,-1.255,0.890,-15.076,46.631,22.644
0.413,-1.237,0.944,-18.005,37.476,35.767
0.386,-1.238,0.989,-21.729,26.123,50.537
0.303,-1.203,1.008,-25.269,13.916,63.599
0.172,-1.125,1.001,-27.954,3.784,73.730
0.062,-1.092,1.036,-27.161,-0.244,79.590
-0.006,-1.105,1.037,-23.376,-1.038,78.247
-0.058,-1.127,1.030,-18.921,1.465,70.862
-0.093,-1.135,1.044,-16.479,8.484,61.096
-0.084,-1.151,1.036,-15.442,17.639,50.903
-0.048,-1.190,1.014,-17.151,28.198,40.588
-0.004,-1.186,1.000,-21.606,39.734,30.396
0.053,-1.167,0.978,-27.039,52.002,23.743
0.093,-1.127,0.935,-32.532,64.575,19.104
0.109,-1.050,0.905,-38.147,78.613,15.808
0.156,-0.986,0.882,-40.466,93.140,14.648
0.216,-0.925,0.874,-40.466,107.239,14.038
0.256,-0.845,0.878,-38.452,118.896,13.062
0.289,-0.784,0.887,-34.485,127.869,14.526
0.354,-0.758,0.910,-29.358,133.850,19.287
0.410,-0.752,0.932,-24.414,135.132,26.184
0.443,-0.753,0.940,-20.203,131.531,32.166
0.455,-0.766,0.941,-17.212,125.549,36.499
0.469,-0.797,0.919,-15.869,118.774,37.354
0.475,-0.841,0.897,-17.456,112.549,33.936
0.458,-0.878,0.871,-23.315,108.337,28.564
0.426,-0.884,0.817,-33.081,106.262,22.339
0.391,-0.843,0.763,-45.593,107.300,14.771
0.352,-0.764,0.727,-58.350,112.915,6.592
0.320,-0.678,0.705,-68.237,122.253,-0.061
0.329,-0.619,0.685,-74.402,133.789,-3.174
0.348,-0.576,0.657,-78.186,144.592,-5.005
0.372,-0.533,0.647,-79.468,153.687,-7.202
0.399,-0.497,0.624,-78.552,159.973,-8.179
0.426,-0.466,0.595,-76.233,162.720,-8.484
0.443,-0.434,0.568,-73.792,162.842,-9.216
0.463,-0.402,0.525,-70.801,159.485,-10.742
0.478,-0.374,0.474,-66.895,153.748,-13.367
0.478,-0.369,0.423,-63.354,148.193,-16.846
0.492,-0.401,0.402,-62.134,144.897,-19.958
0.502,-0.414,0.385,-64.453,141.663,-23.743
0.449,-0.315,0.335,-69.092,138.733,-27.161
0.407,-0.252,0.307,-72.876,142.090,-24.170
0.485,-0.345,0.347,-74.768,149.231,-21.790
0.441,-0.269,0.292,-77.576,152.832,-28.259
0.457,-0.206,0.281,-80.078,158.447,-29.053
0.508,-0.162,0.257,-81.055,163.147,-29.358
0.509,-0.148,0.231,-80.627,166.199,-29.175
0.504,-0.137,0.222,-79.407,167.664,-28.198
0.523,-0.112,0.203,-77.881,166.504,-27.344
0.553,-0.092,0.186,-75.256,163.635,-24.902
0.577,-0.082,0.203,-72.388,160.156,-21.179
0.674,-0.119,0.228,-68.176,153.015,-17.273
0.720,-0.143,0.194,-63.232,141.479,-16.052
0.664,-0.134,0.185,-60.120,133.179,-13.550
0.624,-0.138,0.171,-58.167,126.770,-7.507
0.588,-0.130,0.132,-56.152,122.009,-2.441
0.612,-0.117,0.127,-54.199,121.277,1.831
0.662,-0.148,0.136,-51.392,122.070,2.625
0.667,-0.165,0.123,-49.133,122.437,-1.404
0.629,-0.162,0.080,-47.974,125.000,-4.028
0.655,-0.177,0.098,-48.401,130.615,-5.188
0.693,-0.194,0.067,-49.866,133.850,-7.019
0.677,-0.194,0.049,-52.124,136.902,-7.202
0.694,-0.198,0.048,-54.871,140.259,-5.493
0.794,-0.206,0.082,-59.570,141.724,-1.892
0.869,-0.180,0.120,-65.796,138.184,5.615
0.915,-0.150,0.120,-71.411,126.770,12.817
0.990,-0.158,0.127,-74.768,112.732,16.357
1.048,-0.172,0.146,-78.064,99.243,18.127
1.051,-0.151,0.136,-79.834,86.182,18.372
1.031,-0.117,0.112,-78.308,75.012,18.982
1.022,-0.102,0.099,-73.547,67.749,20.752
1.013,-0.098,0.085,-67.749,63.660,22.095
0.989,-0.087,0.072,-63.538,63.049,22.278
0.937,-0.082,0.062,-61.829,65.369,23.010
0.922,-0.078,0.056,-62.744,68.970,23.926
0.960,-0.085,0.061,-66.223,71.167,24.292
1.004,-0.090,0.067,-71.594,70.862,23.499
1.010,-0.076,0.059,-76.416,68.481,21.057
1.004,-0.044,0.058,-79.773,63.843,18.372
0.988,-0.016,0.058,-81.482,56.519,17.944
0.935,0.004,0.045,-81.970,47.729,19.043
0.861,0.023,0.018,-80.688,39.673,20.874
0.813,0.027,0.001,-77.698,34.058,22.827
0.785,0.030,0.004,-74.402,30.334,22.949
0.758,0.042,0.008,-71.045,27.466,20.203
0.753,0.049,-0.001,-66.223,24.902,15.564
0.776,0.037,-0.011,-59.998,21.423,9.399

1.479,-1.388,-0.006,71.838,-36.011,-4.028
1.528,-1.647,0.129,66.162,-41.443,2.808
1.613,-1.874,0.240,51.147,-51.636,14.648
1.675,-2.017,0.333,32.532,-65.186,22.949
1.707,-2.059,0.397,14.038,-84.717,24.475
1.654,-2.022,0.402,2.319,-108.643,15.198
1.580,-1.926,0.377,-0.183,-127.991,-5.249
1.512,-1.771,0.366,4.272,-136.963,-29.297
1.375,-1.663,0.343,14.709,-135.376,-50.110
1.228,-1.634,0.322,27.344,-119.995,-65.063
1.131,-1.613,0.311,35.095,-90.027,-71.411
1.077,-1.662,0.307,34.607,-50.598,-71.472
1.107,-1.807,0.278,24.963,-7.751,-71.472
1.220,-1.868,0.251,5.127,33.325,-74.951
1.357,-1.840,0.195,-21.729,64.575,-79.041
1.498,-1.739,0.130,-51.697,80.566,-78.674
1.644,-1.565,0.094,-75.928,80.566,-71.777
1.667,-1.441,0.045,-88.684,64.209,-61.096
1.576,-1.327,0.010,-91.431,37.537,-49.500
1.419,-1.247,0.018,-83.618,10.315,-40.161
1.240,-1.248,0.064,-65.430,-11.414,-33.691
1.048,-1.259,0.145,-41.443,-26.917,-27.588
0.883,-1.268,0.228,-15.869,-36.377,-16.907
0.714,-1.318,0.282,8.423,-41.199,-0.244
0.583,-1.408,0.346,27.710,-38.635,21.240
0.527,-1.484,0.396,37.109,-28.992,43.152
0.484,-1.503,0.423,34.729,-15.808,59.204
0.480,-1.536,0.430,22.888,-2.075,64.575
0.539,-1.521,0.421,6.226,12.024,57.251
0.639,-1.454,0.389,-11.353,24.841,41.443
0.756,-1.361,0.334,-26.550,34.912,25.757
0.886,-1.259,0.273,-36.438,41.931,17.212
0.977,-1.124,0.226,-39.734,45.593,17.456
1.057,-1.009,0.221,-34.546,46.021,24.902
1.121,-0.963,0.223,-21.606,43.152,35.706
1.142,-0.960,0.237,-4.944,38.208,46.509
1.137,-0.991,0.251,11.169,33.020,54.749
1.126,-1.018,0.290,24.292,28.931,60.425
1.139,-1.026,0.348,32.349,26.306,64.270
1.140,-1.075,0.393,38.025,24.048,64.148
1.169,-1.150,0.430,40.161,22.522,60.730
1.186,-1.116,0.450,34.851,20.691,59.082
1.209,-1.016,0.479,24.048,16.663,60.242
1.213,-0.930,0.490,13.733,8.728,60.547
1.215,-0.877,0.499,7.751,-0.061,57.129
1.275,-0.824,0.520,6.592,-8.118,52.002
1.347,-0.787,0.531,7.935,-18.127,48.340
1.360,-0.766,0.509,10.559,-30.212,46.997
1.312,-0.739,0.464,12.878,-40.405,47.424
1.238,-0.714,0.415,14.343,-44.922,48.035
1.162,-0.713,0.365,14.587,-42.419,46.143
1.086,-0.729,0.321,14.038,-32.349,40.771
1.005,-0.715,0.286,11.414,-15.747,32.715
0.997,-0.701,0.266,6.714,4.761,24.292
1.018,-0.669,0.250,0.793,25.818,17.273
1.081,-0.581,0.244,-7.141,42.358,11.414
1.222,-0.500,0.272,-13.550,50.476,8.179
1.344,-0.435,0.296,-15.320,44.189,7.812
1.414,-0.389,0.293,-11.658,26.733,8.972
1.389,-0.360,0.255,-3.662,4.456,11.353
1.302,-0.354,0.200,6.104,-15.137,14.221
1.177,-0.387,0.138,16.235,-27.283,16.724
1.042,-0.440,0.070,23.743,-28.687,18.066
0.900,-0.474,0.003,27.039,-18.066,16.785
0.806,-0.492,-0.039,25.879,3.174,12.634
0.771,-0.501,-0.059,21.973,31.067,6.714
0.792,-0.487,-0.058,15.747,60.120,0.488
0.833,-0.417,-0.048,8.667,83.984,-4.517
0.915,-0.343,-0.021,4.761,99.548,-8.301
0.997,-0.264,0.018,5.249,103.333,-10.498
1.040,-0.195,0.054,9.521,93.506,-11.475
1.064,-0.162,0.063,15.686,72.876,-10.010
1.025,-0.158,0.049,21.240,46.326,-6.531
0.939,-0.154,0.010,24.231,21.729,-2.075
0.835,-0.146,-0.035,25.330,4.089,1.465
0.733,-0.122,-0.074,25.452,-3.540,2.930
0.648,-0.098,-0.105,24.475,-2.808,3.601
0.591,-0.072,-0.130,22.888,3.296,4.333
0.550,-0.043,-0.140,21.851,13.000,4.456
0.516,-0.015,-0.144,21.545,23.621,2.930
0.488,-0.000,-0.148,23.010,33.142,0.427
0.485,-0.009,-0.147,25.391,42.236,-2.869
0.528,-0.026,-0.137,27.283,50.598,-5.859
0.557,-0.023,-0.119,28.870,57.129,-8.850
0.614,-0.040,-0.101,30.151,59.937,-9.644
0.699,-0.033,-0.080,29.724,57.922,-7.385
0.716,-0.015,-0.058,29.175,49.744,-2.258
0.709,-0.001,-0.058,29.175,36.316,5.066
0.662,0.000,-0.076,29.968,20.630,11.902
0.595,-0.004,-0.098,31.677,7.141,15.808
0.540,-0.004,-0.116,33.508,-2.014,16.663
0.524,-0.017,-0.130,35.034,-5.859,15.198
0.516,-0.011,-0.142,36.133,-6.042,11.841
0.491,0.002,-0.145,37.109,-2.991,8.789
0.514,-0.030,-0.127,37.720,2.869,9.949
0.567,-0.073,-0.110,35.767,9.216,15.137
0.587,-0.092,-0.090,30.518,13.977,21.301
0.604,-0.093,-0.063,24.109,16.785,26.855
0.647,-0.090,-0.038,17.883,17.700,31.494
0.676,-0.082,-0.015,11.353,15.991,34.851
0.714,-0.055,-0.001,5.432,10.864,38.208
0.712,-0.033,-0.009,2.075,2.563,40.039
0.710,-0.035,-0.015,1.770,-5.981,38.452
0.717,-0.051,-0.018,2.197,-12.878,34.485
0.689,-0.057,-0.022,2.441,-18.372,28.992
0.676,-0.071,-0.020,1.953,-20.935,24.414
0.681,-0.079,-0.017,0.366,-19.714,20.935
0.677,-0.089,-0.018,-2.197,-16.541,16.907
0.681,-0.114,-0.018,-5.310,-11.353,12.329
0.724,-0.146,-0.014,-10.437,-5.310,7.690
0.789,-0.154,0.000,-17.883,-0.244,3.784
0.854,-0.154,0.012,-26.306,2.197,1.465
0.895,-0.149,0.007,-35.156,1.648,1.160
0.912,-0.137,-0.007,-43.213,-0.183,1.221
0.913,-0.120,-0.019,-48.706,-0.793,0.916
0.912,-0.090,-0.029,-50.903,0.366,0.671
0.916,-0.068,-0.036,-49.500,3.296,1.038
0.924,-0.068,-0.045,-45.044,7.629,2.136
0.939,-0.090,-0.050,-39.490,12.634,2.686

-0.305,-1.848,1.380,80.322,-211.121,115.051
-0.242,-1.927,1.550,75.623,-169.434,123.230
-0.094,-1.866,1.680,69.885,-133.606,111.328
-0.044,-1.735,1.733,69.580,-112.488,88.257
-0.084,-1.539,1.733,74.829,-105.103,71.045
-0.135,-1.356,1.692,87.158,-105.164,66.895
-0.187,-1.238,1.601,108.704,-105.286,71.350
-0.250,-1.240,1.481,139.160,-97.900,76.294
-0.257,-1.391,1.350,173.645,-78.430,75.317
-0.182,-1.614,1.264,203.918,-45.288,61.951
-0.074,-1.855,1.261,223.938,-4.639,32.837
0.102,-2.008,1.322,230.652,33.142,-7.751
0.283,-2.049,1.368,223.938,58.105,-52.368
0.448,-2.097,1.399,205.627,69.031,-84.167
0.613,-2.152,1.373,174.133,66.528,-92.468
0.725,-2.182,1.308,130.127,53.101,-81.116
0.698,-2.105,1.204,77.820,34.180,-55.725
0.535,-1.900,1.067,26.001,16.724,-22.766
0.316,-1.745,0.885,-12.756,6.470,7.751
0.061,-1.651,0.717,-36.316,9.033,26.245
-0.148,-1.570,0.601,-45.715,25.452,31.006
-0.246,-1.508,0.528,-43.213,52.368,28.931
-0.269,-1.452,0.490,-32.654,82.886,23.010
-0.172,-1.419,0.561,-18.066,113.708,12.329
0.027,-1.511,0.625,-4.272,139.404,2.747
0.284,-1.578,0.728,0.977,161.255,-4.211
0.590,-1.506,0.900,-5.676,177.124,-6.958
0.848,-1.398,0.969,-19.165,176.208,-0.488
0.969,-1.216,1.082,-35.400,168.152,10.437
1.054,-1.068,1.192,-45.410,152.710,29.907
1.058,-0.941,1.244,-45.776,129.333,52.185
1.000,-0.841,1.318,-39.001,106.873,74.585
0.936,-0.880,1.340,-27.405,84.534,95.825
0.838,-0.969,1.344,-18.372,65.674,110.474
0.708,-1.018,1.345,-13.367,54.138,117.004
0.634,-1.081,1.343,-11.536,51.758,118.774
0.624,-1.146,1.312,-13.855,56.335,113.098
0.630,-1.209,1.282,-22.400,66.223,98.022
0.655,-1.262,1.230,-36.743,78.247,75.806
0.625,-1.277,1.125,-55.725,91.919,50.293
0.584,-1.199,1.037,-77.576,111.206,28.931
0.617,-1.025,0.966,-97.717,134.583,17.517
0.700,-0.773,0.931,-111.389,154.785,14.893
0.869,-0.560,0.970,-114.319,164.673,19.775
1.030,-0.393,1.026,-103.882,158.569,25.574
1.142,-0.300,1.060,-84.229,138.000,32.410
1.128,-0.248,1.075,-60.608,109.680,39.001
1.221,-0.405,1.028,-37.048,78.979,41.870
1.041,-0.595,1.018,-20.325,55.237,33.936
0.908,-0.632,0.894,-14.282,44.922,19.348
0.719,-0.610,0.841,-19.409,49.622,5.127
0.638,-0.562,0.757,-31.677,70.374,-2.136
0.575,-0.488,0.692,-46.692,100.098,-5.859
0.626,-0.417,0.667,-61.157,132.263,-6.104
0.754,-0.365,0.692,-71.838,158.020,-5.920
0.875,-0.327,0.725,-77.576,170.715,-7.141
1.002,-0.273,0.787,-78.796,169.250,-7.935
1.021,-0.216,0.787,-76.355,153.076,-5.371
0.996,-0.206,0.759,-71.716,129.700,-2.747
0.907,-0.202,0.683,-65.369,105.652,-2.747
0.758,-0.227,0.599,-60.242,89.905,-4.028
0.720,-0.258,0.549,-57.983,84.167,-8.484
0.570,-0.258,0.403,-59.753,84.167,-15.442
0.399,-0.304,0.247,-65.430,98.999,-18.372
0.246,-0.015,0.173,-72.937,131.897,-16.541
0.365,-0.420,0.176,-74.707,176.514,-10.376
0.424,-0.306,-0.124,-78.613,206.604,-34.058
0.624,-0.014,0.318,-83.618,239.746,-54.077
0.618,0.060,0.146,-84.900,229.980,-53.345
0.593,-0.047,0.129,-84.412,210.510,-34.485
0.742,0.151,0.161,-83.191,194.580,-22.827
0.648,0.011,0.139,-75.256,172.424,-8.118
0.734,0.053,0.116,-66.589,140.991,-8.240
0.583,0.094,0.092,-58.899,112.000,-7.446
0.515,0.053,0.038,-50.476,88.623,-1.892
0.444,0.006,0.009,-42.969,75.195,1.038
0.495,-0.108,-0.036,-37.537,71.838,1.648
0.369,-0.005,-0.081,-36.987,75.562,-5.005
0.284,-0.019,-0.096,-38.574,85.999,-5.737
0.353,0.007,-0.110,-40.710,100.159,-4.639
0.277,0.000,-0.144,-43.518,114.807,-3.845
0.448,-0.021,-0.085,-47.363,129.517,-6.653
0.369,0.028,-0.092,-52.979,136.353,-10.193
0.490,-0.012,-0.041,-60.120,137.085,-8.362
0.512,0.022,-0.055,-67.505,128.845,-9.277
0.505,0.091,-0.029,-73.792,117.188,-7.324
0.632,0.131,-0.009,-75.134,100.403,-2.930
0.571,0.109,-0.067,-72.571,79.773,-0.854
0.550,0.226,-0.004,-68.115,63.904,-3.235
0.547,0.198,-0.064,-58.838,48.523,-0.671
0.592,0.217,-0.025,-49.805,36.682,-0.732
0.571,0.177,-0.031,-41.016,25.452,0.061
0.584,0.156,-0.024,-35.095,16.968,-1.099
0.583,0.148,0.001,-31.372,10.315,-0.183
0.589,0.108,0.029,-30.823,5.676,2.136
0.619,0.061,0.051,-33.813,1.831,3.540
0.638,0.040,0.067,-39.856,-1.648,2.808
0.681,0.034,0.076,-47.791,-5.737,1.587
0.746,0.053,0.084,-55.664,-10.498,0.061
0.802,0.073,0.083,-62.622,-17.578,-1.221
0.812,0.088,0.062,-67.322,-26.733,-2.502
0.801,0.083,0.040,-69.824,-33.508,-3.723
0.783,0.069,0.023,-70.801,-34.973,-4.944
0.780,0.048,0.007,-70.801,-30.884,-6.287
0.775,0.030,-0.001,-70.313,-21.423,-8.057
0.765,0.016,-0.009,-69.580,-8.301,-10.925
0.759,0.016,-0.005,-67.383,7.385,-15.564
0.788,0.003,0.005,-64.880,24.292,-20.386
0.861,-0.020,0.029,-62.988,37.598,-24.597
0.964,-0.040,0.067,-62.195,44.800,-25.818
1.038,-0.042,0.101,-62.378,43.518,-22.034
1.072,-0.043,0.122,-62.805,33.997,-15.137
1.075,-0.065,0.128,-61.829,19.897,-7.446
1.064,-0.080,0.130,-59.814,4.456,-2.075
1.043,-0.088,0.122,-56.519,-10.437,0.427
1.021,-0.096,0.104,-53.223,-24.048,0.977
0.962,-0.082,0.078,-50.171,-33.325,-0.366
0.885,-0.075,0.053,-46.326,-34.607,-2.625
0.840,-0.085,0.044,-42.236,-27.100,-3.906

1.305,-0.426,-1.042,-1.709,220.276,-43.823
1.340,-0.672,-1.099,4.028,200.134,-37.537
1.459,-0.979,-1.140,5.493,177.551,-20.569
1.510,-1.210,-1.193,-4.089,145.020,-5.737
1.515,-1.428,-1.261,-18.677,104.919,-5.249
1.526,-1.568,-1.310,-32.043,65.552,-16.296
1.553,-1.636,-1.336,-43.274,27.100,-29.785
1.478,-1.650,-1.413,-49.438,-11.047,-38.269
1.337,-1.609,-1.521,-51.758,-42.297,-38.696
1.154,-1.521,-1.559,-51.636,-59.753,-33.691
1.017,-1.511,-1.534,-46.692,-61.707,-29.236
0.942,-1.586,-1.491,-38.391,-51.331,-27.893
0.917,-1.683,-1.434,-31.616,-33.081,-28.198
0.979,-1.721,-1.332,-28.870,-12.146,-28.076
1.031,-1.741,-1.249,-30.640,4.883,-26.245
1.017,-1.730,-1.204,-38.696,15.869,-20.630
0.933,-1.682,-1.200,-52.185,23.010,-11.658
0.797,-1.617,-1.231,-67.383,29.480,-2.808
0.693,-1.579,-1.256,-81.543,40.710,5.066
0.682,-1.513,-1.227,-90.698,56.763,10.681
0.732,-1.428,-1.139,-92.468,71.960,15.564
0.862,-1.414,-1.022,-85.938,79.285,20.752
0.967,-1.446,-0.910,-71.350,74.280,23.010
0.998,-1.459,-0.796,-52.185,59.387,21.423
0.983,-1.474,-0.678,-31.555,39.368,18.860
0.943,-1.511,-0.580,-12.451,17.334,16.357
0.902,-1.545,-0.514,0.732,-3.906,14.893
0.847,-1.533,-0.469,6.836,-22.949,13.489
0.774,-1.501,-0.447,8.545,-38.391,10.925
0.732,-1.461,-0.437,7.385,-47.424,7.568
0.731,-1.414,-0.441,4.639,-51.575,3.479
0.757,-1.360,-0.451,2.136,-53.162,-0.671
0.795,-1.287,-0.464,0.671,-54.077,-2.991
0.852,-1.235,-0.468,1.099,-56.274,-3.845
0.922,-1.204,-0.483,3.601,-61.523,-5.005
0.966,-1.187,-0.510,6.775,-70.251,-6.653
0.996,-1.177,-0.533,10.132,-80.261,-8.362
1.021,-1.161,-0.545,13.428,-90.454,-9.094
0.992,-1.144,-0.568,16.357,-101.135,-8.484
0.940,-1.136,-0.588,19.043,-109.314,-5.798
0.871,-1.106,-0.600,20.691,-113.403,-2.686
0.772,-1.049,-0.595,20.630,-112.122,0.244
0.730,-1.052,-0.557,20.142,-103.149,2.319
0.780,-1.073,-0.508,18.860,-88.623,1.770
0.886,-1.057,-0.436,16.418,-74.219,-1.343
1.059,-1.041,-0.359,12.085,-67.078,-2.380
1.225,-1.013,-0.310,6.104,-72.693,0.061
1.337,-0.992,-0.311,0.000,-90.454,5.432
1.381,-0.965,-0.351,-2.991,-115.723,11.658
1.279,-0.925,-0.437,-2.380,-141.174,17.578
1.099,-0.901,-0.521,0.427,-158.020,24.414
0.945,-0.855,-0.581,4.089,-159.668,32.043
0.803,-0.830,-0.612,7.996,-147.034,36.255
0.695,-0.805,-0.604,11.597,-122.559,36.682
0.703,-0.795,-0.526,14.526,-90.942,33.936
0.813,-0.819,-0.434,15.320,-61.951,31.006
0.916,-0.802,-0.342,12.512,-43.518,27.039
0.999,-0.765,-0.273,9.033,-35.889,23.621
1.080,-0.727,-0.236,6.470,-37.842,22.095
1.121,-0.668,-0.231,5.676,-47.058,22.278
1.131,-0.601,-0.243,7.874,-59.998,24.780
1.070,-0.538,-0.291,12.329,-73.181,28.992
1.002,-0.510,-0.353,20.081,-80.811,33.142
0.931,-0.495,-0.395,28.625,-80.505,34.729
0.837,-0.475,-0.416,36.316,-73.364,32.959
0.771,-0.457,-0.405,41.443,-60.303,31.616
0.758,-0.443,-0.362,44.067,-44.617,31.250
0.760,-0.409,-0.309,44.128,-29.785,31.677
0.743,-0.368,-0.266,41.382,-19.958,32.715
0.747,-0.333,-0.230,38.696,-15.259,31.677
0.748,-0.288,-0.208,37.109,-14.465,27.588
0.731,-0.238,-0.186,36.743,-16.052,22.766
0.734,-0.211,-0.183,37.170,-19.043,20.691
0.719,-0.190,-0.196,37.720,-21.851,21.729
0.672,-0.136,-0.200,38.452,-22.034,22.766
0.635,-0.102,-0.206,40.710,-19.287,23.254
0.601,-0.089,-0.204,43.823,-14.160,23.193
0.590,-0.100,-0.199,46.509,-8.423,21.973
0.566,-0.081,-0.185,48.279,-2.747,19.653
0.563,-0.079,-0.163,49.072,2.930,18.066
0.557,-0.082,-0.141,47.913,6.653,17.395
0.519,-0.056,-0.117,44.861,8.423,16.479
0.518,-0.060,-0.109,40.283,8.362,16.602
0.532,-0.073,-0.121,35.339,7.507,14.526
0.545,-0.057,-0.130,30.457,7.507,10.254
0.600,-0.057,-0.146,27.710,7.690,6.714
0.652,-0.067,-0.154,26.978,8.118,3.784
0.686,-0.081,-0.156,27.527,8.972,2.319
0.684,-0.054,-0.141,27.039,10.986,4.333
0.685,-0.049,-0.112,26.306,13.306,10.071
0.681,-0.038,-0.097,24.231,15.442,18.127
0.642,-0.022,-0.088,20.752,16.663,24.048
0.594,-0.016,-0.080,17.700,18.066,27.039
0.594,-0.030,-0.070,15.198,19.531,27.832
0.648,-0.058,-0.066,10.803,19.775,25.757
0.706,-0.062,-0.047,5.005,16.663,22.278
0.737,-0.057,-0.032,-1.038,8.545,20.081
0.740,-0.049,-0.054,-6.653,-3.784,18.738
0.725,-0.014,-0.071,-11.536,-16.541,15.625
0.709,0.018,-0.085,-14.160,-27.710,11.719
0.690,0.041,-0.108,-16.174,-36.133,9.460
0.685,0.045,-0.128,-17.517,-42.236,8.728
0.699,0.045,-0.136,-18.494,-46.753,8.606
0.693,0.061,-0.142,-19.836,-50.598,10.254
0.617,0.065,-0.172,-20.630,-53.650,12.390
0.661,0.012,-0.206,-20.874,-52.246,13.123
0.712,0.010,-0.168,-23.499,-45.593,10.559
0.777,0.036,-0.187,-27.283,-42.419,7.812
0.840,0.015,-0.178,-31.494,-41.504,10.803
0.888,0.009,-0.186,-34.546,-43.091,14.954
0.875,0.016,-0.202,-36.255,-45.410,17.334
0.855,0.009,-0.220,-36.072,-45.044,18.372
0.874,-0.001,-0.224,-34.424,-41.138,19.043
0.902,-0.010,-0.222,-31.921,-35.034,18.982
0.896,-0.016,-0.213,-28.687,-29.053,18.066
0.897,-0.036,-0.196,-24.475,-23.682,17.578
0.915,-0.082,-0.172,-20.447,-18.555,18.066
0.922,-0.117,-0.158,-18.921,-15.991,20.020
0.910,-0.141,-0.153,-19.104,-15.564,21.851

1.442,-0.738,0.963,-11.230,-10.254,-8.362
1.596,-1.108,1.083,28.381,-54.199,-29.663
1.531,-1.478,1.161,50.964,-103.394,-32.715
1.385,-1.716,1.202,50.903,-138.245,-12.268
1.212,-1.845,1.204,40.710,-150.757,14.038
0.961,-1.866,1.161,29.480,-133.667,29.114
0.800,-1.784,1.123,17.456,-92.224,27.954
0.769,-1.649,1.087,6.897,-38.696,8.972
0.910,-1.511,1.159,-3.479,10.986,-20.874
1.096,-1.416,1.271,-11.353,40.527,-50.598
1.284,-1.384,1.311,-14.587,40.649,-75.745
1.389,-1.392,1.267,-14.709,16.968,-98.267
1.365,-1.383,1.175,-12.573,-15.259,-114.746
1.345,-1.404,1.036,-5.493,-41.870,-122.253
1.284,-1.461,0.889,3.662,-55.603,-123.657
1.211,-1.461,0.780,11.963,-51.697,-119.568
1.229,-1.339,0.762,19.958,-31.311,-107.727
1.304,-1.197,0.813,30.579,-7.568,-90.393
1.351,-1.142,0.868,44.678,8.423,-71.411
1.343,-1.188,0.921,58.289,12.512,-52.734
1.279,-1.271,0.976,67.139,5.676,-35.767
1.176,-1.382,1.035,71.350,-8.667,-22.156
1.029,-1.514,1.085,68.726,-26.672,-11.536
0.854,-1.617,1.085,55.664,-46.082,-2.747
0.654,-1.669,1.035,34.180,-62.561,5.188
0.447,-1.656,0.958,8.789,-72.327,10.010
0.292,-1.589,0.866,-14.160,-71.777,9.399
0.197,-1.514,0.760,-31.738,-60.181,3.967
0.177,-1.433,0.688,-44.800,-38.879,-1.221
0.226,-1.337,0.623,-54.077,-11.780,-1.587
0.316,-1.242,0.603,-60.547,15.869,3.235
0.403,-1.183,0.592,-63.782,39.490,10.498
0.463,-1.108,0.582,-65.063,56.519,16.846
0.495,-0.991,0.579,-63.354,66.406,19.409
0.519,-0.846,0.625,-54.626,69.702,19.836
0.560,-0.779,0.711,-36.865,64.270,20.142
0.619,-0.778,0.803,-14.526,50.293,19.653
0.649,-0.832,0.884,6.165,31.372,19.226
0.661,-0.954,0.951,21.423,11.780,19.287
0.670,-1.067,0.983,26.672,-2.197,20.752
0.672,-1.121,0.988,19.958,-8.118,22.705
0.667,-1.131,0.943,6.287,-5.371,20.569
0.716,-1.082,0.888,-10.925,5.554,12.573
0.856,-0.870,0.939,-27.588,23.071,2.991
0.992,-0.702,0.988,-34.302,37.048,-2.747
1.060,-0.663,0.976,-32.104,42.603,-3.296
1.147,-0.644,0.944,-27.466,42.053,2.319
1.199,-0.590,0.906,-21.729,34.912,13.977
1.175,-0.550,0.851,-13.306,20.630,25.757
1.117,-0.565,0.802,-1.160,4.883,33.386
1.010,-0.616,0.747,13.489,-4.333,35.706
0.922,-0.707,0.694,27.161,-3.662,33.447
0.883,-0.828,0.642,35.828,6.836,28.381
0.858,-0.866,0.602,35.645,23.071,23.315
0.838,-0.792,0.597,29.663,39.551,19.531
0.868,-0.657,0.647,23.743,52.979,18.677
0.927,-0.545,0.733,23.926,58.167,19.348
0.964,-0.503,0.782,31.250,51.880,18.311
0.985,-0.510,0.811,42.175,38.391,14.648
0.971,-0.570,0.800,53.223,23.743,9.827
0.974,-0.697,0.780,60.242,13.611,5.676
0.957,-0.812,0.740,57.861,11.047,3.357
0.877,-0.775,0.679,45.288,15.869,2.686
0.850,-0.662,0.636,27.649,28.625,4.578
0.854,-0.542,0.629,11.963,46.997,7.385
0.902,-0.431,0.656,3.357,65.125,7.690
1.010,-0.333,0.723,2.136,76.416,6.653
1.088,-0.281,0.771,6.897,75.439,6.348
1.105,-0.265,0.789,14.832,62.988,7.324
1.084,-0.313,0.736,22.583,44.922,10.437
1.053,-0.389,0.666,27.283,29.663,13.000
0.963,-0.411,0.598,26.794,20.508,12.085
0.853,-0.379,0.532,23.010,19.653,8.118
0.796,-0.370,0.471,17.578,27.100,2.686
0.716,-0.351,0.401,10.803,43.274,-3.296
0.652,-0.293,0.348,3.052,66.956,-9.033
0.676,-0.229,0.338,-1.831,93.140,-12.207
0.768,-0.182,0.349,-3.357,114.136,-12.817
0.859,-0.133,0.375,-3.235,125.488,-10.925
0.933,-0.064,0.386,-0.854,124.573,-6.104
0.936,-0.000,0.374,4.456,111.877,1.160
0.879,0.035,0.364,11.841,93.140,10.071
0.810,0.056,0.346,20.142,72.327,17.822
0.745,0.058,0.291,28.381,48.523,23.437
0.648,0.031,0.224,35.583,26.917,26.428
0.506,-0.007,0.168,41.077,12.207,24.170
0.436,-0.017,0.154,43.945,4.211,17.273
0.412,-0.064,0.117,45.837,-0.305,9.399
0.425,-0.104,0.116,45.044,1.343,0.610
0.444,-0.116,0.112,40.771,7.324,-4.822
0.441,-0.115,0.109,32.776,15.930,-4.761
0.465,-0.119,0.106,23.315,26.123,0.671
0.480,-0.086,0.106,13.245,37.048,7.996
0.455,-0.049,0.099,4.150,46.936,14.099
0.429,-0.033,0.087,-3.601,54.626,17.883
0.408,-0.024,0.073,-9.949,61.096,18.372
0.407,-0.021,0.065,-14.709,67.078,15.503
0.412,-0.008,0.059,-18.005,72.449,9.949
0.465,0.000,0.063,-18.982,76.660,3.784
0.525,0.006,0.078,-17.700,79.163,-1.404
0.557,0.005,0.098,-15.625,79.102,-2.991
0.609,0.007,0.123,-13.306,76.172,1.038
0.664,0.000,0.142,-12.268,70.557,10.010
0.699,-0.013,0.161,-11.841,61.646,18.738
0.737,-0.038,0.179,-12.207,49.805,24.536
0.797,-0.072,0.195,-13.489,35.889,26.367
0.786,-0.093,0.194,-16.785,19.470,24.902
0.734,-0.099,0.179,-20.569,3.540,20.508
0.673,-0.089,0.155,-24.048,-7.751,14.648
0.645,-0.076,0.134,-26.428,-13.367,7.812
0.640,-0.082,0.126,-27.771,-13.245,-0.671
0.672,-0.120,0.133,-29.541,-9.094,-8.362
0.722,-0.136,0.150,-32.837,-2.869,-14.893
0.773,-0.135,0.169,-37.048,4.333,-18.921
0.857,-0.144,0.190,-41.260,10.620,-20.508
0.932,-0.146,0.213,-45.166,15.320,-19.531
0.972,-0.145,0.226,-48.889,17.639,-15.320
0.990,-0.134,0.232,-52.307,18.005,-9.277
0.981,-0.128,0.228,-53.711,17.212,-3.845

1.667,-0.344,0.771,-8.484,-50.354,-40.527
1.530,-0.487,0.860,16.174,-98.633,-25.208
1.289,-0.698,0.972,38.879,-130.981,8.850
1.098,-0.993,1.050,58.289,-144.043,47.363
0.945,-1.370,1.121,73.669,-134.705,75.256
0.888,-1.703,1.204,80.750,-104.736,85.571
0.989,-1.897,1.312,77.759,-64.514,77.698
1.161,-1.915,1.391,68.726,-26.978,49.622
1.337,-1.771,1.410,53.284,-3.052,4.639
1.433,-1.539,1.390,32.654,4.089,-44.556
1.444,-1.345,1.383,10.437,-5.188,-78.125
1.411,-1.281,1.353,-6.775,-25.635,-91.675
1.305,-1.308,1.281,-15.625,-44.556,-96.619
1.202,-1.228,1.209,-19.775,-52.612,-100.830
1.190,-1.128,1.193,-15.869,-50.171,-104.370
1.197,-1.147,1.173,-2.869,-43.396,-106.140
1.258,-1.230,1.130,12.512,-34.668,-106.567
1.299,-1.290,1.054,24.231,-26.672,-106.262
1.284,-1.313,0.974,30.334,-19.775,-105.408
1.245,-1.318,0.896,35.461,-12.878,-102.844
1.196,-1.338,0.842,41.870,-7.568,-97.900
1.205,-1.477,0.900,48.096,-5.310,-90.515
1.208,-1.672,0.990,47.241,-8.423,-75.867
1.045,-1.776,1.024,37.170,-17.578,-50.415
0.813,-1.776,1.039,21.729,-25.879,-17.944
0.594,-1.714,1.000,5.005,-27.344,13.489
0.411,-1.634,0.934,-10.376,-21.057,35.217
0.251,-1.564,0.858,-22.400,-8.667,40.527
0.146,-1.520,0.778,-30.518,8.240,31.128
0.127,-1.491,0.703,-36.743,28.381,13.062
0.198,-1.408,0.679,-43.579,49.500,-6.287
0.355,-1.293,0.704,-48.401,65.857,-20.447
0.575,-1.164,0.776,-48.462,72.876,-25.146
0.780,-1.028,0.854,-45.532,68.298,-18.494
0.885,-0.913,0.901,-40.405,52.795,-2.930
0.894,-0.830,0.908,-32.043,33.142,17.212
0.921,-0.791,0.918,-22.583,15.076,37.842
0.903,-0.788,0.905,-14.099,0.549,54.688
0.823,-0.799,0.895,-7.019,-9.399,65.125
0.744,-0.831,0.890,-1.404,-12.634,68.787
0.693,-0.892,0.901,2.441,-8.240,67.322
0.668,-0.966,0.904,3.418,2.869,61.584
0.641,-1.020,0.868,-0.488,18.311,53.406
0.657,-0.981,0.847,-9.277,36.926,46.021
0.720,-0.843,0.890,-18.372,54.321,43.762
0.795,-0.685,0.948,-22.888,63.721,46.143
0.891,-0.606,0.992,-18.799,61.035,47.485
0.968,-0.602,1.017,-9.521,47.974,46.387
0.969,-0.623,1.005,0.427,28.198,45.105
0.900,-0.657,0.962,8.484,7.385,43.579
0.825,-0.698,0.918,14.038,-6.653,41.382
0.778,-0.738,0.880,14.587,-10.498,38.086
0.724,-0.759,0.804,9.460,-5.371,31.677
0.679,-0.672,0.743,-1.892,9.827,23.560
0.721,-0.564,0.745,-13.000,31.372,17.029
0.802,-0.516,0.777,-18.494,51.025,12.024
0.874,-0.459,0.791,-19.714,64.514,6.592
0.964,-0.377,0.827,-19.287,71.655,2.136
1.026,-0.334,0.865,-14.954,70.801,1.160
1.062,-0.330,0.893,-7.629,63.782,3.479
1.078,-0.348,0.907,-0.244,54.871,7.568
1.034,-0.374,0.888,5.371,46.753,11.353
0.983,-0.417,0.858,7.935,42.664,12.573
0.949,-0.443,0.824,6.226,45.227,11.230
0.904,-0.447,0.773,0.793,52.795,7.324
0.891,-0.389,0.762,-7.385,62.805,1.953
0.912,-0.376,0.692,-14.954,70.801,-2.441
0.880,-0.361,0.627,-22.827,77.576,-6.958
0.887,-0.291,0.615,-30.029,83.069,-11.047
0.922,-0.238,0.564,-33.875,81.970,-12.695
0.922,-0.193,0.531,-33.936,76.172,-13.916
0.893,-0.132,0.505,-30.823,67.993,-15.015
0.845,-0.081,0.448,-24.231,57.678,-14.832
0.796,-0.064,0.395,-15.076,49.744,-14.832
0.757,-0.052,0.370,-4.700,47.119,-16.663
0.696,-0.072,0.322,5.127,47.607,-17.761
0.667,-0.106,0.299,11.780,53.589,-18.616
0.665,-0.138,0.290,13.855,64.453,-18.066
0.648,-0.144,0.277,12.024,75.500,-16.663
0.642,-0.122,0.255,7.385,83.618,-13.794
0.648,-0.112,0.232,0.854,88.074,-9.888
0.608,-0.100,0.181,-5.615,90.027,-7.080
0.571,-0.058,0.159,-11.169,91.248,-6.470
0.541,0.002,0.145,-14.709,89.905,-7.080
0.520,0.004,0.134,-15.259,85.510,-7.141
0.501,0.015,0.128,-14.587,79.956,-8.179
0.512,0.016,0.132,-14.038,72.693,-7.751
0.565,-0.001,0.146,-13.611,63.049,-5.127
0.581,0.006,0.156,-13.367,49.377,-2.197
0.552,0.019,0.156,-13.062,32.715,3.052
0.531,0.029,0.143,-12.512,16.663,10.315
0.510,0.019,0.127,-11.230,2.563,16.235
0.460,-0.016,0.108,-10.010,-8.362,18.982
0.408,-0.065,0.092,-9.033,-14.709,18.799
0.372,-0.088,0.077,-9.155,-15.381,16.724
0.378,-0.111,0.084,-10.132,-9.521,14.160
0.420,-0.119,0.111,-12.146,0.916,12.390
0.435,-0.118,0.133,-14.709,13.367,10.681
0.460,-0.124,0.146,-18.250,26.062,9.277
0.515,-0.138,0.163,-22.278,37.109,7.629
0.611,-0.141,0.201,-26.611,43.213,6.592
0.671,-0.124,0.216,-29.968,41.260,5.371
0.681,-0.106,0.209,-30.762,33.264,2.136
0.722,-0.126,0.210,-29.541,23.560,-1.343
0.746,-0.147,0.216,-29.114,15.137,-3.296
0.794,-0.168,0.231,-29.114,7.690,-5.798
0.816,-0.171,0.236,-30.884,2.075,-6.897
0.818,-0.141,0.229,-33.691,-1.526,-6.348
0.841,-0.110,0.219,-36.255,-3.174,-6.531
0.860,-0.101,0.209,-37.781,-2.686,-8.789
0.855,-0.092,0.196,-39.673,-0.793,-12.451
0.854,-0.064,0.192,-41.443,3.113,-16.602
0.848,-0.046,0.186,-42.664,8.057,-19.287
0.832,-0.034,0.169,-43.335,13.489,-20.813
0.824,-0.014,0.160,-43.213,19.348,-22.705
0.813,-0.006,0.151,-41.748,25.208,-25.452
0.798,-0.008,0.145,-39.490,30.457,-28.687
0.837,-0.015,0.159,-37.354,35.034,-30.640
0.902,-0.017,0.180,-35.645,36.926,-30.029

0.690,-1.371,1.006,11.230,-85.388,-18.250
0.742,-1.519,1.076,-14.893,-76.843,-14.404
0.709,-1.716,1.121,-28.503,-71.960,-17.944
0.657,-1.994,1.141,-30.334,-65.735,-19.714
0.649,-2.233,1.164,-21.118,-53.040,-18.921
0.721,-2.427,1.254,-0.916,-32.349,-23.437
0.856,-2.499,1.395,28.198,-7.507,-36.316
1.009,-2.414,1.464,61.157,15.564,-53.406
1.111,-2.213,1.411,86.365,35.522,-68.604
1.169,-2.184,1.349,97.229,53.162,-76.233
1.176,-2.326,1.250,92.773,65.063,-75.684
1.210,-2.452,1.174,69.519,70.557,-77.637
1.261,-2.402,1.133,29.968,66.833,-90.027
1.246,-2.156,1.074,-9.949,54.932,-110.229
1.247,-1.847,0.999,-38.086,41.870,-126.892
1.255,-1.565,0.923,-49.866,32.593,-134.399
1.213,-1.380,0.851,-46.509,28.198,-131.592
1.114,-1.316,0.756,-34.302,25.208,-116.638
0.944,-1.317,0.692,-17.395,21.790,-91.736
0.752,-1.383,0.683,1.770,21.057,-55.176
0.522,-1.453,0.702,17.639,23.071,-6.653
0.339,-1.521,0.753,26.001,27.954,47.974
0.221,-1.601,0.792,28.564,32.410,97.839
0.118,-1.705,0.880,26.184,36.011,130.127
0.045,-1.810,0.967,17.456,35.461,143.311
0.015,-1.846,1.035,0.244,28.625,137.695
0.020,-1.799,1.044,-24.170,17.090,115.723
0.023,-1.671,1.008,-51.880,4.150,83.557
0.054,-1.521,0.967,-76.294,-5.554,51.331
0.116,-1.391,0.914,-94.849,-10.803,27.100
0.198,-1.238,0.816,-105.713,-9.338,12.085
0.284,-1.076,0.724,-107.422,0.549,5.676
0.384,-0.911,0.678,-101.990,19.409,7.019
0.488,-0.783,0.670,-90.637,42.847,12.329
0.561,-0.726,0.682,-74.341,68.237,18.005
0.675,-0.694,0.746,-56.396,90.210,24.597
0.774,-0.666,0.811,-37.903,101.990,32.043
0.810,-0.668,0.852,-19.409,102.234,39.673
0.848,-0.684,0.876,-2.747,93.445,45.898
0.857,-0.740,0.880,10.803,79.163,50.537
0.892,-0.839,0.908,20.630,64.697,54.626
0.919,-0.927,0.913,24.475,51.453,60.242
0.957,-0.999,0.929,21.240,42.419,66.895
0.993,-1.014,0.904,11.292,36.560,73.364
0.983,-0.943,0.842,-2.869,32.410,76.904
0.972,-0.782,0.812,-16.785,29.541,77.148
0.977,-0.650,0.817,-22.827,25.635,75.745
0.972,-0.598,0.814,-19.043,17.151,72.205
0.949,-0.581,0.807,-9.277,7.202,67.322
0.961,-0.567,0.802,2.930,-1.221,64.392
0.964,-0.572,0.799,15.808,-8.301,64.331
0.937,-0.632,0.786,28.259,-12.695,65.491
0.927,-0.752,0.769,35.706,-12.329,65.430
0.869,-0.852,0.727,34.546,-5.920,62.256
0.821,-0.891,0.684,25.024,8.911,56.030
0.811,-0.861,0.643,10.681,31.067,48.401
0.857,-0.765,0.630,-5.127,56.763,40.344
0.955,-0.640,0.660,-18.005,78.979,34.607
1.081,-0.559,0.707,-25.085,90.271,33.142
1.188,-0.466,0.749,-25.513,88.440,33.813
1.207,-0.371,0.755,-18.860,74.463,35.706
1.153,-0.323,0.732,-6.165,55.237,38.147
1.062,-0.316,0.688,8.911,38.025,41.382
0.929,-0.363,0.607,22.888,28.625,44.250
0.857,-0.437,0.580,31.799,33.264,42.725
0.786,-0.457,0.544,35.278,46.570,35.583
0.789,-0.454,0.554,32.410,63.721,29.419
0.799,-0.514,0.514,23.193,79.834,25.513
0.777,-0.478,0.507,6.897,95.337,20.996
0.822,-0.403,0.481,-9.827,107.849,17.761
0.813,-0.319,0.436,-23.376,116.150,13.611
0.805,-0.226,0.395,-31.311,121.948,8.423
0.801,-0.137,0.332,-33.203,124.634,5.615
0.776,-0.054,0.302,-29.419,125.183,4.944
0.753,-0.000,0.289,-20.508,123.596,5.676
0.731,0.010,0.255,-9.583,118.591,7.324
0.692,0.002,0.227,1.465,112.732,7.629
0.636,-0.008,0.213,12.024,106.812,5.432
0.639,-0.019,0.229,21.118,101.624,3.235
0.690,-0.043,0.244,27.893,95.093,1.343
0.699,-0.112,0.198,32.288,88.257,-1.160
0.685,-0.160,0.220,32.410,85.693,-7.141
0.592,-0.081,0.221,28.320,82.336,-14.038
0.563,-0.084,0.195,23.926,75.684,-10.071
0.575,-0.134,0.173,17.090,70.557,-2.930
0.602,-0.139,0.167,9.155,66.956,-0.793
0.546,-0.078,0.122,3.296,62.927,-4.456
0.544,-0.095,0.067,1.282,61.218,-9.888
0.562,-0.105,0.021,1.953,65.674,-19.104
0.571,-0.084,0.019,3.418,76.172,-28.748
0.634,-0.069,0.035,5.371,87.769,-33.264
0.725,-0.086,0.053,5.432,97.839,-31.128
0.788,-0.088,0.063,3.479,103.455,-24.536
0.808,-0.093,0.074,-0.183,102.661,-15.869
0.820,-0.126,0.084,-5.432,95.886,-6.531
0.838,-0.160,0.092,-12.390,84.167,0.488
0.805,-0.160,0.086,-20.752,68.604,3.967
0.738,-0.126,0.080,-28.992,51.880,4.150
0.661,-0.091,0.058,-36.560,36.926,4.333
0.627,-0.065,0.031,-44.495,26.733,6.226
0.616,-0.024,-0.002,-51.270,20.142,8.606
0.581,0.040,-0.020,-54.810,15.198,9.094
0.555,0.092,-0.040,-54.260,11.047,7.812
0.568,0.122,-0.052,-50.903,7.202,4.822
0.557,0.133,-0.058,-46.082,2.747,-1.038
0.525,0.129,-0.067,-41.748,-1.282,-7.568
0.518,0.148,-0.062,-38.086,-4.211,-13.672
0.565,0.168,-0.051,-35.278,-5.310,-18.677
0.608,0.176,-0.040,-33.020,-5.737,-22.522
0.661,0.167,-0.030,-31.616,-6.226,-23.865
0.704,0.157,-0.018,-31.494,-7.080,-23.376
0.731,0.150,-0.011,-33.325,-7.935,-21.423
0.757,0.139,-0.007,-36.011,-8.606,-18.372
0.776,0.143,-0.007,-38.513,-9.277,-15.747
0.762,0.138,-0.008,-39.612,-9.155,-13.977
0.737,0.130,-0.007,-39.307,-7.385,-12.451
0.716,0.117,-0.002,-38.696,-3.113,-10.010
0.719,0.094,0.000,-37.903,3.418,-7.812
0.736,0.055,0.007,-37.170,11.658,-7.446

1.460,-0.947,0.958,-18.188,-36.743,-52.185
1.584,-1.186,1.081,-3.601,-56.213,-60.791
1.567,-1.424,1.173,4.883,-80.505,-53.162
1.430,-1.584,1.195,2.808,-103.821,-25.269
1.275,-1.697,1.154,-3.784,-119.568,9.827
1.066,-1.775,1.060,-9.827,-122.498,39.001
0.847,-1.792,0.967,-11.414,-109.863,50.964
0.684,-1.802,0.902,-5.920,-83.130,44.250
0.560,-1.791,0.863,6.531,-47.424,25.391
0.508,-1.779,0.873,21.851,-7.629,1.770
0.524,-1.790,0.908,36.438,29.541,-22.766
0.594,-1.836,0.947,47.058,58.472,-50.293
0.715,-1.915,1.002,52.673,76.294,-79.895
0.856,-2.021,1.036,53.284,80.261,-107.361
0.965,-2.110,1.007,45.959,71.960,-129.944
1.077,-2.120,0.981,30.945,57.556,-146.301
1.181,-2.013,0.961,15.076,41.809,-154.541
1.236,-1.846,0.920,3.113,27.344,-150.879
1.285,-1.684,0.875,-4.395,16.418,-136.353
1.315,-1.564,0.844,-7.385,8.057,-116.028
1.333,-1.455,0.829,-6.165,-0.122,-94.177
1.339,-1.370,0.835,-2.197,-9.094,-73.425
1.293,-1.318,0.862,5.920,-21.301,-54.199
1.157,-1.277,0.877,18.005,-35.706,-37.231
0.975,-1.284,0.884,30.823,-47.974,-22.461
0.758,-1.330,0.864,39.612,-55.603,-10.315
0.533,-1.389,0.833,43.152,-56.458,-2.930
0.337,-1.452,0.814,42.114,-49.133,1.465
0.191,-1.512,0.793,35.828,-34.668,2.808
0.111,-1.559,0.768,24.780,-14.893,1.404
0.112,-1.585,0.744,10.315,7.141,-1.831
0.157,-1.553,0.700,-5.920,28.564,-3.601
0.203,-1.461,0.632,-21.606,46.326,-4.517
0.280,-1.333,0.578,-33.691,60.364,-5.066
0.370,-1.199,0.551,-39.307,68.848,-3.906
0.473,-1.045,0.569,-36.865,70.313,-1.038
0.569,-0.950,0.600,-25.818,61.584,4.333
0.611,-0.910,0.633,-10.010,43.030,9.705
0.624,-0.912,0.667,7.507,18.555,15.320
0.601,-0.956,0.694,24.109,-5.676,22.705
0.548,-1.023,0.698,36.011,-24.536,33.752
0.500,-1.094,0.664,40.344,-35.339,45.776
0.487,-1.175,0.641,38.574,-36.743,53.528
0.495,-1.230,0.614,31.616,-30.396,54.382
0.506,-1.200,0.589,19.592,-18.188,50.354
0.527,-1.057,0.614,7.080,-4.395,43.762
0.581,-0.908,0.690,1.221,9.033,37.415
0.694,-0.828,0.782,5.005,18.555,34.729
0.811,-0.808,0.856,14.771,19.531,35.461
0.889,-0.809,0.900,24.658,10.193,37.109
0.908,-0.804,0.893,31.494,-5.676,39.612
0.868,-0.850,0.855,37.537,-22.766,42.419
0.831,-0.932,0.809,40.527,-35.583,44.922
0.780,-1.002,0.767,38.086,-40.894,46.021
0.714,-1.018,0.717,29.297,-37.109,45.715
0.668,-0.973,0.672,16.113,-25.208,43.579
0.648,-0.851,0.675,1.770,-7.446,41.077
0.688,-0.766,0.743,-8.057,11.230,40.283
0.759,-0.739,0.825,-10.925,23.621,40.955
0.823,-0.703,0.880,-9.033,26.978,40.466
0.862,-0.680,0.888,-4.761,22.583,39.063
0.839,-0.689,0.843,-0.366,13.916,37.170
0.802,-0.699,0.775,0.305,6.958,34.302
0.786,-0.697,0.727,-2.991,6.226,31.189
0.765,-0.675,0.682,-8.667,10.925,28.076
0.729,-0.633,0.622,-15.198,19.897,24.170
0.750,-0.532,0.595,-21.851,33.081,20.386
0.758,-0.459,0.550,-26.184,46.570,18.677
0.797,-0.398,0.604,-27.588,59.509,19.409
0.868,-0.355,0.651,-23.560,64.270,23.071
0.890,-0.328,0.661,-14.954,58.472,27.649
0.892,-0.345,0.677,-5.249,47.546,31.433
0.851,-0.411,0.622,3.601,32.593,33.142
0.767,-0.463,0.553,7.996,20.569,32.227
0.693,-0.470,0.490,7.812,14.648,29.541
0.616,-0.466,0.406,5.127,15.015,25.085
0.547,-0.452,0.339,0.793,23.621,18.677
0.480,-0.417,0.275,-3.479,39.917,11.902
0.431,-0.371,0.235,-6.653,62.988,7.935
0.478,-0.325,0.258,-8.728,89.600,7.996
0.574,-0.267,0.287,-9.216,109.863,9.521
0.697,-0.194,0.359,-6.958,118.591,13.245
0.808,-0.125,0.443,-1.038,113.708,20.508
0.834,-0.094,0.485,8.728,94.910,29.175
0.816,-0.105,0.514,19.043,68.176,35.889
0.765,-0.136,0.497,26.428,38.208,41.199
0.692,-0.200,0.446,30.334,10.071,45.715
0.621,-0.248,0.397,29.053,-11.169,47.852
0.533,-0.273,0.340,23.621,-24.780,47.424
0.469,-0.292,0.284,15.320,-28.992,43.762
0.441,-0.304,0.239,6.042,-23.743,35.645
0.446,-0.297,0.218,-3.906,-10.925,25.513
0.464,-0.274,0.204,-12.817,4.456,16.541
0.508,-0.263,0.186,-19.958,19.958,11.292
0.549,-0.265,0.173,-25.635,33.752,10.986
0.575,-0.264,0.158,-30.334,44.556,13.977
0.601,-0.247,0.148,-32.959,53.162,17.151
0.602,-0.212,0.138,-33.569,59.814,19.226
0.615,-0.192,0.131,-32.104,64.209,21.423
0.638,-0.176,0.135,-29.602,66.406,24.048
0.662,-0.184,0.140,-26.794,67.017,27.527
0.686,-0.210,0.156,-25.330,66.162,33.020
0.754,-0.237,0.196,-24.719,62.012,38.147
0.792,-0.254,0.223,-23.865,53.650,39.734
0.757,-0.270,0.226,-23.010,42.114,39.124
0.726,-0.279,0.218,-22.949,30.823,38.086
0.708,-0.271,0.215,-23.621,21.851,35.889
0.665,-0.243,0.207,-24.719,15.259,32.898
0.581,-0.197,0.191,-26.611,11.841,30.212
0.521,-0.158,0.167,-29.419,12.268,29.053
0.504,-0.134,0.145,-32.471,16.418,27.527
0.490,-0.126,0.129,-35.889,23.132,23.437
0.484,-0.105,0.120,-39.734,31.677,17.151
0.487,-0.073,0.116,-43.274,41.443,10.376
0.496,-0.050,0.118,-45.715,51.331,4.211
0.525,-0.039,0.125,-47.791,60.791,0.671
0.577,-0.021,0.138,-49.622,69.092,-1.038
0.633,-0.004,0.158,-51.086,74.829,-2.563
0.697,0.012,0.176,-52.551,77.209,-3.174

1.008,1.161,-0.558,32.776,-185.120,35.461
1.083,1.154,-0.569,37.964,-224.854,46.814
1.080,1.127,-0.604,45.105,-267.273,59.021
0.969,1.068,-0.669,55.603,-307.678,68.970
0.803,0.923,-0.742,67.627,-339.600,76.233
0.667,0.750,-0.773,78.857,-356.323,80.444
0.518,0.610,-0.776,88.867,-359.070,79.834
0.376,0.561,-0.730,99.243,-349.243,73.242
0.277,0.500,-0.640,113.953,-327.881,63.171
0.247,0.514,-0.443,135.010,-300.110,49.744
0.246,0.389,-0.231,164.185,-274.353,36.316
0.220,0.130,-0.044,193.909,-254.761,26.978
0.163,-0.161,0.136,210.815,-243.774,23.743
0.205,-0.637,0.374,213.501,-239.990,25.879
0.245,-1.319,0.674,193.420,-237.488,41.016
0.088,-1.908,0.928,143.677,-237.183,74.402
-0.047,-2.462,1.123,80.750,-237.671,107.910
-0.041,-2.898,1.202,20.996,-231.079,118.896
-0.013,-3.090,1.186,-21.545,-211.548,99.243
-0.234,-2.709,1.341,-41.443,-176.575,68.787
-0.100,-2.697,1.375,-31.311,-137.512,56.641
-0.018,-2.624,1.494,4.944,-94.482,48.645
0.162,-1.761,1.801,58.350,-56.091,31.372
0.181,-1.533,1.807,123.779,-37.354,27.100
0.378,-2.208,1.850,181.824,-37.903,22.827
0.042,-2.078,1.640,200.073,-44.189,-14.343
-0.233,-2.080,1.568,190.735,-35.706,-22.827
-0.197,-2.349,1.434,153.809,-15.564,-20.264
0.014,-2.542,1.361,107.483,13.123,-46.326
0.326,-2.419,1.391,65.063,48.828,-90.454
0.344,-1.899,1.429,34.607,76.111,-132.996
0.637,-1.549,1.455,23.132,95.520,-149.170
0.779,-1.358,1.443,27.649,105.164,-141.907
0.864,-1.312,1.382,36.011,107.056,-121.582
1.009,-1.356,1.378,39.001,101.318,-95.581
1.123,-1.516,1.389,37.170,81.360,-66.223
1.051,-1.610,1.370,28.625,46.082,-35.645
0.838,-1.701,1.298,12.207,4.333,-3.601
0.584,-1.748,1.159,-8.972,-36.072,25.513
0.320,-1.734,0.989,-32.593,-67.444,47.729
0.082,-1.714,0.838,-54.443,-84.106,60.730
-0.133,-1.664,0.671,-72.327,-85.510,62.683
-0.296,-1.537,0.525,-87.646,-70.007,55.359
-0.305,-1.366,0.472,-97.351,-41.748,45.349
-0.180,-1.211,0.490,-98.022,-10.742,33.813
-0.027,-1.077,0.521,-90.515,14.526,22.217
0.146,-0.924,0.590,-77.026,32.471,16.296
0.354,-0.784,0.698,-59.570,40.283,19.043
0.485,-0.701,0.771,-40.894,36.133,26.855
0.512,-0.688,0.831,-22.888,24.292,36.377
0.502,-0.728,0.853,-7.996,10.559,46.326
0.445,-0.773,0.859,3.052,0.427,58.289
0.372,-0.833,0.884,9.888,-5.310,71.228
0.361,-0.906,0.934,15.198,-9.155,80.994
0.371,-0.957,0.918,18.982,-15.503,85.510
0.335,-0.934,0.861,22.034,-22.583,86.609
0.323,-0.918,0.854,24.780,-25.818,85.938
0.271,-0.858,0.801,28.198,-28.564,82.153
0.194,-0.821,0.765,33.264,-25.024,78.003
0.176,-0.786,0.818,40.649,-16.235,73.364
0.207,-0.756,0.829,50.781,-9.888,71.533
0.238,-0.781,0.864,59.082,-2.991,75.623
0.269,-0.786,0.943,64.209,2.991,78.674
0.308,-0.820,1.007,68.481,3.418,77.942
0.297,-0.872,1.019,70.251,0.427,74.158
0.269,-0.913,0.990,67.566,-1.221,66.956
0.253,-0.864,1.031,61.523,1.038,57.739
0.227,-0.798,1.002,55.481,2.136,50.903
0.226,-0.828,1.004,49.866,6.775,47.607
0.229,-0.832,1.030,41.748,13.550,43.640
0.212,-0.803,1.044,33.569,22.156,40.039
0.215,-0.775,1.073,26.062,34.973,39.978
0.242,-0.754,1.087,19.409,48.828,41.626
0.266,-0.750,1.089,13.977,62.317,41.809
0.315,-0.870,1.069,8.972,75.195,36.560
0.356,-0.867,1.069,0.793,87.891,23.254
0.365,-0.784,1.033,-9.949,99.915,10.986
0.363,-0.687,1.004,-20.447,110.596,5.005
0.389,-0.653,1.030,-28.870,120.483,3.479
0.462,-0.659,1.085,-32.898,126.709,4.089
0.524,-0.636,1.107,-34.302,125.977,4.944
0.540,-0.596,1.083,-33.936,120.117,6.714
0.518,-0.613,1.038,-31.494,114.380,8.240
0.529,-0.684,1.033,-29.663,111.694,6.226
0.547,-0.712,1.017,-31.616,109.802,-0.366
0.536,-0.714,0.943,-38.086,109.558,-6.287
0.520,-0.725,0.890,-48.340,116.577,-11.230
0.563,-0.696,0.895,-60.486,128.174,-16.663
0.608,-0.636,0.861,-71.045,138.245,-19.897
0.617,-0.581,0.820,-78.552,146.423,-20.142
0.653,-0.511,0.817,-81.970,153.015,-20.203
0.677,-0.455,0.787,-82.153,154.236,-18.433
0.657,-0.454,0.705,-79.712,150.208,-14.587
0.674,-0.440,0.692,-76.355,146.484,-13.489
0.674,-0.406,0.665,-73.059,140.320,-12.024
0.626,-0.393,0.586,-70.007,132.935,-9.277
0.627,-0.374,0.604,-66.528,130.493,-8.179
0.621,-0.347,0.568,-62.134,126.953,-8.301
0.584,-0.337,0.536,-59.326,123.535,-5.432
0.573,-0.357,0.524,-59.814,121.033,-1.099
0.561,-0.383,0.484,-62.744,117.920,2.075
0.525,-0.365,0.431,-67.932,116.577,2.625
0.508,-0.340,0.395,-72.754,117.798,1.221
0.504,-0.335,0.372,-75.928,120.911,-3.052
0.475,-0.312,0.327,-78.613,124.451,-8.179
0.479,-0.292,0.311,-80.811,127.930,-11.414
0.512,-0.295,0.284,-82.092,128.906,-13.550
0.508,-0.276,0.245,-84.229,128.784,-15.259
0.504,-0.236,0.225,-85.876,130.554,-15.381
0.499,-0.211,0.199,-85.388,132.996,-13.733
0.523,-0.195,0.192,-83.679,136.414,-10.620
0.608,-0.194,0.211,-80.261,138.916,-6.042
0.661,-0.228,0.224,-76.111,138.184,-1.587
0.660,-0.252,0.237,-73.059,135.498,2.686
0.667,-0.260,0.234,-70.129,130.493,5.554
0.647,-0.260,0.213,-67.078,125.488,6.470
0.638,-0.263,0.200,-65.247,122.620,7.019
0.628,-0.258,0.184,-64.880,121.704,8.728
0.610,-0.254,0.156,-64.270,122.009,11.108

1.461,-1.199,0.469,-29.907,-63.416,42.603
1.593,-1.303,0.587,-28.198,-78.308,53.589
1.576,-1.426,0.698,-18.677,-100.525,65.979
1.479,-1.514,0.788,-5.066,-121.033,86.182
1.424,-1.603,0.870,13.794,-135.132,108.337
1.374,-1.746,0.937,37.781,-140.259,119.629
1.306,-1.870,0.955,61.584,-135.376,112.549
1.220,-1.961,0.969,77.881,-122.070,89.905
1.122,-2.062,0.955,84.839,-102.234,55.054
1.074,-2.078,0.915,77.515,-75.500,11.719
1.019,-2.050,0.882,57.312,-46.021,-33.875
1.001,-1.996,0.796,29.724,-16.846,-77.637
1.023,-1.934,0.739,0.244,11.353,-112.549
1.016,-1.912,0.674,-25.940,39.001,-135.803
1.023,-1.892,0.566,-47.913,67.688,-150.635
1.073,-1.829,0.452,-65.857,99.121,-160.767
1.130,-1.705,0.370,-77.393,129.639,-166.748
1.197,-1.561,0.325,-82.642,155.945,-167.053
1.296,-1.427,0.323,-81.787,172.546,-161.682
1.407,-1.297,0.357,-74.280,177.063,-150.452
1.498,-1.213,0.441,-61.523,168.396,-134.094
1.568,-1.157,0.563,-44.922,146.851,-115.173
1.579,-1.112,0.693,-26.184,112.183,-92.834
1.524,-1.107,0.780,-6.409,67.505,-66.345
1.401,-1.166,0.821,11.902,19.958,-36.316
1.212,-1.243,0.812,25.879,-24.414,-5.310
0.992,-1.295,0.753,33.508,-61.462,23.682
0.777,-1.328,0.677,36.072,-86.670,47.424
0.587,-1.344,0.617,35.339,-98.633,61.462
0.434,-1.327,0.576,33.020,-98.633,64.636
0.321,-1.288,0.542,30.823,-89.294,59.265
0.271,-1.260,0.524,30.090,-72.815,48.340
0.286,-1.238,0.522,28.503,-51.758,34.973
0.373,-1.191,0.549,26.123,-29.419,22.644
0.506,-1.144,0.583,24.048,-10.742,13.611
0.622,-1.086,0.611,22.156,1.099,8.179
0.736,-1.043,0.642,21.851,6.531,6.165
0.842,-1.032,0.650,23.071,5.249,7.629
0.889,-1.030,0.638,23.682,-1.282,11.963
0.878,-1.018,0.604,23.926,-10.681,16.846
0.867,-0.999,0.560,24.231,-19.775,20.752
0.860,-0.974,0.537,25.146,-26.611,23.621
0.820,-0.947,0.519,27.710,-30.640,25.452
0.781,-0.907,0.515,31.677,-31.311,27.222
0.772,-0.903,0.507,35.645,-28.992,28.870
0.779,-0.931,0.494,38.269,-24.719,29.785
0.794,-0.922,0.490,37.415,-18.860,30.090
0.843,-0.894,0.505,35.217,-13.245,31.311
0.917,-0.887,0.533,32.959,-10.193,33.569
0.993,-0.889,0.562,30.151,-10.559,36.621
1.026,-0.868,0.580,27.344,-14.343,40.649
1.029,-0.849,0.583,25.452,-19.775,44.678
1.023,-0.866,0.572,24.048,-24.109,49.255
1.003,-0.898,0.549,20.996,-24.963,53.406
0.958,-0.898,0.517,15.747,-21.057,55.847
0.909,-0.869,0.490,10.010,-12.390,56.030
0.864,-0.831,0.455,4.639,0.061,53.772
0.828,-0.783,0.432,0.793,15.869,48.279
0.802,-0.694,0.429,-1.892,33.264,42.419
0.814,-0.610,0.445,-2.380,49.744,37.842
0.894,-0.563,0.473,-0.977,61.890,35.767
0.952,-0.551,0.487,0.427,65.247,36.194
0.961,-0.548,0.467,0.671,61.096,36.377
0.954,-0.548,0.425,-0.549,52.979,35.461
0.981,-0.558,0.405,-2.747,45.166,33.997
0.953,-0.557,0.361,-4.822,37.109,30.396
0.890,-0.534,0.320,-7.690,30.457,26.062
0.896,-0.474,0.304,-11.353,27.039,22.156
0.849,-0.465,0.224,-13.489,26.978,19.409
0.776,-0.433,0.195,-15.381,33.752,15.869
0.766,-0.389,0.196,-16.235,44.312,13.123
0.756,-0.347,0.184,-16.174,54.077,13.062
0.738,-0.304,0.158,-15.747,61.707,14.893
0.779,-0.281,0.177,-15.076,67.566,18.921
0.821,-0.251,0.202,-13.733,68.359,23.254
0.813,-0.208,0.197,-11.658,61.951,27.893
0.803,-0.177,0.180,-8.606,51.208,31.921
0.761,-0.150,0.154,-4.517,39.978,33.569
0.724,-0.149,0.168,0.671,29.968,32.715
0.697,-0.143,0.163,6.470,19.165,28.809
0.665,-0.145,0.153,12.268,8.728,25.269
0.628,-0.150,0.130,16.968,0.366,22.400
0.582,-0.167,0.088,20.386,-3.662,18.799
0.535,-0.170,0.076,22.278,-1.892,15.137
0.516,-0.151,0.074,22.888,3.723,12.878
0.522,-0.166,0.072,22.827,11.475,13.000
0.524,-0.202,0.070,21.362,21.301,15.015
0.545,-0.226,0.076,18.433,31.494,18.311
0.631,-0.261,0.099,13.916,42.114,22.766
0.701,-0.263,0.113,8.667,49.622,26.855
0.756,-0.236,0.136,4.028,51.575,29.968
0.784,-0.212,0.141,1.038,47.607,31.189
0.770,-0.187,0.140,-0.183,40.222,31.372
0.748,-0.158,0.140,-1.648,31.799,33.691
0.728,-0.138,0.139,-2.686,23.193,36.804
0.712,-0.139,0.137,-2.380,14.771,38.879
0.711,-0.165,0.137,-2.014,8.362,39.490
0.693,-0.190,0.138,-2.136,4.089,38.574
0.663,-0.186,0.145,-3.296,2.014,36.865
0.670,-0.160,0.150,-5.249,1.892,35.828
0.714,-0.155,0.167,-8.240,2.197,35.706
0.734,-0.147,0.181,-13.000,0.610,35.156
0.725,-0.127,0.173,-19.104,-2.747,34.546
0.724,-0.116,0.166,-25.391,-6.226,34.546
0.697,-0.096,0.153,-31.433,-9.033,33.813
0.661,-0.080,0.132,-36.743,-10.864,30.884
0.639,-0.057,0.117,-41.870,-9.460,25.940
0.661,-0.032,0.101,-45.898,-5.371,18.066
0.650,-0.013,0.092,-48.706,0.427,8.301
0.627,-0.009,0.082,-50.293,6.897,0.000
0.625,-0.003,0.072,-52.063,14.221,-5.554
0.647,0.001,0.070,-53.589,22.522,-8.850
0.692,-0.001,0.070,-54.932,29.602,-11.047
0.742,-0.002,0.079,-55.969,34.424,-12.390
0.786,0.007,0.089,-57.007,36.072,-13.184
0.831,0.010,0.101,-57.129,34.058,-13.367
0.855,0.008,0.107,-56.458,29.175,-11.719
0.847,0.007,0.105,-55.054,22.400,-8.545
0.833,0.011,0.099,-53.345,15.076,-5.066

0.870,-0.981,0.866,-79.895,-78.247,60.852
0.879,-1.046,0.908,-87.585,-74.158,42.725
0.960,-1.093,0.944,-89.600,-63.416,19.836
1.114,-1.048,0.993,-85.938,-51.758,2.014
1.246,-0.990,1.040,-74.402,-46.204,-9.644
1.323,-0.932,1.064,-51.392,-47.302,-19.714
1.339,-0.916,1.067,-18.433,-51.636,-29.724
1.290,-0.986,1.035,19.592,-56.213,-40.588
1.214,-1.137,0.973,57.068,-56.763,-52.673
1.147,-1.302,0.925,85.205,-51.270,-62.805
1.062,-1.440,0.878,102.722,-41.565,-69.397
0.985,-1.551,0.847,110.596,-30.518,-71.228
0.907,-1.635,0.836,109.131,-19.409,-70.557
0.860,-1.745,0.823,101.074,-9.460,-70.313
0.863,-1.823,0.789,87.097,-1.831,-73.792
0.887,-1.832,0.736,68.604,3.174,-83.252
0.941,-1.766,0.704,48.279,4.883,-96.313
1.013,-1.686,0.689,30.640,2.563,-107.544
1.070,-1.600,0.698,17.273,-3.845,-112.732
1.067,-1.484,0.724,7.690,-12.146,-106.323
1.005,-1.369,0.742,2.258,-21.973,-85.266
0.935,-1.263,0.770,1.404,-30.518,-53.345
0.864,-1.199,0.801,7.202,-37.292,-18.738
0.770,-1.199,0.802,18.250,-43.457,11.108
0.657,-1.219,0.798,30.518,-48.218,32.288
0.539,-1.261,0.787,41.748,-51.880,44.189
0.433,-1.312,0.775,50.537,-53.955,47.546
0.336,-1.353,0.760,55.664,-53.467,43.701
0.250,-1.388,0.737,57.373,-49.377,34.668
0.193,-1.409,0.708,55.115,-40.710,22.827
0.182,-1.381,0.690,49.377,-25.879,10.498
0.252,-1.315,0.682,42.603,-7.568,0.549
0.363,-1.235,0.686,36.011,10.193,-6.042
0.496,-1.151,0.715,30.762,24.231,-10.620
0.592,-1.067,0.759,28.015,31.067,-12.512
0.627,-1.003,0.798,29.053,30.640,-12.695
0.648,-0.989,0.816,34.485,25.757,-12.085
0.675,-1.017,0.808,42.847,18.799,-11.230
0.674,-1.064,0.768,49.683,11.719,-10.803
0.656,-1.093,0.719,52.002,5.798,-11.414
0.657,-1.102,0.677,50.476,2.502,-12.451
0.649,-1.103,0.639,46.631,2.075,-13.489
0.629,-1.095,0.594,42.480,4.333,-14.709
0.612,-1.040,0.553,37.903,9.583,-15.808
0.662,-0.933,0.589,34.180,17.273,-14.648
0.760,-0.890,0.646,37.048,20.813,-9.705
0.806,-0.905,0.680,44.922,16.785,-4.944
0.823,-0.927,0.696,52.917,8.667,-3.174
0.864,-0.953,0.708,59.509,0.671,-2.075
0.909,-0.987,0.707,63.354,-6.653,0.183
0.904,-1.017,0.686,62.927,-14.099,2.747
0.846,-1.034,0.637,58.899,-19.287,4.395
0.774,-0.997,0.574,51.270,-17.944,4.395
0.736,-0.922,0.545,43.091,-8.972,4.272
0.712,-0.846,0.543,36.804,3.845,4.883
0.728,-0.809,0.573,34.912,17.334,5.249
0.806,-0.824,0.613,36.743,28.381,5.493
0.888,-0.845,0.655,40.283,33.447,6.226
0.935,-0.851,0.668,43.518,31.433,7.690
0.942,-0.863,0.653,45.410,24.658,9.521
0.942,-0.897,0.615,45.044,18.127,10.559
0.930,-0.932,0.567,40.955,15.137,9.888
0.894,-0.941,0.528,32.532,17.517,7.874
0.844,-0.913,0.485,21.179,25.269,6.348
0.816,-0.831,0.452,9.216,37.781,6.531
0.852,-0.743,0.435,-1.770,52.551,9.949
0.885,-0.677,0.423,-10.132,64.880,14.709
0.910,-0.628,0.424,-15.442,73.303,19.287
0.930,-0.587,0.435,-17.944,75.500,23.132
0.942,-0.561,0.429,-17.334,71.411,24.902
0.930,-0.540,0.404,-15.198,62.988,24.475
0.882,-0.519,0.371,-12.695,53.345,22.095
0.849,-0.498,0.336,-9.949,45.410,18.616
0.820,-0.481,0.296,-7.141,40.283,15.381
0.766,-0.453,0.247,-5.188,39.246,12.207
0.693,-0.414,0.200,-3.540,43.518,10.132
0.649,-0.377,0.168,-2.747,53.162,10.925
0.667,-0.324,0.165,-1.587,66.345,13.794
0.721,-0.247,0.199,1.282,78.918,18.188
0.775,-0.182,0.245,5.676,85.876,24.719
0.865,-0.152,0.297,10.986,82.581,32.959
0.948,-0.147,0.349,17.212,67.627,40.710
0.926,-0.143,0.360,23.621,41.687,45.105
0.857,-0.138,0.337,29.968,12.207,46.021
0.819,-0.166,0.301,36.865,-13.428,44.312
0.769,-0.214,0.269,43.579,-32.349,39.734
0.711,-0.246,0.228,50.049,-43.640,33.691
0.673,-0.274,0.206,55.115,-45.959,28.931
0.631,-0.299,0.190,57.007,-40.039,27.710
0.586,-0.309,0.185,53.955,-29.419,31.311
0.577,-0.311,0.186,46.875,-16.479,39.490
0.603,-0.320,0.195,35.522,-4.028,49.805
0.627,-0.333,0.202,22.217,5.859,60.181
0.659,-0.363,0.205,7.935,13.245,68.420
0.680,-0.384,0.219,-6.470,18.433,75.073
0.692,-0.377,0.226,-20.325,21.057,80.078
0.701,-0.361,0.227,-32.043,22.156,82.947
0.708,-0.348,0.232,-41.565,24.048,85.083
0.703,-0.327,0.233,-48.706,25.269,88.257
0.658,-0.290,0.230,-54.810,25.879,91.370
0.615,-0.253,0.216,-59.509,26.733,95.215
0.621,-0.226,0.210,-62.805,29.114,97.412
0.651,-0.205,0.213,-64.514,31.677,97.290
0.631,-0.180,0.208,-65.430,32.166,94.543
0.567,-0.146,0.198,-65.613,30.640,90.515
0.532,-0.115,0.188,-66.711,29.602,86.060
0.541,-0.104,0.173,-69.092,28.564,81.421
0.532,-0.113,0.156,-71.533,27.344,76.111
0.518,-0.135,0.151,-73.547,26.550,70.374
0.517,-0.142,0.145,-76.294,26.917,65.857
0.534,-0.144,0.140,-78.430,27.039,60.791
0.560,-0.151,0.148,-80.322,28.625,54.565
0.592,-0.148,0.153,-82.581,30.212,48.523
0.622,-0.124,0.156,-84.045,30.334,42.664
0.658,-0.094,0.167,-84.595,29.053,37.415
0.690,-0.072,0.162,-84.167,25.513,32.227
0.711,-0.057,0.169,-81.848,21.057,27.039
0.669,-0.033,0.156,-78.186,16.052,22.034
0.649,0.001,0.139,-73.547,12.512,18.250

1.421,-0.341,0.827,-8.301,-135.803,46.448
1.206,-0.420,0.712,-14.343,-156.372,34.363
0.928,-0.520,0.637,-18.005,-148.865,12.390
0.763,-0.561,0.617,-18.860,-111.328,-13.611
0.810,-0.625,0.664,-14.771,-56.580,-39.429
1.028,-0.841,0.848,-4.700,-1.892,-62.012
1.216,-0.977,1.022,2.991,39.185,-75.012
1.299,-0.980,1.166,7.080,56.580,-80.872
1.387,-0.980,1.244,15.930,53.955,-86.487
1.498,-1.012,1.308,31.677,36.987,-97.046
1.449,-1.091,1.316,49.500,7.751,-107.910
1.338,-1.298,1.226,65.186,-25.818,-117.371
1.242,-1.568,1.147,71.594,-49.194,-126.892
1.114,-1.753,1.059,62.500,-56.946,-133.789
1.035,-1.819,0.952,43.030,-50.842,-136.658
1.023,-1.767,0.837,21.484,-33.569,-140.259
1.011,-1.633,0.749,2.502,-8.118,-147.766
0.989,-1.479,0.665,-9.827,21.301,-156.189
0.982,-1.324,0.593,-14.709,52.429,-162.476
0.995,-1.174,0.580,-13.367,83.557,-165.283
1.043,-1.020,0.624,-4.578,110.291,-161.743
1.188,-0.914,0.743,14.160,127.136,-151.306
1.363,-0.916,0.916,38.757,130.066,-131.714
1.436,-0.956,1.028,59.753,114.807,-101.563
1.405,-1.019,1.088,74.341,83.191,-67.139
1.289,-1.128,1.101,80.444,44.067,-35.217
1.103,-1.256,1.056,78.491,7.446,-11.597
0.888,-1.326,0.970,69.641,-19.531,1.709
0.646,-1.326,0.865,55.542,-33.447,6.348
0.427,-1.296,0.754,39.063,-31.738,3.052
0.290,-1.240,0.666,23.987,-15.564,-5.066
0.263,-1.171,0.619,13.611,10.010,-16.052
0.369,-1.127,0.617,10.132,37.659,-26.489
0.568,-1.118,0.647,10.925,60.364,-32.288
0.764,-1.066,0.680,10.986,70.068,-29.480
0.882,-0.985,0.683,9.888,61.218,-20.752
0.966,-0.880,0.662,9.705,38.635,-9.827
1.005,-0.803,0.643,13.306,9.216,-0.122
0.990,-0.787,0.619,23.926,-19.775,7.507
0.901,-0.823,0.585,38.391,-44.006,11.414
0.802,-0.885,0.545,52.063,-56.824,12.512
0.753,-0.974,0.533,61.401,-54.138,13.306
0.704,-1.013,0.534,63.171,-39.673,14.893
0.746,-0.974,0.580,57.312,-18.127,17.822
0.850,-0.936,0.655,49.805,2.380,22.034
0.954,-0.916,0.722,42.419,17.517,25.330
1.091,-0.895,0.790,36.194,25.146,27.100
1.189,-0.867,0.843,29.907,22.400,28.870
1.195,-0.845,0.839,24.048,10.986,29.846
1.151,-0.808,0.809,18.127,-1.587,29.785
1.109,-0.777,0.778,14.526,-10.071,29.602
1.068,-0.779,0.736,12.146,-14.221,29.053
1.030,-0.747,0.712,9.521,-12.756,28.503
1.005,-0.702,0.698,6.897,-7.568,29.053
0.990,-0.703,0.674,6.042,-0.610,29.785
0.995,-0.717,0.668,5.066,9.766,29.358
0.991,-0.722,0.668,3.479,22.339,27.466
0.990,-0.688,0.670,-0.244,34.668,24.963
1.014,-0.656,0.661,-4.761,45.593,22.278
1.048,-0.639,0.637,-9.033,53.772,18.982
1.074,-0.619,0.601,-12.817,58.716,14.893
1.098,-0.562,0.573,-16.724,61.768,10.620
1.093,-0.503,0.552,-18.738,62.378,7.324
1.097,-0.479,0.534,-18.738,61.707,4.700
1.085,-0.445,0.516,-18.433,60.791,3.662
1.057,-0.395,0.505,-17.822,59.021,3.479
1.032,-0.362,0.474,-16.174,57.983,4.639
1.006,-0.349,0.447,-14.771,60.059,6.958
0.994,-0.311,0.437,-13.794,64.453,9.399
1.003,-0.271,0.422,-12.878,67.383,11.230
0.989,-0.244,0.392,-11.963,66.956,13.062
0.981,-0.220,0.359,-10.925,64.087,14.099
0.958,-0.188,0.335,-9.216,59.937,13.672
0.904,-0.149,0.301,-7.080,54.810,12.146
0.844,-0.118,0.268,-4.028,50.659,11.597
0.791,-0.094,0.242,-0.793,49.622,13.123
0.752,-0.069,0.225,2.686,50.781,15.686
0.737,-0.049,0.213,7.019,51.819,17.212
0.725,-0.031,0.204,10.803,51.941,17.639
0.696,-0.031,0.187,14.160,51.514,16.602
0.681,-0.057,0.179,17.395,51.514,15.137
0.687,-0.077,0.184,19.043,52.307,13.428
0.688,-0.065,0.189,19.714,51.025,12.451
0.668,-0.057,0.181,20.142,46.021,13.611
0.666,-0.065,0.177,19.409,39.429,16.785
0.674,-0.066,0.170,17.456,32.532,21.240
0.663,-0.060,0.156,14.709,25.635,25.879
0.627,-0.045,0.132,12.207,20.020,29.053
0.640,-0.049,0.113,10.864,16.846,30.212
0.646,-0.061,0.105,9.399,17.395,31.372
0.607,-0.063,0.084,7.507,19.836,31.677
0.568,-0.065,0.055,6.104,24.231,30.273
0.580,-0.076,0.060,4.761,31.189,29.236
0.592,-0.074,0.069,3.357,38.147,28.687
0.606,-0.059,0.066,2.441,42.603,26.855
0.665,-0.055,0.085,1.587,45.593,24.658
0.735,-0.066,0.116,-0.610,46.387,24.658
0.766,-0.055,0.133,-3.662,43.091,26.062
0.817,-0.058,0.135,-6.287,37.537,27.527
0.878,-0.078,0.156,-10.132,33.142,31.128
0.909,-0.095,0.177,-15.381,28.015,36.560
0.891,-0.104,0.185,-21.729,20.752,41.931
0.847,-0.082,0.177,-28.320,13.977,45.593
0.815,-0.053,0.167,-33.936,10.437,45.532
0.765,-0.028,0.157,-37.720,10.193,41.077
0.734,-0.008,0.149,-40.344,12.451,35.400
0.708,0.008,0.142,-43.030,15.686,31.189
0.711,0.007,0.130,-46.143,18.921,27.588
0.749,-0.002,0.116,-49.866,21.423,23.499
0.792,-0.000,0.107,-52.917,22.095,19.958
0.836,0.004,0.118,-55.298,19.714,18.433
0.853,0.002,0.125,-56.885,14.099,20.508
0.831,0.002,0.122,-57.556,4.944,25.330
0.819,-0.000,0.120,-57.312,-4.333,31.067
0.770,-0.002,0.111,-57.068,-13.550,36.072
0.690,0.005,0.092,-56.152,-21.606,39.063
0.645,-0.002,0.080,-54.382,-26.367,39.001
0.645,-0.019,0.078,-52.002,-27.222,36.255
0.646,-0.035,0.085,-48.828,-25.757,30.884

2.094,-1.074,1.252,-76.477,-14.343,44.800
2.260,-1.216,1.466,-90.881,-71.228,57.922
2.214,-1.187,1.441,-97.595,-141.907,50.293
1.919,-0.992,1.268,-90.820,-198.547,16.663
1.323,-0.696,1.059,-68.726,-216.370,-37.231
0.862,-0.581,0.877,-32.715,-181.213,-96.558
0.680,-0.680,0.727,5.127,-99.792,-149.170
0.734,-0.927,0.644,32.043,4.944,-191.589
0.930,-1.173,0.615,46.265,106.323,-218.079
1.129,-1.290,0.574,49.866,185.059,-230.713
1.285,-1.282,0.565,50.171,230.835,-230.286
1.371,-1.250,0.591,55.054,242.310,-216.614
1.384,-1.271,0.595,64.819,224.121,-194.824
1.383,-1.319,0.617,76.660,186.157,-172.302
1.375,-1.312,0.661,88.440,137.939,-152.893
1.363,-1.331,0.680,101.440,87.036,-134.216
1.359,-1.347,0.749,111.206,39.978,-110.413
1.319,-1.320,0.845,115.540,-1.160,-75.439
1.250,-1.272,0.924,116.760,-35.400,-31.799
1.171,-1.245,0.943,113.647,-61.768,11.536
1.073,-1.257,0.948,105.957,-78.735,48.523
0.909,-1.343,0.909,94.055,-87.463,73.364
0.671,-1.429,0.843,77.332,-86.670,82.397
0.456,-1.459,0.793,57.800,-73.975,79.224
0.310,-1.432,0.748,38.818,-53.955,69.702
0.260,-1.363,0.714,21.362,-32.471,56.702
0.253,-1.286,0.677,8.850,-14.343,41.565
0.292,-1.216,0.640,3.235,-1.587,23.926
0.375,-1.206,0.614,3.235,6.592,6.714
0.457,-1.223,0.602,5.432,9.705,-6.836
0.525,-1.200,0.595,7.874,9.338,-15.930
0.623,-1.140,0.599,9.216,6.226,-20.142
0.724,-1.094,0.591,11.047,-0.366,-20.874
0.787,-1.071,0.574,13.062,-9.460,-20.630
0.823,-1.074,0.554,14.648,-20.325,-20.020
0.839,-1.082,0.535,15.198,-29.541,-18.250
0.819,-1.033,0.527,13.916,-35.583,-14.404
0.802,-0.990,0.522,12.878,-38.635,-9.949
0.814,-0.965,0.513,13.062,-39.063,-7.080
0.845,-0.939,0.503,13.367,-37.415,-5.737
0.844,-0.920,0.489,13.977,-35.400,-6.470
0.852,-0.911,0.470,15.381,-32.288,-8.301
0.892,-0.894,0.468,18.066,-27.588,-10.132
0.918,-0.880,0.476,20.996,-21.240,-11.536
0.930,-0.895,0.483,24.109,-14.099,-12.268
0.940,-0.928,0.492,26.428,-6.287,-11.536
0.993,-0.969,0.508,26.978,1.709,-8.484
1.003,-0.989,0.531,24.414,7.141,-3.052
1.000,-0.967,0.533,20.325,8.972,2.441
0.993,-0.924,0.531,15.747,9.094,6.409
1.012,-0.901,0.543,13.306,8.240,7.751
1.040,-0.891,0.552,12.695,5.554,7.202
1.081,-0.847,0.575,11.719,0.854,7.568
1.108,-0.776,0.615,10.925,-6.592,12.085
1.127,-0.744,0.639,12.939,-16.296,19.104
1.142,-0.740,0.629,15.747,-26.672,24.292
1.117,-0.736,0.602,17.700,-34.058,26.245
1.084,-0.756,0.565,18.738,-35.522,26.672
1.037,-0.812,0.508,18.066,-31.006,26.978
0.961,-0.855,0.446,13.123,-18.860,26.306
0.914,-0.850,0.393,4.456,2.319,24.353
0.908,-0.805,0.366,-4.578,30.457,21.118
0.957,-0.750,0.360,-11.230,60.303,16.846
1.059,-0.642,0.393,-14.832,85.449,13.855
1.208,-0.542,0.461,-13.916,98.755,14.893
1.332,-0.501,0.517,-8.118,96.130,19.104
1.386,-0.503,0.545,0.061,79.834,23.987
1.363,-0.518,0.526,8.484,55.664,27.466
1.303,-0.545,0.465,15.808,31.128,29.602
1.202,-0.574,0.384,20.020,13.062,30.518
1.072,-0.588,0.301,20.447,5.676,30.029
0.954,-0.575,0.238,18.372,10.254,27.771
0.899,-0.548,0.217,14.832,25.452,25.391
0.896,-0.506,0.209,11.292,45.837,24.109
0.908,-0.448,0.223,8.789,66.345,23.560
0.941,-0.404,0.239,7.385,82.397,23.804
0.990,-0.383,0.254,6.836,91.431,25.452
1.007,-0.355,0.264,6.226,92.224,28.076
1.012,-0.319,0.262,5.371,85.205,30.823
0.979,-0.280,0.245,5.127,72.632,33.081
0.915,-0.251,0.221,5.981,57.922,35.217
0.853,-0.231,0.195,7.324,44.922,36.926
0.793,-0.211,0.166,8.911,34.790,37.354
0.732,-0.194,0.138,11.414,28.687,36.011
0.682,-0.181,0.109,13.916,27.771,32.043
0.635,-0.165,0.083,16.113,31.067,26.367
0.612,-0.157,0.064,16.785,38.147,21.484
0.612,-0.151,0.052,15.747,47.058,18.921
0.633,-0.141,0.040,13.367,55.908,19.043
0.655,-0.138,0.037,10.254,62.988,22.095
0.694,-0.135,0.038,6.653,66.223,27.893
0.722,-0.085,0.054,3.418,63.477,35.034
0.707,-0.029,0.067,1.770,53.650,42.847
0.664,0.000,0.060,1.831,38.452,49.194
0.598,0.013,0.045,3.784,22.644,53.101
0.557,0.008,0.028,6.104,9.277,54.565
0.560,0.000,0.007,8.484,-1.099,52.795
0.540,0.006,-0.006,12.024,-8.118,47.119
0.517,0.002,-0.000,16.235,-11.475,42.603
0.520,-0.004,0.002,19.409,-12.268,41.260
0.517,-0.012,0.011,21.545,-11.230,41.077
0.506,-0.016,0.028,22.095,-8.545,41.382
0.525,-0.017,0.038,20.874,-5.554,41.748
0.555,-0.018,0.048,19.409,-3.052,40.283
0.556,-0.010,0.059,17.029,-1.587,37.170
0.561,-0.005,0.066,14.526,-1.160,34.363
0.599,-0.007,0.081,11.414,-1.221,32.471
0.622,-0.001,0.101,7.141,-1.953,31.006
0.628,-0.002,0.108,2.563,-4.822,30.029
0.674,-0.022,0.108,-2.441,-8.667,28.381
0.691,-0.022,0.103,-7.385,-12.390,24.231
0.698,-0.025,0.100,-11.719,-14.893,18.921
0.723,-0.026,0.094,-15.381,-15.198,14.221
0.745,-0.026,0.090,-19.165,-13.062,10.681
0.765,-0.030,0.089,-22.705,-8.972,8.484
0.796,-0.032,0.088,-26.062,-3.235,7.202
0.825,-0.025,0.091,-28.564,3.052,6.226
0.860,-0.028,0.104,-30.212,8.850,6.104
0.889,-0.036,0.111,-30.823,13.184,6.531

1.019,-1.106,0.624,82.458,-166.138,-131.042
0.744,-1.470,0.606,51.514,-181.458,-64.880
0.536,-1.845,0.560,22.400,-183.167,-5.615
0.402,-2.239,0.568,1.099,-166.992,27.466
0.374,-2.605,0.598,-5.920,-138.000,23.071
0.432,-2.791,0.645,-0.977,-102.478,-13.245
0.516,-2.809,0.738,10.376,-63.232,-62.256
0.619,-2.656,0.857,25.574,-26.428,-111.755
0.755,-2.389,0.896,39.917,1.038,-152.466
0.908,-2.170,0.904,51.208,20.142,-173.767
1.036,-2.015,0.914,58.899,31.433,-170.471
1.116,-1.903,0.900,61.890,33.630,-148.132
1.149,-1.820,0.865,59.204,29.297,-113.892
1.153,-1.763,0.868,49.622,21.423,-76.477
1.132,-1.724,0.902,36.621,11.963,-45.227
1.112,-1.643,0.968,25.757,1.099,-26.062
1.081,-1.561,1.057,18.738,-11.841,-17.456
1.002,-1.551,1.090,13.977,-28.198,-14.160
0.897,-1.614,1.039,7.568,-45.715,-11.414
0.752,-1.660,0.964,-3.845,-59.937,-7.263
0.567,-1.655,0.883,-17.883,-68.359,-2.319
0.375,-1.611,0.802,-29.968,-69.275,3.113
0.216,-1.584,0.729,-36.377,-62.195,6.653
0.112,-1.587,0.676,-38.025,-47.852,7.507
0.048,-1.606,0.632,-37.231,-29.236,7.629
-0.002,-1.599,0.581,-36.255,-8.972,9.644
-0.017,-1.551,0.549,-35.400,11.536,12.817
0.028,-1.514,0.537,-32.654,31.555,14.526
0.110,-1.491,0.525,-28.748,49.011,12.756
0.234,-1.451,0.528,-26.306,62.256,8.911
0.386,-1.376,0.547,-24.841,68.420,6.775
0.524,-1.292,0.595,-22.888,65.613,9.521
0.596,-1.220,0.643,-19.348,53.955,18.127
0.606,-1.168,0.672,-13.611,37.781,30.640
0.600,-1.138,0.678,-5.310,21.790,43.396
0.578,-1.143,0.665,3.113,8.667,52.979
0.528,-1.162,0.640,10.803,1.343,57.312
0.475,-1.177,0.615,15.503,0.244,56.946
0.442,-1.182,0.597,16.846,4.395,54.443
0.431,-1.173,0.589,15.198,12.207,51.697
0.435,-1.158,0.591,12.817,21.057,48.767
0.426,-1.110,0.603,9.399,29.785,46.875
0.430,-1.059,0.617,7.751,37.170,45.654
0.460,-1.035,0.623,8.057,42.725,44.128
0.492,-1.034,0.615,8.545,45.898,40.649
0.516,-1.024,0.607,7.324,47.607,34.241
0.576,-1.006,0.616,5.066,48.401,27.771
0.664,-1.002,0.626,1.526,46.265,23.315
0.744,-0.997,0.624,-3.418,39.673,21.362
0.749,-0.909,0.612,-11.230,30.396,23.071
0.724,-0.807,0.599,-18.433,20.752,28.564
0.721,-0.765,0.585,-21.240,13.062,35.278
0.726,-0.757,0.572,-21.240,8.545,40.466
0.719,-0.758,0.558,-20.508,7.019,42.664
0.707,-0.750,0.533,-19.348,7.385,41.138
0.697,-0.745,0.501,-18.311,9.521,37.170
0.693,-0.734,0.469,-17.700,13.550,31.982
0.683,-0.704,0.448,-17.212,20.020,26.733
0.660,-0.654,0.441,-16.052,28.625,22.339
0.665,-0.604,0.449,-13.672,38.574,19.775
0.689,-0.570,0.454,-10.925,47.302,19.165
0.728,-0.535,0.475,-8.667,52.856,20.874
0.770,-0.511,0.478,-7.446,52.490,24.902
0.777,-0.495,0.468,-6.714,46.509,29.419
0.744,-0.481,0.424,-7.202,37.537,33.813
0.698,-0.460,0.380,-8.362,29.480,37.415
0.649,-0.440,0.344,-8.362,24.231,39.246
0.608,-0.428,0.335,-7.263,22.461,37.476
0.578,-0.398,0.308,-5.798,22.034,32.593
0.571,-0.357,0.283,-3.357,24.475,28.625
0.576,-0.318,0.268,-0.793,29.175,26.306
0.569,-0.299,0.262,2.319,35.034,25.146
0.590,-0.296,0.278,5.493,41.260,25.635
0.614,-0.276,0.289,7.446,44.800,27.893
0.616,-0.253,0.287,8.972,44.250,31.555
0.610,-0.240,0.281,9.766,41.321,35.156
0.596,-0.229,0.268,10.437,37.964,37.659
0.568,-0.221,0.254,11.230,35.645,39.001
0.546,-0.210,0.239,10.681,34.546,39.368
0.535,-0.196,0.227,9.949,35.217,38.940
0.510,-0.177,0.215,8.362,37.231,39.368
0.472,-0.165,0.199,6.653,39.673,41.138
0.449,-0.161,0.184,4.150,42.419,43.213
0.453,-0.162,0.178,1.587,45.349,43.518
0.480,-0.168,0.184,-0.671,48.035,41.199
0.510,-0.163,0.218,-3.052,49.133,37.354
0.537,-0.107,0.247,-5.371,45.227,34.119
0.568,-0.084,0.247,-6.104,35.889,33.936
0.604,-0.079,0.258,-6.836,25.208,33.630
0.644,-0.102,0.254,-6.348,13.855,32.288
0.659,-0.133,0.250,-5.249,3.967,29.663
0.666,-0.131,0.262,-3.906,-4.517,25.757
0.691,-0.107,0.276,-2.686,-13.062,23.804
0.716,-0.156,0.269,-0.793,-21.240,23.499
0.719,-0.204,0.284,0.000,-26.489,20.752
0.682,-0.241,0.281,0.610,-28.687,19.226
0.646,-0.254,0.277,0.366,-26.978,18.982
0.630,-0.253,0.278,0.183,-21.667,19.226
0.634,-0.262,0.282,0.122,-13.062,17.944
0.635,-0.283,0.283,-0.488,-2.563,14.832
0.642,-0.292,0.290,-1.770,9.460,10.742
0.664,-0.295,0.301,-3.784,20.996,7.080
0.702,-0.299,0.317,-5.493,30.273,3.967
0.742,-0.304,0.330,-6.897,36.865,0.610
0.777,-0.307,0.345,-8.545,40.039,-2.075
0.824,-0.301,0.364,-10.742,39.978,-3.052
0.853,-0.288,0.378,-13.000,35.278,-2.625
0.861,-0.276,0.380,-15.015,27.039,-1.709
0.864,-0.270,0.379,-16.846,17.273,-0.977
0.859,-0.268,0.377,-18.677,7.507,-1.099
0.838,-0.258,0.368,-19.287,-0.916,-1.465
0.819,-0.248,0.357,-19.653,-7.019,-1.892
0.805,-0.253,0.344,-19.836,-10.620,-2.991
0.804,-0.270,0.338,-20.508,-11.902,-3.784
0.800,-0.282,0.334,-22.522,-10.620,-3.662
0.793,-0.290,0.327,-24.780,-8.240,-3.113
0.783,-0.296,0.317,-26.855,-4.272,-2.136
0.774,-0.299,0.311,-28.748,1.709,-1.282
0.756,-0.295,0.304,-29.175,9.827,-1.160

1.056,-1.278,0.689,-56.274,-16.113,21.484
1.143,-1.533,0.857,-48.706,-9.033,47.974
1.274,-1.947,1.041,-28.992,-8.118,76.172
1.365,-2.409,1.195,2.808,-10.742,90.332
1.435,-2.728,1.302,36.194,-12.939,82.825
1.536,-2.795,1.366,58.655,-12.939,54.321
1.603,-2.652,1.371,65.186,-10.864,9.827
1.637,-2.453,1.314,60.303,-8.118,-44.128
1.579,-2.295,1.178,44.861,-4.639,-95.886
1.428,-2.107,1.008,20.813,3.296,-132.324
1.273,-1.889,0.855,-5.371,20.874,-147.644
1.198,-1.725,0.763,-28.137,48.035,-143.494
1.141,-1.651,0.736,-46.631,80.261,-129.700
1.107,-1.630,0.671,-59.753,111.450,-119.324
1.112,-1.582,0.614,-68.481,140.320,-115.173
1.164,-1.482,0.594,-72.998,163.086,-114.746
1.213,-1.360,0.591,-71.899,174.805,-113.220
1.197,-1.245,0.585,-62.317,174.866,-108.521
1.167,-1.189,0.623,-45.288,167.297,-98.267
1.156,-1.209,0.716,-23.560,154.663,-82.092
1.161,-1.255,0.801,-2.258,135.559,-59.021
1.166,-1.310,0.865,15.869,110.596,-29.175
1.184,-1.358,0.914,28.809,80.627,1.221
1.193,-1.377,0.953,36.011,45.837,28.320
1.193,-1.397,0.966,39.978,7.996,50.781
1.136,-1.399,0.944,40.894,-32.166,68.054
1.021,-1.375,0.877,38.879,-71.106,79.224
0.912,-1.330,0.783,36.316,-103.394,83.679
0.798,-1.285,0.684,33.936,-123.840,82.275
0.683,-1.229,0.595,30.457,-131.470,78.369
0.591,-1.173,0.547,27.466,-127.014,74.036
0.530,-1.112,0.532,25.085,-111.450,70.679
0.530,-1.047,0.545,23.499,-88.257,68.420
0.569,-1.007,0.572,22.522,-61.218,66.650
0.633,-0.982,0.603,21.790,-35.034,64.514
0.724,-0.959,0.635,20.386,-11.536,61.584
0.837,-0.955,0.663,18.005,6.836,58.472
0.915,-0.967,0.673,14.343,18.188,54.626
0.984,-0.971,0.669,8.179,24.292,50.781
1.035,-0.929,0.668,-0.305,26.855,49.011
1.074,-0.867,0.657,-8.362,25.452,49.805
1.076,-0.813,0.631,-13.123,21.484,51.208
1.065,-0.757,0.597,-15.137,18.127,51.819
1.065,-0.683,0.578,-15.564,16.785,52.795
1.047,-0.611,0.568,-13.916,15.930,54.199
1.022,-0.574,0.557,-9.399,15.076,55.359
1.001,-0.563,0.544,-3.235,14.832,55.298
0.999,-0.572,0.531,2.502,15.686,53.223
1.004,-0.597,0.511,6.409,17.517,50.476
0.999,-0.613,0.492,7.629,20.264,48.096
0.970,-0.609,0.448,6.287,24.841,47.119
0.951,-0.586,0.403,3.662,33.875,47.241
0.960,-0.552,0.377,1.709,44.861,47.485
0.893,-0.483,0.354,1.160,54.260,45.532
0.898,-0.384,0.321,2.930,61.707,44.434
0.881,-0.370,0.280,7.935,68.115,43.762
0.938,-0.341,0.362,14.587,73.792,38.940
0.927,-0.333,0.307,21.118,70.557,33.936
0.907,-0.300,0.353,24.597,66.040,32.288
0.876,-0.298,0.311,25.696,57.251,34.058
0.827,-0.298,0.285,23.376,50.171,38.330
0.747,-0.281,0.224,18.372,45.471,41.870
0.679,-0.258,0.165,13.489,45.715,42.786
0.628,-0.243,0.114,10.193,49.805,39.856
0.593,-0.203,0.085,8.606,59.448,33.875
0.625,-0.192,0.094,8.484,71.411,26.672
0.665,-0.179,0.089,8.911,81.482,19.348
0.683,-0.153,0.106,8.911,88.806,14.771
0.743,-0.129,0.143,9.705,90.820,12.756
0.749,-0.085,0.138,12.268,85.449,11.658
0.721,-0.051,0.127,15.991,76.233,12.878
0.703,-0.046,0.120,20.447,65.735,15.320
0.666,-0.041,0.102,24.963,54.810,17.090
0.629,-0.050,0.089,28.381,45.105,17.822
0.567,-0.065,0.052,30.579,37.537,16.846
0.547,-0.109,0.050,30.640,34.729,15.686
0.518,-0.105,0.047,28.442,32.959,13.000
0.506,-0.099,0.061,25.940,31.189,11.841
0.544,-0.103,0.056,22.644,29.846,11.292
0.555,-0.110,0.047,17.761,29.541,9.583
0.555,-0.088,0.053,12.085,30.151,6.104
0.572,-0.015,0.074,6.836,29.846,3.296
0.611,-0.014,0.049,4.028,26.672,6.348
0.649,0.015,0.092,1.587,22.766,9.033
0.649,0.007,0.078,-0.671,15.442,13.977
0.655,0.022,0.091,-2.380,4.883,19.104
0.631,0.036,0.096,-2.991,-5.066,22.522
0.608,0.029,0.090,-3.357,-13.733,23.437
0.573,0.019,0.082,-2.441,-20.447,22.034
0.538,0.029,0.088,-1.099,-24.231,20.020
0.538,0.022,0.101,-1.099,-26.001,19.043
0.569,0.001,0.108,-2.625,-26.550,17.456
0.602,-0.012,0.116,-4.944,-26.367,13.794
0.628,-0.016,0.126,-7.507,-26.489,9.033
0.676,-0.030,0.137,-9.949,-27.344,4.333
0.732,-0.034,0.150,-11.658,-29.419,-0.366
0.781,-0.037,0.169,-12.939,-32.593,-3.296
0.827,-0.036,0.193,-14.526,-37.781,-3.479
0.861,-0.026,0.200,-15.808,-45.288,-2.808
0.869,-0.032,0.191,-16.602,-53.223,-1.343
0.867,-0.036,0.191,-17.029,-58.960,-0.244
0.873,-0.026,0.193,-16.785,-61.951,0.000
0.860,-0.022,0.191,-16.296,-63.049,0.244
0.814,-0.029,0.192,-15.808,-61.340,0.427
0.772,-0.039,0.194,-15.869,-56.580,0.366
0.739,-0.049,0.195,-15.747,-48.462,0.244
0.716,-0.060,0.202,-15.198,-37.231,-0.549
0.721,-0.074,0.216,-14.771,-24.292,-2.258
0.746,-0.090,0.234,-15.076,-11.597,-3.601
0.763,-0.098,0.249,-15.564,-1.831,-5.127
0.801,-0.108,0.270,-16.663,5.493,-6.104
0.848,-0.118,0.285,-18.799,9.338,-5.188
0.893,-0.124,0.300,-21.545,9.583,-3.967
0.915,-0.138,0.306,-23.560,6.897,-3.479
0.928,-0.148,0.312,-25.269,2.563,-3.235
0.941,-0.142,0.316,-25.574,-2.014,-3.113
0.954,-0.126,0.321,-24.414,-5.737,-3.174
0.950,-0.133,0.312,-22.278,-8.240,-3.296
0.919,-0.143,0.289,-20.447,-8.057,-4.578

0.805,-1.366,0.828,71.899,-95.398,-82.153
0.696,-1.634,0.848,39.368,-109.070,-61.768
0.490,-1.866,0.871,10.132,-115.906,-40.344
0.298,-2.124,0.881,-8.789,-113.098,-20.203
0.220,-2.394,0.908,-13.489,-99.487,-9.460
0.168,-2.614,0.933,-3.052,-72.205,-12.939
0.149,-2.707,0.941,18.005,-32.410,-27.039
0.233,-2.662,0.920,40.955,14.221,-50.964
0.424,-2.524,0.877,58.777,63.904,-81.909
0.631,-2.389,0.804,68.359,108.215,-113.098
0.824,-2.329,0.720,69.092,140.320,-137.573
0.991,-2.263,0.656,58.289,158.142,-150.391
1.099,-2.146,0.620,36.682,161.011,-149.719
1.226,-2.037,0.622,12.390,151.855,-138.123
1.332,-1.902,0.645,-9.277,134.827,-122.986
1.383,-1.709,0.677,-24.109,113.586,-110.474
1.377,-1.480,0.745,-29.175,88.318,-98.022
1.327,-1.259,0.810,-22.034,59.021,-82.825
1.241,-1.127,0.859,-5.676,28.809,-64.453
1.133,-1.137,0.887,15.686,0.732,-43.457
0.991,-1.235,0.874,36.438,-23.743,-23.010
0.820,-1.369,0.826,51.880,-44.067,-5.005
0.616,-1.532,0.772,60.120,-58.105,11.047
0.416,-1.669,0.755,58.777,-63.293,25.330
0.249,-1.737,0.762,49.866,-59.204,36.255
0.112,-1.757,0.769,35.828,-47.302,44.617
0.011,-1.726,0.758,18.005,-29.114,50.476
-0.039,-1.654,0.724,-1.038,-7.629,52.246
-0.052,-1.569,0.667,-18.921,15.564,48.828
-0.028,-1.489,0.600,-34.607,39.734,41.504
0.032,-1.416,0.547,-45.166,61.890,31.616
0.123,-1.350,0.513,-49.744,79.102,19.958
0.219,-1.289,0.498,-49.072,89.966,8.179
0.327,-1.232,0.494,-45.044,94.482,-0.977
0.466,-1.159,0.501,-38.086,93.567,-4.456
0.608,-1.087,0.529,-29.358,86.914,-2.991
0.721,-1.041,0.577,-19.409,75.073,1.770
0.753,-1.026,0.612,-9.460,61.279,7.690
0.742,-1.025,0.627,-0.244,48.889,13.000
0.728,-1.036,0.632,8.118,39.734,17.090
0.712,-1.041,0.631,13.367,34.424,21.606
0.698,-1.038,0.624,15.076,32.654,27.039
0.699,-1.046,0.620,15.198,32.715,32.104
0.723,-1.064,0.640,13.733,35.889,37.598
0.761,-1.059,0.650,10.071,39.368,43.091
0.807,-1.022,0.654,4.944,40.466,48.340
0.834,-0.956,0.675,0.000,38.025,53.589
0.869,-0.914,0.707,-2.502,33.081,59.021
0.913,-0.915,0.739,-2.136,25.696,62.927
0.923,-0.913,0.749,-1.709,17.151,63.965
0.902,-0.908,0.730,-2.197,8.179,61.951
0.860,-0.925,0.684,-3.845,2.319,57.678
0.818,-0.928,0.642,-6.897,2.991,52.612
0.763,-0.887,0.598,-11.597,9.705,47.241
0.715,-0.797,0.564,-16.357,21.362,42.542
0.721,-0.701,0.550,-20.630,36.255,39.917
0.769,-0.647,0.557,-22.827,50.354,39.185
0.825,-0.607,0.594,-23.743,60.791,41.260
0.860,-0.537,0.637,-22.339,64.758,45.532
0.892,-0.493,0.656,-17.090,61.340,49.255
0.909,-0.501,0.659,-9.521,53.772,49.500
0.898,-0.542,0.635,-2.808,46.204,46.387
0.859,-0.571,0.613,0.244,41.931,41.199
0.799,-0.573,0.566,-1.404,41.748,34.973
0.767,-0.565,0.514,-6.836,46.265,28.809
0.733,-0.553,0.430,-15.808,55.420,24.109
0.690,-0.491,0.381,-26.855,69.275,20.081
0.716,-0.415,0.345,-36.255,83.801,17.334
0.724,-0.332,0.301,-41.565,94.360,15.747
0.707,-0.243,0.306,-43.335,102.478,16.418
0.708,-0.177,0.282,-40.527,106.140,18.799
0.714,-0.119,0.274,-34.424,107.422,21.179
0.676,-0.063,0.234,-25.574,106.750,23.010
0.642,-0.029,0.235,-13.916,106.201,23.499
0.632,-0.017,0.234,-1.404,103.699,21.790
0.629,-0.011,0.214,10.559,98.389,17.883
0.611,-0.017,0.180,21.606,93.750,13.611
0.649,-0.066,0.183,31.128,91.492,10.803
0.749,-0.131,0.215,35.950,87.646,11.597
0.815,-0.174,0.240,35.950,76.599,15.381
0.822,-0.183,0.235,31.372,62.561,24.353
0.831,-0.169,0.224,23.376,49.011,41.565
0.840,-0.147,0.222,14.343,34.485,62.134
0.777,-0.129,0.198,5.432,18.555,77.637
0.664,-0.118,0.158,-4.333,7.446,86.243
0.542,-0.079,0.107,-13.855,4.150,88.196
0.461,-0.028,0.079,-20.020,7.507,85.449
0.421,0.008,0.053,-22.339,15.198,79.895
0.418,0.016,0.057,-21.851,25.574,73.242
0.441,-0.005,0.077,-19.043,35.767,65.979
0.473,-0.034,0.098,-16.846,42.908,58.655
0.522,-0.026,0.130,-15.564,45.776,50.659
0.584,0.015,0.159,-13.855,42.603,44.617
0.617,-0.002,0.163,-11.719,35.522,42.969
0.602,-0.042,0.165,-11.353,27.161,42.358
0.595,-0.082,0.161,-12.695,18.982,40.649
0.597,-0.087,0.164,-15.747,13.245,38.086
0.597,-0.090,0.167,-19.531,10.559,33.630
0.625,-0.090,0.181,-23.499,9.766,27.893
0.659,-0.095,0.181,-28.320,9.583,22.156
0.690,-0.093,0.172,-33.203,9.644,16.479
0.715,-0.089,0.165,-37.537,10.193,11.597
0.740,-0.082,0.148,-41.199,11.475,7.507
0.783,-0.063,0.143,-42.908,13.489,3.784
0.800,-0.059,0.135,-41.565,15.625,1.526
0.827,-0.042,0.146,-39.001,17.334,-0.366
0.851,-0.036,0.149,-35.522,16.907,-0.793
0.860,-0.039,0.157,-31.860,15.442,-0.366
0.844,-0.043,0.158,-28.748,12.634,0.671
0.831,-0.051,0.162,-25.269,9.277,1.892
0.828,-0.073,0.164,-21.912,5.676,2.869
0.818,-0.094,0.168,-19.043,1.953,3.296
0.809,-0.105,0.176,-16.724,-2.502,3.479
0.830,-0.120,0.184,-15.442,-7.324,2.991
0.836,-0.154,0.188,-15.259,-12.390,1.892
0.836,-0.177,0.187,-15.625,-17.090,1.892
0.840,-0.178,0.189,-16.785,-21.301,2.930
0.857,-0.174,0.192,-18.555,-24.170,3.906
0.859,-0.167,0.192,-19.470,-26.062,3.784

-0.609,-1.588,1.001,22.400,-170.532,89.722
-0.900,-1.693,1.135,45.227,-166.138,83.679
-0.949,-2.219,1.272,77.637,-152.466,68.054
-0.952,-1.841,1.532,105.957,-134.216,25.024
-0.981,-1.916,1.449,134.583,-98.816,15.198
-0.892,-1.678,1.241,156.311,-61.401,6.775
-0.585,-2.425,1.145,171.143,-9.521,5.005
-0.164,-2.526,1.107,164.734,46.509,-43.396
-0.025,-2.427,1.057,145.081,98.145,-92.834
0.102,-2.203,1.085,120.728,140.869,-115.662
0.183,-1.984,1.016,101.318,170.593,-116.943
0.226,-1.923,0.870,92.896,199.951,-100.159
0.625,-1.934,1.128,83.740,231.567,-93.323
0.950,-1.757,1.076,75.806,231.384,-95.581
0.947,-1.671,0.994,65.430,210.327,-92.957
0.857,-1.544,1.022,49.438,186.768,-84.961
0.708,-1.460,0.972,37.354,152.710,-65.186
0.523,-1.460,0.962,29.236,119.690,-34.973
0.383,-1.543,1.002,21.973,90.271,-2.930
0.203,-1.628,0.937,12.390,58.350,25.269
-0.049,-1.688,0.835,-0.610,34.058,51.086
-0.152,-1.697,0.836,-16.235,23.010,69.397
-0.146,-1.625,0.777,-29.846,17.456,72.205
-0.166,-1.535,0.737,-38.696,19.104,64.270
-0.094,-1.452,0.763,-45.410,27.527,52.612
0.082,-1.385,0.791,-49.988,33.936,43.030
0.261,-1.327,0.807,-53.284,35.522,39.673
0.405,-1.252,0.806,-57.434,33.203,45.227
0.465,-1.160,0.799,-60.669,26.184,55.969
0.452,-1.067,0.810,-58.716,18.616,67.322
0.398,-0.988,0.837,-49.377,13.855,75.745
0.327,-0.964,0.850,-32.471,12.146,79.285
0.250,-0.995,0.858,-12.573,13.855,80.078
0.178,-1.060,0.873,4.211,19.897,80.200
0.160,-1.121,0.929,14.832,29.541,80.383
0.200,-1.157,0.998,17.090,39.856,80.505
0.237,-1.131,1.058,11.230,48.645,80.200
0.288,-1.067,1.105,1.343,54.749,78.979
0.315,-1.018,1.159,-8.972,58.533,75.989
0.339,-1.008,1.201,-18.250,61.035,69.885
0.356,-0.985,1.221,-26.672,61.462,60.181
0.373,-0.954,1.241,-34.485,61.462,49.133
0.388,-0.933,1.213,-41.504,60.425,39.063
0.386,-0.914,1.151,-47.607,59.509,29.907
0.381,-0.875,1.083,-53.284,59.814,20.935
0.387,-0.825,1.022,-57.983,62.866,13.184
0.397,-0.770,0.982,-59.753,68.420,6.409
0.397,-0.702,0.945,-59.021,76.477,0.977
0.395,-0.639,0.929,-55.115,86.792,-2.808
0.425,-0.613,0.942,-48.523,99.731,-4.028
0.470,-0.595,0.964,-40.894,113.403,-4.089
0.523,-0.591,0.973,-34.363,124.512,-3.235
0.567,-0.601,0.973,-30.029,131.287,-2.380
0.581,-0.596,0.964,-29.541,134.033,-1.587
0.614,-0.575,0.963,-33.813,132.874,0.244
0.639,-0.540,0.951,-40.161,126.709,3.174
0.626,-0.483,0.940,-46.082,115.967,5.371
0.604,-0.430,0.929,-49.866,102.295,6.287
0.581,-0.418,0.895,-50.415,87.952,4.150
0.530,-0.426,0.844,-50.598,77.637,-1.892
0.498,-0.419,0.802,-52.307,73.181,-11.230
0.486,-0.412,0.765,-54.749,75.317,-22.400
0.485,-0.404,0.722,-58.105,83.252,-33.020
0.514,-0.383,0.680,-63.110,94.910,-41.748
0.556,-0.350,0.651,-68.726,107.422,-46.997
0.578,-0.232,0.623,-73.853,118.103,-48.828
0.597,-0.247,0.587,-76.782,126.770,-45.715
0.618,-0.200,0.550,-78.247,133.179,-42.114
0.627,-0.127,0.502,-78.064,135.620,-36.377
0.666,-0.097,0.488,-76.233,135.498,-27.405
0.656,-0.061,0.437,-72.754,129.395,-18.982
