aX,aY,aZ,gX,gY,gZ
-0.684,-1.348,1.323,-85.693,165.161,-25.269
0.170,-1.326,1.408,-101.563,290.161,-10.010
1.150,-0.927,1.829,-94.971,287.354,-8.057
1.234,-0.480,1.896,-70.007,191.406,-24.780
0.861,-0.769,1.520,-33.630,78.064,-32.959
0.505,-0.907,0.627,-15.686,-12.390,-37.781
0.278,-0.867,-0.044,-16.846,-48.096,-44.678
0.366,-1.053,-0.381,-19.470,-48.889,-55.420
0.460,-1.047,-0.520,-25.269,-47.852,-76.172
0.555,-1.193,-0.405,-19.165,-46.021,-91.553
0.603,-1.445,-0.096,-8.606,-46.997,-109.497
0.669,-1.835,0.348,1.343,-49.561,-116.882
0.717,-2.122,0.696,5.737,-52.734,-112.610
0.762,-2.113,0.733,3.479,-64.026,-97.656
0.608,-1.865,0.551,-2.747,-83.923,-75.256
0.479,-1.782,0.308,-5.737,-103.210,-60.608
0.415,-1.888,0.094,-4.272,-119.812,-54.565
0.380,-1.837,0.023,-2.808,-129.333,-47.058
0.237,-1.830,0.105,-3.662,-129.700,-42.480
0.047,-1.820,0.155,-8.362,-129.578,-44.189
-0.167,-1.668,0.141,-14.709,-121.887,-47.974
-0.308,-1.517,0.160,-17.700,-101.440,-47.668
-0.382,-1.353,0.199,-17.090,-73.792,-42.419
-0.356,-1.207,0.169,-13.489,-51.208,-33.386
-0.323,-1.100,0.155,-5.310,-36.011,-23.071
-0.364,-1.111,0.155,3.540,-21.729,-11.597
-0.364,-1.164,0.198,10.742,-5.981,-2.625
-0.324,-1.182,0.243,16.479,9.460,2.441
-0.213,-1.195,0.251,19.714,23.132,5.066
-0.081,-1.223,0.222,20.325,33.508,6.592
0.063,-1.208,0.229,21.729,38.818,7.568
0.177,-1.216,0.226,23.743,37.537,7.629
0.246,-1.205,0.236,26.062,32.898,7.019
0.283,-1.186,0.232,27.161,24.841,5.737
0.262,-1.165,0.204,27.283,14.954,4.578
0.231,-1.151,0.208,28.137,6.287,2.686
0.192,-1.167,0.213,29.297,-1.038,0.916
0.125,-1.193,0.207,30.640,-7.507,-1.282
0.060,-1.195,0.197,30.945,-11.230,-2.930
0.005,-1.193,0.179,30.090,-11.658,-3.113
-0.021,-1.185,0.175,28.809,-9.644,-3.296
-0.043,-1.162,0.169,27.893,-6.653,-3.479
-0.052,-1.109,0.185,28.687,-3.540,-3.479
-0.060,-1.091,0.202,28.687,-0.488,-2.075
-0.070,-1.062,0.208,27.832,3.418,0.916
-0.075,-1.034,0.206,27.283,8.850,3.906
-0.072,-1.016,0.195,26.550,14.832,6.836
-0.050,-0.996,0.209,25.085,21.423,9.521
-0.037,-0.970,0.231,23.254,28.076,11.047
-0.037,-0.960,0.237,22.766,35.156,11.658
-0.032,-0.970,0.239,23.071,42.786,12.146
-0.021,-0.998,0.223,23.437,50.537,12.817
0.012,-1.034,0.225,21.790,59.021,13.123
0.049,-1.074,0.244,19.043,67.200,12.146
0.086,-1.105,0.285,14.954,73.608,10.010
0.150,-1.127,0.340,10.620,77.332,7.568
0.207,-1.144,0.380,7.629,75.500,4.883
0.251,-1.172,0.418,6.592,68.054,1.343
0.315,-1.241,0.453,5.981,57.007,-2.075
0.358,-1.320,0.470,5.371,42.114,-3.906
0.361,-1.359,0.474,3.296,25.818,-5.127
0.342,-1.372,0.453,-0.671,8.850,-3.784
0.333,-1.378,0.441,-3.967,-6.531,-0.732
0.329,-1.364,0.421,-7.446,-21.851,1.892
0.289,-1.330,0.379,-10.132,-36.194,3.845
0.224,-1.249,0.339,-13.123,-45.837,5.554
0.179,-1.186,0.303,-15.869,-48.889,7.446
0.166,-1.168,0.274,-17.822,-46.082,10.986
0.153,-1.152,0.266,-20.142,-38.757,13.733
0.118,-1.120,0.246,-22.888,-29.785,15.198
0.089,-1.106,0.225,-24.414,-18.494,17.212
0.082,-1.105,0.221,-25.146,-6.287,18.616
0.079,-1.084,0.211,-26.001,4.700,19.043
0.081,-1.052,0.204,-25.696,15.808,19.836
0.084,-1.016,0.203,-24.109,26.733,21.118
0.104,-0.993,0.196,-22.888,35.645,22.156
0.128,-0.962,0.192,-20.996,41.931,23.071
0.152,-0.938,0.191,-18.921,46.082,24.231
0.171,-0.920,0.197,-17.578,47.546,24.719
0.189,-0.897,0.204,-16.846,46.387,24.719
0.199,-0.880,0.213,-16.541,43.518,24.536
0.208,-0.872,0.221,-16.907,39.307,24.414
0.209,-0.872,0.224,-17.334,33.936,23.987
0.203,-0.871,0.221,-18.250,28.259,23.621
0.198,-0.863,0.216,-19.897,22.705,23.071
0.202,-0.853,0.212,-21.423,17.151,22.461
0.199,-0.847,0.199,-23.132,11.719,21.667
0.190,-0.837,0.184,-25.024,7.446,21.118
0.186,-0.822,0.173,-26.367,3.967,20.264
0.182,-0.807,0.160,-27.405,1.221,19.104
0.176,-0.791,0.144,-27.771,-0.244,17.944
0.172,-0.775,0.129,-27.893,-0.549,16.785
0.172,-0.766,0.119,-27.893,0.122,15.991
0.175,-0.760,0.114,-27.771,1.465,15.686
0.181,-0.757,0.112,-27.466,2.625,15.381
0.185,-0.755,0.115,-26.733,3.601,15.320
0.199,-0.755,0.127,-25.574,4.211,15.564
0.224,-0.771,0.148,-23.315,3.479,15.503
0.247,-0.802,0.172,-20.142,0.916,15.320
0.260,-0.828,0.188,-16.907,-2.991,14.832
0.279,-0.845,0.207,-13.916,-8.057,13.062
0.297,-0.860,0.223,-10.986,-12.817,10.742
0.301,-0.879,0.229,-8.545,-17.334,8.972
0.297,-0.896,0.231,-7.996,-20.569,9.094
0.281,-0.905,0.236,-10.681,-21.301,12.024
0.261,-0.917,0.233,-15.137,-20.325,17.273
0.232,-0.933,0.222,-21.118,-17.151,23.621
0.203,-0.941,0.205,-27.161,-11.475,29.480
0.180,-0.943,0.191,-32.776,-3.662,34.119
0.172,-0.936,0.182,-37.903,6.104,37.354
0.171,-0.934,0.177,-42.480,16.968,39.001
0.174,-0.930,0.181,-45.105,27.893,38.635
0.181,-0.927,0.189,-46.326,37.537,36.682
0.194,-0.917,0.200,-46.387,45.593,33.508
0.213,-0.897,0.208,-45.166,51.147,29.419
0.234,-0.867,0.217,-42.969,54.077,24.658
0.254,-0.840,0.220,-40.405,54.810,19.836
0.275,-0.821,0.223,-37.292,53.040,15.320
0.293,-0.811,0.226,-33.142,49.072,11.169

0.349,-2.022,0.221,-48.279,-6.409,-75.073
0.312,-2.060,0.069,-52.185,-14.282,-73.181
0.370,-1.966,0.012,-54.871,-20.447,-66.101
0.387,-1.935,-0.005,-53.345,-25.940,-56.396
0.344,-1.886,0.074,-47.791,-39.063,-47.058
0.199,-1.792,0.050,-42.480,-51.147,-38.818
0.084,-1.647,0.086,-35.156,-59.021,-33.508
-0.072,-1.523,0.061,-29.663,-61.829,-23.071
-0.220,-1.396,0.128,-24.780,-60.242,-17.029
-0.335,-1.304,0.191,-21.057,-54.321,-13.000
-0.381,-1.213,0.223,-17.944,-44.189,-12.390
-0.360,-1.153,0.264,-14.160,-31.067,-12.451
-0.318,-1.132,0.284,-9.277,-19.165,-12.451
-0.262,-1.117,0.288,-2.502,-11.475,-11.963
-0.248,-1.142,0.254,3.845,-5.981,-10.071
-0.210,-1.144,0.215,9.216,-1.892,-9.155
-0.195,-1.155,0.187,13.794,0.977,-8.301
-0.178,-1.158,0.197,17.761,2.930,-8.118
-0.167,-1.128,0.217,20.752,4.822,-7.935
-0.181,-1.089,0.215,23.987,6.042,-6.958
-0.197,-1.053,0.217,27.893,7.812,-5.859
-0.222,-1.030,0.198,31.860,10.803,-4.578
-0.221,-1.031,0.185,35.950,14.099,-2.869
-0.235,-1.047,0.156,39.734,17.761,-0.977
-0.218,-1.112,0.148,42.847,21.240,1.770
-0.204,-1.168,0.127,45.288,23.926,5.798
-0.174,-1.270,0.119,46.265,26.733,9.033
-0.136,-1.329,0.091,47.058,28.198,12.573
-0.143,-1.350,0.054,48.584,29.358,15.381
-0.142,-1.389,0.034,51.697,29.968,17.090
-0.113,-1.386,0.052,53.223,32.043,16.846
-0.085,-1.400,0.123,52.185,35.828,16.602
-0.087,-1.413,0.200,48.828,41.321,16.418
-0.066,-1.416,0.263,44.800,47.729,16.174
-0.008,-1.439,0.307,41.504,51.147,17.395
0.078,-1.453,0.336,37.292,49.377,20.386
0.157,-1.495,0.359,32.898,40.222,26.367
0.207,-1.503,0.368,25.818,26.917,31.250
0.209,-1.474,0.374,14.404,14.099,34.119
0.172,-1.465,0.334,3.967,4.333,35.156
0.158,-1.449,0.278,-7.202,-0.244,34.119
0.150,-1.398,0.248,-20.020,-0.244,30.701
0.112,-1.355,0.228,-32.410,2.563,26.367
0.094,-1.304,0.220,-44.678,8.911,20.691
0.101,-1.245,0.206,-55.969,16.602,16.785
0.106,-1.184,0.191,-65.552,24.231,15.442
0.101,-1.124,0.180,-72.449,31.372,16.235
0.092,-1.067,0.169,-75.806,37.292,18.921
0.094,-1.029,0.160,-75.317,42.236,22.156
0.099,-0.996,0.156,-71.411,45.471,25.513
0.106,-0.964,0.160,-65.613,47.180,29.419
0.114,-0.933,0.160,-57.556,47.241,33.203
0.123,-0.912,0.160,-47.974,45.837,36.865
0.130,-0.896,0.156,-38.025,43.457,40.283
0.130,-0.885,0.150,-28.259,40.466,43.396
0.132,-0.875,0.142,-19.592,37.720,46.021
0.138,-0.856,0.134,-12.207,35.217,47.852
0.142,-0.834,0.128,-5.310,32.959,49.194
0.141,-0.808,0.123,0.488,31.738,49.866
0.138,-0.791,0.122,5.188,30.823,49.561
0.140,-0.787,0.124,9.583,30.579,48.584
0.139,-0.782,0.122,12.634,31.006,46.814
0.135,-0.779,0.117,13.672,31.677,44.617
0.135,-0.774,0.111,12.939,33.264,42.114
0.132,-0.763,0.104,10.681,35.095,39.490
0.130,-0.752,0.094,7.080,37.109,37.231
0.131,-0.742,0.082,2.930,39.124,35.278
0.140,-0.734,0.074,-2.258,41.748,34.241
0.153,-0.728,0.070,-6.714,43.823,33.569
0.158,-0.721,0.065,-11.292,45.776,32.776
0.157,-0.713,0.061,-15.808,46.936,32.227
0.158,-0.714,0.059,-20.203,47.852,31.799
0.154,-0.719,0.058,-23.071,48.462,31.189
0.147,-0.723,0.058,-26.184,49.011,30.701
0.143,-0.723,0.060,-28.320,49.500,30.090
0.143,-0.729,0.064,-29.602,49.805,29.114
0.150,-0.743,0.069,-29.968,49.805,27.466
0.155,-0.751,0.071,-29.297,49.561,24.780
0.151,-0.756,0.066,-27.771,49.194,21.667
0.155,-0.759,0.063,-25.696,49.072,18.799
0.172,-0.761,0.063,-22.949,48.645,16.357
0.188,-0.767,0.069,-19.531,48.279,13.794
0.202,-0.771,0.071,-15.442,47.729,11.047
0.217,-0.782,0.079,-11.536,46.997,7.812
0.238,-0.808,0.088,-7.141,46.204,4.272
0.254,-0.832,0.094,-3.601,45.532,0.977
0.263,-0.851,0.095,-0.793,44.739,-2.319
0.282,-0.871,0.099,1.526,44.312,-5.249
0.308,-0.893,0.105,3.235,44.250,-8.545
0.333,-0.900,0.111,4.944,44.067,-11.414
0.359,-0.895,0.115,5.859,43.701,-13.855
0.382,-0.887,0.115,6.348,43.274,-15.808
0.404,-0.880,0.115,6.531,42.786,-17.090
0.423,-0.876,0.117,6.531,42.419,-17.517
0.441,-0.869,0.118,6.592,41.870,-17.273
0.458,-0.862,0.121,6.409,41.016,-16.418
0.476,-0.860,0.127,6.409,39.978,-14.893
0.493,-0.869,0.134,6.592,38.513,-12.878
0.502,-0.885,0.143,7.263,36.255,-10.559
0.511,-0.898,0.153,8.484,33.691,-8.118
0.516,-0.898,0.159,9.399,30.762,-5.737
0.517,-0.897,0.164,10.498,27.588,-3.357
0.512,-0.902,0.164,10.498,24.597,-0.549
0.508,-0.906,0.161,10.132,21.545,2.686
0.501,-0.912,0.161,9.766,18.677,5.798
0.497,-0.922,0.166,8.972,16.663,8.484
0.486,-0.925,0.162,8.057,15.381,10.864
0.478,-0.921,0.159,7.141,14.404,12.878
0.472,-0.912,0.156,5.981,14.038,14.648
0.468,-0.901,0.153,4.761,13.855,16.541
0.463,-0.890,0.146,4.150,13.855,18.005
0.458,-0.891,0.147,3.845,14.038,19.043
0.455,-0.889,0.149,3.357,14.282,19.775
0.451,-0.883,0.151,3.418,14.282,19.714
0.449,-0.881,0.151,2.991,13.916,19.409
0.446,-0.876,0.151,2.869,13.123,18.311
0.447,-0.872,0.147,2.686,12.085,16.785
0.454,-0.875,0.148,2.869,10.742,15.320
0.457,-0.879,0.149,2.808,8.911,13.550

0.425,-0.961,1.738,-117.188,25.757,-13.916
0.130,-0.361,1.342,-138.306,-7.690,-39.185
0.046,-0.103,0.821,-135.132,-26.978,-44.800
0.105,0.006,0.050,-104.431,-50.659,-43.274
0.151,-0.113,-0.480,-62.439,-87.769,-45.349
0.135,-0.295,-0.729,-26.917,-125.000,-48.950
-0.006,-0.503,-0.794,-1.038,-140.381,-50.598
-0.158,-0.979,-0.627,18.616,-127.441,-54.199
-0.359,-1.739,0.062,30.457,-89.722,-63.538
-0.366,-2.438,1.026,13.733,-26.978,-79.224
0.232,-2.096,1.074,-31.921,38.208,-90.027
0.724,-1.793,0.363,-58.289,56.091,-82.642
0.660,-1.766,0.115,-57.861,29.480,-70.984
0.390,-1.641,-0.120,-46.631,-8.484,-63.660
0.157,-1.943,-0.033,-33.447,-25.879,-50.293
-0.150,-1.952,0.038,-35.400,-13.123,-49.072
-0.176,-1.944,-0.088,-47.180,6.714,-61.035
-0.097,-1.864,-0.215,-60.852,20.935,-62.927
0.049,-1.886,-0.042,-64.636,29.480,-61.646
0.211,-1.828,0.137,-60.974,29.358,-54.138
0.369,-1.825,0.189,-54.688,19.470,-43.518
0.392,-1.776,0.106,-47.180,7.935,-30.273
0.274,-1.733,0.041,-41.687,-0.122,-16.113
0.096,-1.629,0.003,-39.917,-7.690,-4.211
-0.020,-1.545,0.101,-38.635,-8.972,4.333
-0.083,-1.420,0.144,-35.400,-3.784,9.399
-0.058,-1.329,0.193,-29.053,4.700,11.536
0.004,-1.235,0.208,-20.264,10.925,12.268
0.035,-1.148,0.209,-11.414,14.282,11.658
0.070,-1.097,0.212,-4.761,16.479,12.085
0.098,-1.070,0.225,1.404,17.395,12.634
0.103,-1.046,0.215,6.592,16.846,12.756
0.097,-1.037,0.208,11.230,16.052,12.939
0.085,-1.044,0.201,15.808,14.648,12.451
0.081,-1.057,0.181,20.447,13.916,10.681
0.071,-1.093,0.178,25.085,14.709,8.911
0.051,-1.143,0.167,29.358,15.808,7.568
0.032,-1.188,0.135,32.654,17.822,6.836
0.028,-1.226,0.114,35.217,21.973,6.348
-0.003,-1.253,0.083,37.354,27.588,5.859
-0.041,-1.305,0.022,38.574,33.630,4.089
-0.044,-1.356,-0.005,38.940,42.297,1.526
-0.037,-1.391,0.013,36.133,52.795,-0.671
-0.036,-1.418,0.059,31.738,63.660,-2.686
-0.035,-1.432,0.098,26.184,73.303,-4.822
-0.013,-1.440,0.138,22.400,81.543,-6.042
0.023,-1.435,0.164,21.179,87.402,-5.981
0.068,-1.434,0.193,22.522,89.905,-5.493
0.126,-1.462,0.227,26.001,88.806,-4.272
0.188,-1.512,0.281,29.541,81.238,-3.296
0.235,-1.553,0.350,29.480,65.308,-3.296
0.220,-1.549,0.371,27.344,41.138,-2.686
0.189,-1.500,0.373,23.193,16.418,-3.540
0.171,-1.452,0.309,18.311,-3.296,-8.667
0.167,-1.408,0.252,11.353,-12.512,-13.672
0.152,-1.370,0.220,1.831,-12.695,-16.357
0.136,-1.330,0.187,-9.033,-7.935,-18.494
0.119,-1.259,0.157,-20.020,-0.671,-20.447
0.126,-1.180,0.140,-29.907,8.301,-21.362
0.153,-1.099,0.127,-36.865,17.212,-21.606
0.180,-1.033,0.112,-40.344,24.536,-20.447
0.200,-0.989,0.101,-40.466,30.701,-17.273
0.216,-0.944,0.097,-37.537,35.156,-12.695
0.225,-0.901,0.095,-31.921,38.269,-7.263
0.235,-0.868,0.095,-25.085,39.917,-1.343
0.238,-0.842,0.095,-16.846,40.649,4.883
0.236,-0.823,0.093,-8.850,40.955,11.719
0.234,-0.798,0.093,-1.770,41.138,18.372
0.230,-0.782,0.096,4.578,41.077,24.841
0.224,-0.775,0.100,9.827,40.649,31.067
0.218,-0.774,0.104,13.916,40.283,37.109
0.214,-0.768,0.107,16.907,39.307,42.358
0.214,-0.760,0.113,18.555,38.025,46.814
0.220,-0.756,0.121,20.142,36.804,50.598
0.225,-0.757,0.126,21.301,34.668,53.223
0.227,-0.753,0.130,21.484,32.166,55.298
0.230,-0.746,0.131,20.447,29.175,56.824
0.232,-0.740,0.131,18.311,26.062,57.373
0.227,-0.745,0.125,15.503,22.766,57.434
0.222,-0.743,0.115,12.146,20.020,57.800
0.219,-0.729,0.100,7.996,17.944,57.861
0.215,-0.725,0.094,2.930,16.418,57.983
0.213,-0.739,0.085,-2.625,15.564,57.617
0.203,-0.757,0.075,-8.179,15.381,56.458
0.190,-0.760,0.066,-14.099,16.174,54.626
0.187,-0.758,0.065,-19.836,17.700,52.124
0.196,-0.767,0.066,-25.024,19.287,49.011
0.211,-0.786,0.069,-29.236,20.630,45.471
0.216,-0.801,0.068,-32.288,21.851,41.504
0.220,-0.806,0.057,-34.363,22.827,38.208
0.232,-0.799,0.050,-35.461,23.193,35.889
0.248,-0.809,0.046,-35.156,22.766,34.546
0.244,-0.834,0.040,-33.813,22.339,33.997
0.225,-0.852,0.030,-32.776,22.888,33.997
0.217,-0.852,0.021,-32.654,25.452,33.569
0.209,-0.861,0.008,-33.325,29.907,32.715
0.204,-0.883,0.004,-33.997,36.926,31.067
0.206,-0.901,0.001,-34.485,46.692,27.954
0.220,-0.905,0.003,-34.729,57.800,24.109
0.256,-0.907,0.006,-34.790,68.298,19.958
0.309,-0.898,0.011,-33.264,75.806,16.052
0.365,-0.889,0.023,-30.457,79.224,12.085
0.414,-0.879,0.039,-26.306,78.613,8.484
0.453,-0.861,0.054,-21.484,74.707,5.676
0.483,-0.834,0.068,-16.052,68.481,3.906
0.501,-0.815,0.076,-10.864,60.608,2.869
0.514,-0.803,0.080,-5.859,52.368,2.563
0.522,-0.796,0.077,-1.648,44.312,2.319
0.525,-0.785,0.073,1.465,36.804,2.441
0.520,-0.779,0.071,3.967,29.419,2.991
0.518,-0.784,0.073,6.226,22.827,4.150
0.515,-0.791,0.075,7.629,17.090,5.615
0.511,-0.797,0.078,8.728,11.292,7.202
0.504,-0.795,0.082,9.827,5.981,8.667
0.497,-0.799,0.085,10.193,1.221,9.949
0.491,-0.814,0.090,10.437,-2.991,11.047
0.482,-0.834,0.090,10.864,-7.019,11.902
0.471,-0.850,0.090,10.925,-10.254,12.390
0.463,-0.853,0.089,10.986,-13.062,12.817

0.812,-2.029,0.240,-21.057,72.021,-90.332
0.841,-2.075,0.076,-23.560,65.735,-88.135
0.900,-2.206,-0.004,-25.208,53.467,-78.064
0.875,-2.015,0.001,-32.715,28.564,-67.993
0.632,-2.155,0.061,-38.391,2.808,-54.077
0.396,-2.049,0.014,-45.898,-17.395,-46.936
0.244,-1.938,0.049,-50.232,-26.245,-35.706
0.170,-1.944,0.135,-45.227,-26.550,-25.574
0.225,-1.897,0.166,-40.100,-27.161,-15.198
0.164,-1.764,0.099,-35.400,-31.128,-6.592
0.156,-1.671,0.114,-28.503,-31.738,-1.282
0.070,-1.591,0.078,-22.827,-30.640,4.150
-0.139,-1.486,0.019,-19.958,-26.794,9.277
-0.291,-1.388,0.025,-18.372,-16.113,16.602
-0.339,-1.314,0.055,-15.808,0.549,21.179
-0.297,-1.275,0.067,-12.207,19.470,22.095
-0.186,-1.268,0.097,-9.094,37.598,21.118
0.008,-1.280,0.123,-7.507,52.307,20.081
0.203,-1.291,0.127,-5.981,59.998,18.738
0.349,-1.313,0.151,-3.906,58.167,15.747
0.447,-1.310,0.156,-1.465,49.316,11.292
0.486,-1.291,0.178,1.099,37.231,5.920
0.502,-1.273,0.227,3.723,24.780,0.610
0.479,-1.238,0.233,6.104,11.353,-3.845
0.414,-1.211,0.212,8.972,-1.404,-7.385
0.306,-1.213,0.170,11.902,-12.024,-9.338
0.171,-1.226,0.135,14.343,-20.264,-9.399
0.044,-1.246,0.094,16.907,-24.414,-8.240
-0.097,-1.283,0.061,20.020,-23.560,-6.958
-0.170,-1.338,0.051,20.020,-17.334,-6.042
-0.217,-1.380,0.057,18.005,-6.226,-5.798
-0.254,-1.410,0.107,14.465,9.827,-6.592
-0.244,-1.411,0.149,10.071,30.273,-8.423
-0.190,-1.402,0.177,6.592,48.401,-9.460
-0.094,-1.378,0.206,4.883,62.683,-10.071
0.010,-1.385,0.228,6.226,69.824,-9.033
0.078,-1.425,0.224,9.644,69.885,-7.202
0.110,-1.449,0.226,13.367,65.002,-5.005
0.152,-1.438,0.220,15.808,55.664,-1.892
0.206,-1.400,0.239,15.625,45.288,-1.709
0.238,-1.404,0.279,12.329,38.147,-4.639
0.209,-1.399,0.268,9.094,29.968,-5.981
0.186,-1.360,0.250,4.333,24.780,-8.362
0.195,-1.348,0.220,-1.404,23.804,-11.597
0.196,-1.329,0.188,-7.080,25.879,-15.076
0.191,-1.255,0.203,-14.038,28.564,-17.090
0.197,-1.198,0.218,-20.569,31.006,-15.869
0.187,-1.155,0.212,-25.269,32.227,-13.245
0.164,-1.114,0.208,-29.053,34.546,-9.033
0.146,-1.070,0.200,-31.616,38.208,-4.700
0.136,-1.024,0.192,-32.654,42.236,-0.366
0.138,-0.973,0.187,-31.555,45.898,4.150
0.148,-0.923,0.182,-29.236,48.706,8.484
0.159,-0.876,0.179,-25.391,50.842,11.902
0.171,-0.837,0.175,-20.447,52.185,14.526
0.177,-0.802,0.166,-14.832,52.551,16.785
0.175,-0.771,0.153,-9.460,52.612,18.494
0.170,-0.745,0.135,-3.662,52.917,20.020
0.168,-0.721,0.115,1.465,53.772,21.423
0.167,-0.691,0.100,5.676,55.176,22.827
0.167,-0.663,0.087,9.827,57.007,24.109
0.172,-0.643,0.081,13.733,59.082,25.513
0.184,-0.634,0.085,16.968,60.974,26.978
0.196,-0.627,0.090,20.081,61.646,28.564
0.205,-0.621,0.097,21.484,61.218,30.029
0.211,-0.610,0.104,22.034,59.875,31.433
0.217,-0.596,0.107,21.423,57.373,32.471
0.223,-0.581,0.103,20.020,54.199,33.447
0.230,-0.576,0.100,18.127,50.598,34.302
0.241,-0.576,0.104,16.296,46.631,34.363
0.249,-0.582,0.105,13.733,42.664,33.752
0.245,-0.586,0.104,10.559,38.147,32.776
0.238,-0.591,0.099,7.141,33.508,31.677
0.231,-0.599,0.095,3.723,28.809,30.640
0.225,-0.607,0.091,0.366,24.109,30.029
0.220,-0.612,0.088,-2.563,19.287,29.480
0.216,-0.611,0.086,-5.432,14.832,28.564
0.209,-0.619,0.082,-7.751,10.254,27.405
0.204,-0.642,0.078,-9.521,6.165,25.818
0.205,-0.678,0.075,-10.559,2.380,23.499
0.206,-0.710,0.074,-11.108,-0.610,20.325
0.204,-0.738,0.075,-11.414,-3.235,16.174
0.206,-0.765,0.077,-11.108,-5.188,11.414
0.216,-0.794,0.081,-10.559,-6.592,6.104
0.229,-0.827,0.087,-9.827,-8.118,1.221
0.241,-0.856,0.096,-8.545,-9.521,-3.357
0.260,-0.877,0.104,-6.836,-10.925,-8.057
0.279,-0.895,0.112,-5.249,-12.329,-12.878
0.299,-0.910,0.116,-3.235,-13.794,-16.846
0.323,-0.921,0.123,-0.610,-15.381,-19.226
0.351,-0.929,0.127,1.770,-17.151,-19.653
0.386,-0.933,0.130,4.395,-19.958,-18.372
0.413,-0.938,0.132,7.874,-22.766,-15.808
0.431,-0.950,0.140,11.658,-24.231,-12.939
0.443,-0.963,0.147,15.076,-24.597,-10.071
0.448,-0.978,0.149,18.494,-24.048,-7.751
0.442,-0.987,0.148,20.691,-22.827,-5.737
0.434,-0.997,0.148,21.606,-21.484,-3.723
0.426,-1.010,0.148,21.362,-19.104,-1.953
0.419,-1.020,0.147,19.714,-16.113,0.916
0.405,-1.020,0.141,17.273,-12.573,3.967
0.393,-1.021,0.137,13.672,-8.545,6.958
0.380,-1.022,0.134,9.644,-4.395,10.376
0.367,-1.023,0.129,4.822,0.061,13.672
0.353,-1.017,0.123,0.305,4.639,16.602
0.345,-1.015,0.122,-4.456,9.399,18.799
0.340,-1.011,0.124,-8.484,13.794,20.386
0.337,-1.004,0.127,-11.780,17.090,21.057
0.335,-0.996,0.129,-14.221,18.982,21.179
0.341,-0.990,0.131,-16.113,19.592,20.874
0.344,-0.979,0.130,-16.785,18.677,20.081
0.349,-0.968,0.130,-16.785,16.785,19.409
0.355,-0.954,0.132,-16.052,14.160,18.494
0.357,-0.943,0.130,-14.343,10.803,17.273
0.356,-0.935,0.126,-12.573,7.446,15.991
0.354,-0.924,0.121,-10.254,4.028,14.709
0.351,-0.915,0.119,-7.324,0.671,13.794
0.351,-0.910,0.116,-4.395,-1.892,13.367
0.351,-0.911,0.115,-1.709,-4.150,12.939

-0.704,-1.414,1.654,-77.393,-29.297,-39.673
0.029,-0.571,1.436,-101.624,46.875,-31.433
0.156,-0.402,1.044,-73.730,58.716,-16.357
-0.284,-0.594,0.818,-41.382,61.707,-22.095
-0.328,-0.783,0.458,-22.949,69.885,-9.766
-0.096,-0.758,0.019,-20.935,75.317,0.244
0.118,-0.889,-0.250,-20.325,75.500,-2.563
0.326,-1.364,-0.308,-13.977,69.092,-5.493
0.416,-1.721,-0.221,-6.775,65.491,-18.066
0.547,-2.099,-0.008,2.808,75.134,-29.053
0.862,-2.375,0.056,4.578,90.576,-37.354
1.098,-2.277,0.083,-8.606,95.764,-48.340
1.142,-2.048,-0.021,-27.771,81.543,-56.152
1.187,-1.929,-0.068,-29.602,52.734,-48.157
1.188,-2.002,0.037,-21.545,22.827,-38.574
0.957,-1.899,-0.055,-10.193,-10.132,-34.912
0.703,-1.935,-0.105,-10.864,-34.668,-25.879
0.526,-1.960,-0.240,-13.306,-47.302,-14.160
0.412,-1.881,-0.180,-18.005,-54.016,-6.104
0.320,-1.779,-0.019,-19.714,-56.885,-2.258
0.221,-1.673,-0.012,-17.334,-57.617,0.793
0.071,-1.617,-0.092,-12.878,-54.321,3.845
-0.030,-1.590,-0.072,-7.996,-44.128,5.249
-0.085,-1.549,-0.023,-5.066,-31.677,5.920
-0.108,-1.513,-0.007,-2.808,-18.066,6.470
-0.092,-1.469,-0.018,-0.488,-3.967,6.287
-0.048,-1.404,0.010,-0.366,9.460,5.432
-0.003,-1.383,0.024,-2.441,21.484,4.822
0.053,-1.349,0.053,-2.991,31.006,3.662
0.113,-1.325,0.093,-1.892,37.964,1.526
0.175,-1.303,0.096,0.061,42.114,-1.526
0.220,-1.315,0.071,2.625,43.274,-5.371
0.257,-1.367,0.075,3.113,42.969,-10.742
0.266,-1.398,0.101,0.916,44.922,-16.479
0.277,-1.427,0.110,-3.662,48.340,-21.179
0.295,-1.468,0.125,-8.484,51.025,-24.353
0.323,-1.488,0.183,-15.137,52.063,-26.184
0.342,-1.501,0.223,-21.912,49.683,-27.466
0.328,-1.464,0.244,-28.809,42.847,-27.222
0.303,-1.427,0.246,-32.471,33.752,-25.879
0.259,-1.414,0.219,-31.494,24.841,-23.254
0.214,-1.381,0.206,-26.550,17.456,-19.409
0.225,-1.350,0.234,-19.897,12.329,-12.878
0.244,-1.358,0.232,-12.390,6.287,-5.127
0.221,-1.307,0.240,-6.531,-0.244,1.221
0.198,-1.254,0.275,-3.113,-4.700,8.057
0.170,-1.247,0.276,0.671,-8.606,13.306
0.138,-1.267,0.239,2.563,-9.766,15.930
0.109,-1.264,0.183,2.258,-7.507,16.968
0.086,-1.241,0.133,-0.610,-0.305,16.602
0.072,-1.215,0.078,-3.357,9.705,14.893
0.076,-1.190,0.024,-5.920,21.179,11.780
0.087,-1.151,-0.002,-8.362,33.875,8.301
0.109,-1.128,-0.010,-10.559,47.180,5.432
0.141,-1.088,-0.000,-12.817,58.899,1.770
0.175,-1.036,0.025,-15.442,67.749,-2.014
0.208,-0.990,0.041,-16.968,72.693,-4.944
0.237,-0.939,0.059,-18.127,74.524,-7.690
0.262,-0.891,0.079,-18.494,73.486,-9.705
0.284,-0.841,0.088,-18.311,69.031,-10.925
0.302,-0.788,0.093,-16.785,62.561,-11.047
0.317,-0.734,0.094,-14.587,54.504,-10.193
0.326,-0.687,0.093,-10.803,45.227,-8.545
0.329,-0.647,0.095,-6.104,35.767,-6.714
0.325,-0.614,0.100,-1.099,26.489,-4.883
0.317,-0.588,0.101,4.333,17.334,-3.357
0.310,-0.577,0.100,10.071,8.850,-2.075
0.305,-0.582,0.099,15.503,1.343,-0.366
0.293,-0.599,0.101,19.775,-5.066,1.160
0.275,-0.608,0.104,23.071,-10.376,2.991
0.257,-0.592,0.107,24.963,-14.221,4.272
0.246,-0.571,0.108,26.428,-16.785,5.188
0.236,-0.557,0.104,27.283,-18.372,6.104
0.227,-0.548,0.098,27.527,-18.616,7.324
0.222,-0.544,0.091,27.527,-18.127,8.667
0.219,-0.536,0.088,26.794,-16.907,9.949
0.214,-0.528,0.088,26.001,-15.442,11.230
0.207,-0.536,0.088,25.696,-14.099,12.634
0.198,-0.554,0.082,25.452,-12.329,14.038
0.189,-0.570,0.078,24.719,-10.437,15.320
0.178,-0.583,0.074,23.621,-8.362,16.663
0.169,-0.598,0.072,22.217,-6.104,17.517
0.156,-0.621,0.069,20.874,-3.296,17.822
0.142,-0.647,0.066,19.287,-0.305,17.578
0.129,-0.673,0.061,17.212,3.113,16.663
0.118,-0.701,0.058,14.771,7.202,14.954
0.112,-0.738,0.055,12.390,11.108,12.695
0.110,-0.781,0.053,10.071,15.015,9.521
0.108,-0.825,0.054,7.629,18.616,5.249
0.103,-0.861,0.051,6.470,22.278,0.122
0.102,-0.900,0.047,5.432,26.611,-5.127
0.101,-0.943,0.040,5.859,32.166,-12.634
0.108,-0.989,0.031,6.653,40.161,-21.912
0.137,-1.031,0.022,6.958,51.208,-31.311
0.181,-1.074,0.014,7.629,64.575,-39.734
0.226,-1.091,0.010,7.446,78.674,-47.058
0.291,-1.094,0.014,5.554,91.736,-51.758
0.373,-1.093,0.019,2.502,102.112,-52.795
0.454,-1.089,0.028,-1.648,108.765,-50.476
0.517,-1.080,0.038,-6.287,110.291,-45.837
0.560,-1.060,0.043,-10.620,107.239,-39.673
0.593,-1.045,0.044,-13.367,101.318,-32.104
0.609,-1.028,0.037,-16.174,93.689,-23.376
0.611,-1.009,0.034,-18.372,84.534,-14.832
0.598,-0.998,0.029,-19.775,75.195,-6.470
0.571,-0.989,0.016,-21.240,66.406,0.732
0.544,-0.987,0.005,-22.217,58.655,7.080
0.516,-0.991,-0.000,-22.888,51.880,12.573
0.483,-0.980,-0.014,-23.499,46.021,16.968
0.459,-0.978,-0.016,-23.560,41.077,20.508
0.439,-0.976,-0.024,-23.376,36.316,23.376
0.417,-0.975,-0.028,-22.461,32.288,25.757
0.398,-0.972,-0.026,-20.996,28.076,27.222
0.385,-0.976,-0.024,-19.043,24.475,28.137
0.370,-0.978,-0.021,-16.663,20.813,28.442
0.358,-0.977,-0.016,-13.916,17.334,27.954
0.348,-0.976,-0.012,-10.925,13.916,26.611
0.338,-0.975,-0.007,-7.629,10.620,24.475
0.332,-0.974,-0.003,-3.601,8.057,21.912

-0.777,-0.964,1.618,-236.328,-79.041,-48.767
-0.651,0.028,0.964,-248.413,-25.085,-62.988
-0.451,0.467,0.833,-183.899,-23.987,-66.833
-0.212,0.078,0.392,-95.337,-42.542,-67.200
-0.231,-0.297,-0.075,-29.236,-47.180,-50.720
-0.191,-0.576,-0.213,-4.700,-20.752,-24.048
-0.030,-0.897,-0.087,0.977,12.939,-7.019
0.194,-1.036,0.152,-0.183,34.668,-9.521
0.318,-1.260,0.073,-5.676,27.588,-19.958
0.312,-1.544,-0.057,-10.864,13.916,-30.945
0.211,-1.802,0.079,-21.484,18.982,-34.546
0.108,-1.909,0.105,-33.569,31.616,-39.551
0.123,-1.855,0.170,-43.457,42.480,-50.171
0.207,-1.824,0.240,-46.448,48.767,-53.467
0.182,-1.828,0.056,-42.542,51.331,-62.195
0.206,-1.805,-0.089,-31.433,52.612,-69.214
0.322,-1.730,-0.142,-21.851,54.016,-62.561
0.475,-1.698,-0.105,-15.259,53.894,-43.274
0.554,-1.863,-0.003,-12.756,41.382,-25.635
0.484,-1.944,-0.016,-11.230,16.602,-21.057
0.405,-1.828,-0.040,-12.817,-4.578,-15.259
0.350,-1.771,-0.038,-15.015,-9.460,-1.526
0.293,-1.766,-0.037,-13.062,-2.991,10.742
0.251,-1.725,-0.074,-9.521,2.930,16.846
0.190,-1.658,-0.083,-5.676,3.357,18.799
0.146,-1.584,-0.048,-2.502,1.648,19.409
0.085,-1.538,-0.006,1.221,2.136,19.531
0.045,-1.515,0.059,4.028,7.141,18.372
0.010,-1.458,0.109,4.700,13.062,16.663
-0.003,-1.409,0.133,5.066,17.883,15.076
-0.015,-1.383,0.127,6.531,21.606,13.733
-0.014,-1.400,0.085,10.010,25.574,12.207
0.004,-1.414,0.028,12.939,30.457,9.827
0.053,-1.381,0.015,15.320,36.316,7.019
0.092,-1.392,0.017,16.541,41.016,5.127
0.098,-1.404,0.018,16.968,46.021,1.282
0.091,-1.399,0.016,16.235,54.016,-2.686
0.114,-1.411,0.038,15.259,64.758,-5.493
0.170,-1.429,0.049,11.658,76.477,-6.409
0.218,-1.442,0.088,6.104,86.548,-6.165
0.242,-1.465,0.145,-1.465,92.957,-5.371
0.273,-1.476,0.198,-10.132,95.642,-4.883
0.300,-1.476,0.245,-16.663,94.360,-3.662
0.312,-1.465,0.253,-21.606,89.050,-2.625
0.326,-1.480,0.260,-24.231,80.811,-0.244
0.318,-1.500,0.232,-22.888,70.129,1.770
0.313,-1.493,0.211,-19.653,58.533,2.808
0.286,-1.454,0.199,-14.404,46.021,4.211
0.276,-1.386,0.225,-9.155,35.278,5.249
0.315,-1.339,0.225,-2.197,25.696,4.944
0.350,-1.298,0.216,4.883,17.151,3.174
0.317,-1.231,0.234,8.850,10.864,0.488
0.253,-1.195,0.228,11.353,5.493,-1.282
0.220,-1.194,0.202,11.047,0.427,-3.052
0.220,-1.173,0.161,7.446,-4.272,-5.188
0.228,-1.110,0.116,2.686,-7.141,-6.897
0.233,-1.046,0.081,-1.648,-7.324,-6.958
0.227,-1.010,0.056,-3.113,-5.981,-6.714
0.212,-0.995,0.043,-2.930,-4.150,-6.836
0.213,-0.971,0.029,-2.319,-2.808,-7.263
0.225,-0.952,0.016,-0.793,-1.465,-7.141
0.230,-0.931,0.006,0.916,-0.488,-6.958
0.229,-0.907,0.004,2.747,0.732,-6.775
0.237,-0.891,0.014,4.517,1.587,-6.470
0.245,-0.854,0.030,5.981,2.136,-6.348
0.261,-0.822,0.057,7.935,2.197,-6.165
0.277,-0.801,0.077,10.498,0.366,-5.737
0.286,-0.780,0.091,13.000,-2.502,-5.066
0.288,-0.760,0.107,15.381,-5.798,-4.333
0.284,-0.743,0.112,18.127,-9.277,-3.540
0.279,-0.729,0.115,20.569,-12.573,-2.563
0.273,-0.712,0.115,22.888,-15.747,0.000
0.267,-0.701,0.110,24.963,-18.616,2.808
0.261,-0.704,0.099,25.513,-20.874,6.287
0.252,-0.699,0.087,24.719,-22.034,9.460
0.239,-0.686,0.076,22.949,-22.217,12.390
0.225,-0.672,0.066,20.447,-21.179,15.076
0.213,-0.669,0.057,17.090,-19.226,17.517
0.199,-0.666,0.049,13.916,-16.357,19.775
0.189,-0.656,0.043,9.399,-12.573,21.851
0.184,-0.653,0.043,5.371,-8.118,23.560
0.183,-0.658,0.046,2.014,-4.028,25.024
0.186,-0.652,0.049,-0.916,0.244,26.245
0.192,-0.648,0.052,-3.784,4.028,26.978
0.191,-0.671,0.051,-5.615,7.324,26.978
0.190,-0.692,0.047,-8.179,10.498,26.794
0.193,-0.688,0.047,-10.620,13.916,26.306
0.203,-0.676,0.048,-12.390,16.663,25.452
0.214,-0.672,0.045,-13.428,18.799,24.414
0.221,-0.686,0.040,-14.221,20.447,23.132
0.229,-0.700,0.031,-14.771,21.484,21.912
0.240,-0.710,0.026,-15.442,22.156,20.935
0.250,-0.729,0.027,-15.503,22.522,19.836
0.254,-0.765,0.024,-14.954,22.217,18.433
0.248,-0.791,0.021,-14.099,22.217,16.907
0.249,-0.806,0.019,-13.062,22.217,15.442
0.257,-0.828,0.016,-12.207,22.278,13.916
0.254,-0.853,0.010,-11.169,22.827,11.963
0.251,-0.882,0.004,-9.949,23.621,9.644
0.257,-0.910,-0.002,-9.216,24.536,7.629
0.271,-0.939,-0.006,-8.301,25.574,5.188
0.288,-0.969,-0.002,-7.263,26.245,2.075
0.304,-0.992,-0.000,-6.653,26.978,-2.014
0.325,-1.001,0.005,-5.798,27.954,-5.798
0.353,-1.004,0.010,-4.578,28.687,-10.193
0.379,-1.009,0.015,-2.930,28.687,-14.221
0.397,-1.002,0.020,-1.099,28.076,-17.639
0.417,-0.993,0.021,0.671,27.039,-20.325
0.437,-0.983,0.020,2.136,26.062,-21.667
0.457,-0.975,0.020,3.784,24.719,-21.667
0.468,-0.962,0.025,4.822,23.254,-20.142
0.472,-0.954,0.028,5.493,21.179,-17.151
0.474,-0.957,0.027,5.859,18.433,-13.123
0.467,-0.955,0.029,6.104,15.076,-8.728
0.455,-0.949,0.031,5.371,12.024,-4.089
0.438,-0.944,0.031,4.456,8.850,0.305
0.425,-0.946,0.027,3.967,5.981,4.944
0.408,-0.953,0.026,3.113,3.601,9.033
0.391,-0.954,0.029,2.563,1.709,12.634

0.502,-1.772,-0.313,-26.855,80.322,15.381
0.531,-1.870,-0.283,-23.865,70.435,12.024
0.584,-1.765,-0.366,-21.545,76.294,14.709
0.611,-1.720,-0.458,-19.836,84.473,20.569
0.674,-1.792,-0.405,-17.944,83.435,24.353
0.669,-1.714,-0.380,-18.738,67.261,26.794
0.601,-1.622,-0.376,-20.203,49.805,32.166
0.537,-1.591,-0.350,-19.043,39.978,38.330
0.498,-1.581,-0.349,-16.418,34.973,43.091
0.472,-1.571,-0.341,-13.672,33.142,43.884
0.442,-1.579,-0.355,-12.695,30.518,40.649
0.434,-1.540,-0.393,-13.123,27.222,36.499
0.434,-1.497,-0.367,-12.756,24.841,33.813
0.442,-1.470,-0.327,-11.780,25.330,31.494
0.462,-1.475,-0.245,-9.155,24.719,28.442
0.476,-1.434,-0.223,-6.653,23.254,25.208
0.463,-1.402,-0.209,-4.639,22.400,20.935
0.458,-1.352,-0.180,-3.296,22.278,15.381
0.409,-1.308,-0.182,-3.540,21.362,7.019
0.406,-1.306,-0.174,-3.967,21.729,0.244
0.430,-1.304,-0.159,-4.761,22.339,-3.906
0.449,-1.295,-0.152,-5.371,20.874,-8.057
0.452,-1.293,-0.149,-5.127,16.724,-13.184
0.455,-1.326,-0.155,-3.784,12.573,-18.677
0.467,-1.381,-0.172,-2.502,9.888,-24.719
0.499,-1.442,-0.207,-2.502,8.057,-30.334
0.511,-1.503,-0.204,-5.127,5.432,-35.583
0.514,-1.548,-0.182,-12.268,0.244,-41.504
0.512,-1.555,-0.129,-22.217,-5.676,-48.828
0.505,-1.543,-0.095,-31.372,-13.062,-57.312
0.536,-1.504,-0.056,-38.330,-21.912,-64.331
0.607,-1.458,-0.011,-42.725,-34.180,-67.627
0.658,-1.433,0.019,-41.626,-52.002,-65.002
0.643,-1.426,0.008,-36.743,-75.134,-57.861
0.596,-1.381,0.021,-33.630,-98.999,-50.598
0.551,-1.330,0.027,-31.677,-119.629,-45.410
0.510,-1.299,0.025,-29.053,-134.277,-41.931
0.472,-1.262,0.027,-26.611,-143.677,-39.673
0.431,-1.210,0.032,-25.085,-148.804,-38.208
0.390,-1.158,0.037,-24.597,-149.719,-36.987
0.354,-1.117,0.035,-24.902,-148.010,-35.095
0.325,-1.073,0.025,-25.818,-143.677,-32.166
0.299,-1.024,0.012,-27.588,-136.780,-28.015
0.270,-0.971,-0.001,-29.419,-127.869,-23.254
0.242,-0.914,-0.012,-30.273,-116.821,-17.212
0.226,-0.864,-0.022,-30.212,-104.980,-10.620
0.211,-0.825,-0.032,-28.442,-92.346,-4.211
0.193,-0.792,-0.036,-25.696,-78.857,1.892
0.180,-0.769,-0.038,-22.522,-64.575,7.874
0.166,-0.739,-0.038,-19.409,-50.232,12.878
0.158,-0.722,-0.044,-15.564,-36.133,17.517
0.153,-0.716,-0.046,-12.268,-22.278,20.874
0.149,-0.703,-0.044,-9.216,-9.033,23.376
0.154,-0.707,-0.040,-6.409,2.808,25.452
0.164,-0.703,-0.032,-4.333,13.611,26.672
0.179,-0.691,-0.026,-2.136,22.217,27.893
0.194,-0.671,-0.020,-0.366,28.503,28.564
0.205,-0.659,-0.010,1.892,32.593,29.236
0.217,-0.661,-0.002,3.967,34.851,29.480
0.225,-0.665,0.004,6.348,35.583,29.541
0.230,-0.663,0.008,7.812,35.034,29.602
0.235,-0.651,0.014,8.911,33.264,29.602
0.242,-0.647,0.018,9.766,30.823,29.846
0.247,-0.654,0.022,10.620,27.710,30.090
0.242,-0.664,0.023,10.864,24.048,30.029
0.233,-0.673,0.021,10.498,20.874,29.968
0.224,-0.674,0.016,9.827,17.456,30.151
0.217,-0.672,0.012,8.362,14.587,30.212
0.215,-0.679,0.004,7.141,12.329,30.457
0.214,-0.685,0.000,6.104,10.315,30.823
0.207,-0.691,-0.001,4.883,8.972,30.518
0.205,-0.717,-0.003,3.052,7.996,29.663
0.200,-0.753,-0.009,1.160,7.751,28.259
0.194,-0.774,-0.013,-0.854,7.751,26.306
0.197,-0.786,-0.014,-2.930,8.301,23.987
0.201,-0.806,-0.015,-4.517,8.667,21.240
0.205,-0.832,-0.016,-5.493,9.094,18.127
0.206,-0.853,-0.020,-6.775,9.827,14.648
0.216,-0.861,-0.026,-7.874,10.925,11.108
0.235,-0.864,-0.032,-8.362,11.841,7.996
0.258,-0.871,-0.035,-8.118,12.390,5.310
0.279,-0.887,-0.037,-7.080,13.000,2.930
0.297,-0.897,-0.039,-5.798,13.062,0.366
0.316,-0.903,-0.039,-4.639,13.245,-2.136
0.337,-0.910,-0.039,-2.686,13.000,-3.906
0.354,-0.911,-0.039,-0.732,12.268,-5.554
0.366,-0.906,-0.045,1.343,11.536,-6.775
0.376,-0.902,-0.053,3.967,10.925,-6.958
0.392,-0.891,-0.059,7.263,10.681,-5.432
0.417,-0.878,-0.059,10.803,10.681,-2.991
0.431,-0.874,-0.056,14.465,10.559,-0.061
0.433,-0.881,-0.052,17.944,10.803,3.296
0.430,-0.899,-0.048,20.874,11.475,6.104
0.430,-0.915,-0.045,22.766,13.000,7.751
0.435,-0.925,-0.038,24.109,15.137,8.606
0.444,-0.928,-0.035,24.658,17.090,9.277
0.452,-0.927,-0.033,25.146,18.005,9.460
0.462,-0.927,-0.032,25.208,18.066,9.644
0.472,-0.935,-0.027,25.024,17.883,10.193
0.477,-0.941,-0.025,24.902,16.602,10.681
0.484,-0.941,-0.023,24.475,14.343,10.681
0.487,-0.940,-0.018,23.560,11.536,10.742
0.490,-0.951,-0.016,22.766,7.751,11.047
0.485,-0.965,-0.023,21.606,3.235,11.047
0.476,-0.967,-0.028,20.508,-0.916,10.986
0.469,-0.963,-0.027,19.287,-5.066,11.108
0.459,-0.962,-0.033,18.921,-8.911,11.108
0.454,-0.962,-0.035,18.188,-11.902,10.742
0.446,-0.957,-0.036,17.883,-14.587,10.071
0.440,-0.948,-0.038,17.517,-16.296,9.338
0.436,-0.947,-0.041,17.212,-17.273,8.362
0.434,-0.942,-0.041,16.663,-18.311,7.385
0.434,-0.935,-0.038,16.235,-18.494,6.470
0.440,-0.932,-0.037,15.625,-18.616,5.615
0.443,-0.932,-0.035,15.259,-19.104,4.639
0.450,-0.930,-0.037,14.771,-19.653,3.235
0.455,-0.921,-0.034,14.160,-20.508,2.197
0.456,-0.911,-0.035,14.282,-22.217,1.587
0.456,-0.904,-0.035,14.282,-23.865,1.648

0.541,-2.295,-0.114,-40.955,92.102,-39.551
0.720,-2.277,-0.177,-33.569,75.806,-53.589
0.763,-2.145,-0.263,-27.710,52.673,-56.458
0.753,-1.967,-0.224,-24.536,32.837,-46.021
0.679,-1.831,-0.224,-19.592,14.893,-33.936
0.587,-1.763,-0.179,-9.888,0.305,-23.743
0.506,-1.700,-0.079,-2.502,-9.460,-10.559
0.393,-1.667,-0.007,1.465,-17.517,0.671
0.295,-1.677,0.026,3.479,-21.362,8.118
0.227,-1.686,0.037,3.418,-22.278,11.230
0.134,-1.707,-0.013,2.747,-22.888,9.949
0.082,-1.696,-0.037,2.808,-20.630,6.775
0.029,-1.665,-0.035,1.709,-16.296,5.798
-0.001,-1.657,-0.032,2.319,-10.559,5.676
0.002,-1.670,-0.035,5.798,-6.714,5.188
0.002,-1.669,-0.031,7.202,-4.517,3.601
0.008,-1.673,0.018,3.479,-2.014,1.343
-0.002,-1.687,0.047,-1.770,0.671,-1.831
-0.014,-1.697,0.089,-7.751,5.981,-4.395
-0.000,-1.725,0.152,-13.794,13.123,-8.118
0.056,-1.764,0.183,-21.057,18.372,-13.306
0.105,-1.757,0.149,-27.588,19.165,-16.724
0.108,-1.711,0.143,-35.645,19.531,-18.005
0.107,-1.663,0.140,-42.969,21.118,-19.714
0.104,-1.602,0.127,-47.852,26.245,-20.752
0.097,-1.532,0.121,-50.171,35.889,-20.447
0.085,-1.448,0.111,-51.331,47.974,-18.311
0.071,-1.364,0.097,-50.354,61.890,-14.832
0.058,-1.294,0.084,-47.607,77.393,-10.132
0.065,-1.236,0.069,-43.274,93.445,-5.432
0.091,-1.177,0.059,-37.354,108.154,-1.526
0.125,-1.120,0.056,-29.846,120.422,2.136
0.160,-1.080,0.061,-21.545,129.333,5.127
0.185,-1.038,0.073,-12.634,135.010,7.080
0.209,-1.005,0.086,-5.005,137.329,8.240
0.229,-0.975,0.094,2.014,136.719,8.240
0.253,-0.952,0.102,8.240,133.362,8.301
0.276,-0.939,0.107,14.099,127.441,8.240
0.298,-0.935,0.107,18.982,119.507,7.690
0.313,-0.926,0.109,22.583,109.863,6.958
0.323,-0.905,0.103,24.109,98.511,6.775
0.335,-0.893,0.106,24.658,86.609,7.507
0.344,-0.878,0.111,24.414,73.425,8.179
0.350,-0.864,0.114,23.071,59.326,8.911
0.345,-0.823,0.116,20.203,45.044,9.338
0.342,-0.786,0.115,17.334,31.616,10.681
0.338,-0.748,0.110,13.733,18.433,12.268
0.343,-0.719,0.103,10.559,6.104,13.184
0.346,-0.693,0.091,7.446,-4.639,13.855
0.347,-0.673,0.082,4.883,-13.794,14.526
0.345,-0.656,0.076,3.113,-22.339,15.320
0.340,-0.642,0.070,2.502,-30.090,16.235
0.331,-0.633,0.058,2.197,-36.133,17.517
0.319,-0.623,0.047,1.892,-40.466,18.616
0.306,-0.609,0.042,1.587,-42.908,20.020
0.295,-0.599,0.039,1.282,-43.945,21.667
0.284,-0.591,0.036,1.038,-43.762,24.048
0.269,-0.583,0.033,0.916,-42.358,27.344
0.257,-0.582,0.032,0.244,-39.795,31.067
0.241,-0.595,0.030,-0.122,-36.499,34.424
0.221,-0.616,0.029,-0.793,-32.043,37.231
0.200,-0.631,0.026,-2.197,-26.367,39.368
0.185,-0.635,0.022,-3.967,-19.409,40.222
0.176,-0.633,0.019,-5.920,-11.353,40.222
0.171,-0.635,0.016,-7.812,-3.296,39.429
0.169,-0.639,0.013,-9.216,4.272,37.781
0.170,-0.642,0.011,-10.559,12.024,35.278
0.175,-0.649,0.010,-11.414,19.409,32.349
0.184,-0.662,0.011,-11.536,26.001,28.809
0.199,-0.682,0.011,-11.963,32.043,24.597
0.219,-0.699,0.015,-11.597,37.109,19.714
0.245,-0.717,0.018,-10.864,40.955,14.771
0.271,-0.738,0.022,-9.644,43.335,9.460
0.306,-0.764,0.030,-7.935,44.556,3.906
0.336,-0.777,0.035,-5.920,44.250,-1.526
0.365,-0.785,0.040,-4.333,42.725,-6.470
0.393,-0.798,0.044,-2.869,40.161,-11.719
0.419,-0.815,0.048,-1.587,36.682,-16.663
0.446,-0.833,0.051,-0.793,33.020,-20.935
0.470,-0.853,0.053,-0.244,28.809,-24.658
0.486,-0.863,0.054,0.366,24.170,-27.588
0.501,-0.865,0.057,0.061,20.142,-29.175
0.515,-0.865,0.058,0.000,16.357,-30.090
0.525,-0.868,0.060,0.244,12.756,-29.602
0.529,-0.878,0.060,0.122,9.644,-27.771
0.529,-0.885,0.063,0.122,6.653,-24.902
0.529,-0.889,0.066,0.549,3.967,-21.057
0.526,-0.896,0.068,0.488,1.648,-16.602
0.517,-0.903,0.069,0.671,-0.427,-11.841
0.503,-0.907,0.069,0.732,-1.892,-6.958
0.491,-0.918,0.070,0.366,-2.686,-2.869
0.477,-0.932,0.069,-0.244,-2.747,0.793
0.461,-0.947,0.070,-0.488,-2.502,4.150
0.447,-0.955,0.073,-1.282,-1.587,6.775
0.437,-0.965,0.080,-1.404,-0.916,8.728
0.433,-0.975,0.089,-0.671,-0.122,9.888
0.429,-0.982,0.097,0.427,0.488,10.254
0.425,-0.985,0.101,1.282,0.122,9.949
0.425,-0.989,0.107,2.319,-0.488,9.827
0.427,-0.989,0.110,3.052,-1.282,9.827
0.427,-0.987,0.113,4.211,-2.502,9.583
0.425,-0.985,0.118,4.883,-3.906,9.521
0.428,-0.984,0.119,5.005,-5.737,9.583
0.433,-0.978,0.120,4.761,-8.240,9.583
0.436,-0.970,0.119,3.784,-10.803,9.644
0.443,-0.956,0.117,2.380,-14.160,9.888
0.445,-0.947,0.112,1.221,-18.494,10.437
0.446,-0.944,0.110,0.366,-23.437,11.169
0.443,-0.938,0.111,0.061,-28.564,11.902
0.432,-0.928,0.109,0.549,-33.875,12.634
0.418,-0.917,0.105,1.160,-38.818,13.794
0.403,-0.916,0.098,1.953,-42.969,15.015
0.386,-0.923,0.093,3.174,-45.715,16.174
0.369,-0.931,0.091,4.333,-47.729,16.663
0.354,-0.938,0.090,5.615,-48.523,16.724
0.343,-0.937,0.092,6.958,-48.645,16.663
0.337,-0.942,0.095,8.179,-48.462,16.418
0.340,-0.952,0.104,9.338,-48.035,15.686
0.341,-0.960,0.108,10.315,-47.913,14.832

0.576,-1.680,-0.407,3.784,120.850,-12.024
0.569,-1.723,-0.363,14.404,118.713,-3.052
0.560,-1.737,-0.348,21.118,111.023,1.404
0.579,-1.811,-0.302,26.184,97.229,4.028
0.570,-1.868,-0.316,28.015,79.895,0.671
0.571,-1.902,-0.292,26.245,63.110,-3.052
0.554,-1.875,-0.253,23.621,47.729,-7.141
0.559,-1.853,-0.217,21.667,35.583,-11.780
0.595,-1.859,-0.143,20.447,26.245,-14.832
0.625,-1.865,-0.092,18.921,13.916,-18.677
0.629,-1.861,-0.066,15.869,-2.014,-24.109
0.615,-1.822,-0.031,9.583,-20.447,-27.832
0.596,-1.744,-0.052,1.953,-43.823,-30.396
0.577,-1.696,-0.032,-6.287,-67.017,-32.654
0.507,-1.672,0.001,-14.648,-89.172,-33.875
0.392,-1.612,0.033,-24.353,-107.849,-34.424
0.278,-1.568,0.026,-33.447,-119.324,-32.532
0.208,-1.549,0.004,-40.466,-123.108,-26.306
0.173,-1.547,-0.031,-43.274,-120.850,-16.357
0.148,-1.494,-0.063,-45.776,-113.953,-5.920
0.130,-1.401,-0.050,-49.194,-102.295,0.977
0.115,-1.319,-0.023,-50.354,-87.646,5.920
0.117,-1.258,0.013,-49.011,-69.885,10.376
0.145,-1.229,0.042,-46.570,-51.514,14.282
0.166,-1.203,0.061,-43.701,-36.255,17.151
0.171,-1.166,0.067,-41.138,-24.597,19.409
0.171,-1.134,0.068,-38.330,-15.137,20.752
0.173,-1.097,0.073,-35.156,-7.568,21.545
0.177,-1.055,0.081,-31.677,-1.465,21.973
0.185,-1.020,0.082,-28.137,3.479,21.790
0.187,-0.986,0.082,-24.475,6.958,21.179
0.189,-0.962,0.078,-21.057,9.949,20.630
0.194,-0.946,0.074,-18.066,12.390,18.921
0.198,-0.925,0.068,-15.564,13.977,16.479
0.205,-0.909,0.059,-13.428,14.954,14.282
0.207,-0.878,0.049,-11.902,15.320,12.146
0.212,-0.852,0.035,-9.460,15.198,10.376
0.214,-0.828,0.030,-6.714,14.893,8.972
0.220,-0.809,0.020,-4.150,13.733,7.629
0.224,-0.789,0.014,-0.977,12.878,6.287
0.231,-0.780,0.009,2.747,12.024,5.554
0.241,-0.773,0.014,6.042,10.742,4.517
0.250,-0.750,0.020,8.972,8.972,3.845
0.263,-0.730,0.029,10.986,7.263,3.723
0.275,-0.715,0.036,12.512,4.211,2.869
0.281,-0.708,0.038,13.733,0.793,2.319
0.281,-0.693,0.038,14.526,-2.197,1.831
0.283,-0.672,0.039,14.648,-5.432,1.648
0.283,-0.655,0.036,14.282,-8.362,1.709
0.280,-0.642,0.035,13.672,-10.620,2.319
0.275,-0.631,0.031,12.634,-12.756,3.357
0.267,-0.629,0.026,11.108,-14.221,4.150
0.257,-0.627,0.018,9.216,-15.015,4.944
0.253,-0.617,0.012,7.507,-14.954,6.104
0.253,-0.609,0.008,5.310,-14.343,7.568
0.251,-0.606,0.005,3.540,-13.428,8.850
0.246,-0.611,0.006,1.953,-12.451,9.766
0.243,-0.626,0.007,0.183,-11.353,10.376
0.239,-0.635,0.005,-1.282,-10.193,10.437
0.239,-0.638,0.006,-2.502,-9.155,9.949
0.242,-0.645,0.011,-3.662,-7.874,9.399
0.246,-0.657,0.014,-3.906,-6.775,8.179
0.252,-0.675,0.018,-3.906,-6.104,6.653
0.255,-0.697,0.021,-3.540,-5.676,4.761
0.259,-0.713,0.024,-3.418,-5.615,2.808
0.261,-0.731,0.029,-3.052,-5.798,0.916
0.263,-0.755,0.030,-2.747,-6.165,-1.038
0.264,-0.788,0.030,-2.502,-6.470,-2.380
0.266,-0.824,0.029,-2.502,-6.653,-3.235
0.269,-0.853,0.030,-2.563,-7.080,-3.784
0.274,-0.876,0.031,-2.380,-7.263,-4.761
0.275,-0.901,0.030,-2.686,-6.958,-5.737
0.275,-0.921,0.029,-3.418,-6.409,-6.836
0.276,-0.934,0.027,-4.211,-5.371,-8.240
0.284,-0.949,0.024,-4.944,-3.723,-9.949
0.292,-0.962,0.022,-5.737,-2.136,-11.658
0.300,-0.972,0.018,-6.165,-0.610,-13.428
0.317,-0.984,0.017,-6.653,1.221,-15.076
0.336,-0.991,0.019,-6.836,2.869,-16.174
0.356,-0.986,0.023,-6.409,3.967,-16.541
0.375,-0.978,0.027,-5.493,4.272,-16.174
0.390,-0.971,0.030,-4.028,3.906,-15.076
0.403,-0.967,0.032,-2.014,3.113,-13.550
0.409,-0.973,0.037,-0.122,1.648,-11.597
0.412,-0.973,0.038,1.648,0.122,-9.216
0.410,-0.966,0.041,3.235,-1.221,-6.592
0.403,-0.966,0.041,4.639,-2.686,-3.906
0.394,-0.970,0.041,5.371,-4.028,-1.282
0.385,-0.976,0.042,5.798,-4.883,1.648
0.376,-0.981,0.044,5.493,-5.188,4.639
0.367,-0.990,0.042,5.066,-5.249,7.446
0.356,-0.998,0.041,4.456,-5.249,9.827
0.351,-0.999,0.040,3.906,-5.127,12.207
0.349,-0.999,0.039,3.723,-5.005,14.587
0.347,-0.995,0.039,4.333,-4.822,16.541
0.346,-0.997,0.041,4.578,-4.822,18.127
0.347,-0.999,0.043,5.249,-5.005,19.104
0.350,-0.996,0.043,6.042,-5.188,19.653
0.352,-0.992,0.045,7.141,-5.920,19.592
0.354,-0.995,0.044,8.606,-7.202,19.531
0.356,-0.995,0.042,10.254,-8.484,19.165
0.361,-0.990,0.047,11.841,-9.888,19.226
0.366,-0.983,0.052,13.794,-11.597,19.226
0.366,-0.982,0.055,15.198,-13.977,19.409
0.363,-0.985,0.054,16.052,-16.235,19.470
0.362,-0.992,0.056,16.785,-18.433,19.226
0.363,-0.994,0.055,17.212,-20.386,18.860
0.362,-0.999,0.057,16.724,-21.790,18.372
0.364,-0.999,0.057,16.602,-23.376,17.944
0.368,-0.996,0.056,16.113,-25.146,17.029
0.375,-1.000,0.054,16.235,-26.917,15.991
0.385,-1.001,0.053,16.235,-28.992,14.954
0.392,-1.005,0.053,16.479,-31.250,14.160
0.394,-1.011,0.049,16.357,-33.875,13.733
0.394,-1.018,0.042,16.357,-36.438,13.245
0.396,-1.041,0.036,16.724,-38.147,12.939
0.391,-1.069,0.028,17.334,-38.757,12.756
0.386,-1.091,0.026,17.944,-38.391,12.573
0.396,-1.114,0.026,18.372,-37.109,13.123

0.844,-1.949,0.033,-35.583,71.472,-31.006
0.942,-1.822,-0.036,-25.269,52.979,-34.302
0.997,-1.803,-0.025,-16.174,40.039,-16.846
0.894,-1.852,-0.009,-14.343,31.860,-0.732
0.796,-1.896,-0.166,-12.085,15.198,4.211
0.717,-1.797,-0.267,-14.832,-1.587,9.949
0.612,-1.829,-0.186,-15.991,-10.254,18.433
0.518,-1.855,-0.069,-10.681,-15.930,18.921
0.354,-1.738,-0.013,-4.761,-24.902,13.489
0.233,-1.684,-0.039,-4.395,-27.893,15.015
0.114,-1.626,-0.067,-0.488,-19.897,15.869
0.087,-1.562,-0.034,1.709,-9.277,13.977
0.053,-1.527,-0.045,3.418,-0.610,12.268
0.050,-1.536,-0.058,6.287,8.240,8.850
0.072,-1.544,-0.045,8.057,17.334,6.165
0.071,-1.553,-0.076,10.315,26.855,2.625
0.091,-1.590,-0.103,13.245,36.194,-1.892
0.174,-1.653,-0.086,15.381,44.556,-4.700
0.254,-1.671,-0.092,15.686,50.964,-7.874
0.353,-1.716,-0.062,12.695,55.542,-11.780
0.448,-1.779,-0.013,7.080,59.692,-14.771
0.502,-1.834,0.046,-0.244,61.340,-16.724
0.539,-1.858,0.135,-9.766,58.044,-19.714
0.565,-1.840,0.219,-18.250,48.584,-23.743
0.576,-1.816,0.280,-23.682,33.386,-26.123
0.536,-1.788,0.266,-25.269,13.245,-25.146
0.470,-1.698,0.244,-24.841,-6.104,-22.339
0.438,-1.636,0.210,-24.597,-18.127,-19.104
0.384,-1.595,0.171,-25.208,-20.508,-16.174
0.315,-1.542,0.145,-27.710,-13.245,-14.282
0.267,-1.478,0.118,-32.104,-0.610,-12.207
0.248,-1.403,0.099,-38.330,15.808,-10.376
0.241,-1.335,0.086,-44.617,33.691,-8.911
0.241,-1.271,0.068,-49.805,50.903,-7.263
0.244,-1.206,0.043,-53.284,65.918,-5.127
0.253,-1.138,0.022,-53.406,77.209,-3.296
0.269,-1.075,0.008,-50.781,85.754,-1.831
0.294,-1.023,0.001,-45.776,90.576,-0.610
0.323,-0.975,0.000,-39.429,91.248,-0.061
0.352,-0.924,0.004,-32.654,87.952,0.244
0.373,-0.873,0.010,-25.391,81.116,-0.183
0.385,-0.822,0.017,-18.005,70.984,-1.465
0.397,-0.786,0.022,-11.414,58.838,-2.991
0.400,-0.745,0.022,-5.554,45.532,-4.822
0.396,-0.705,0.014,-0.061,32.349,-6.958
0.382,-0.658,0.012,4.395,20.142,-9.094
0.375,-0.628,0.011,8.667,8.728,-11.108
0.359,-0.584,0.009,12.573,-1.343,-13.123
0.349,-0.549,0.011,16.907,-9.338,-14.404
0.340,-0.511,0.010,20.691,-16.724,-15.442
0.333,-0.484,0.010,24.597,-22.888,-15.991
0.323,-0.447,0.010,27.100,-27.283,-16.541
0.320,-0.420,0.013,30.090,-30.273,-16.357
0.315,-0.388,0.016,33.264,-32.104,-15.808
0.315,-0.376,0.017,36.072,-33.020,-14.587
0.310,-0.362,0.017,38.208,-33.203,-13.123
0.303,-0.355,0.018,40.771,-32.715,-11.047
0.296,-0.349,0.023,41.931,-31.616,-8.484
0.289,-0.348,0.027,43.030,-30.396,-5.493
0.281,-0.350,0.032,43.457,-28.442,-2.991
0.268,-0.363,0.037,43.152,-26.733,-0.122
0.258,-0.383,0.041,42.664,-25.024,2.625
0.250,-0.406,0.043,41.382,-23.010,5.005
0.245,-0.430,0.045,39.063,-20.569,6.958
0.239,-0.456,0.045,36.743,-17.944,7.874
0.233,-0.491,0.044,33.569,-15.198,7.996
0.226,-0.531,0.042,30.090,-12.146,7.690
0.218,-0.577,0.040,26.306,-9.338,7.080
0.218,-0.629,0.039,21.729,-6.592,6.348
0.225,-0.693,0.038,16.968,-4.517,5.432
0.233,-0.757,0.039,12.268,-2.747,4.089
0.245,-0.813,0.040,7.812,-1.709,2.197
0.262,-0.872,0.040,3.906,-1.526,-0.305
0.276,-0.928,0.039,0.732,-2.136,-3.174
0.289,-0.974,0.039,-1.770,-2.930,-6.775
0.302,-1.015,0.037,-3.967,-4.089,-11.414
0.322,-1.061,0.035,-5.127,-5.432,-16.541
0.345,-1.105,0.035,-5.981,-6.958,-22.217
0.375,-1.124,0.034,-6.287,-8.484,-28.320
0.407,-1.123,0.034,-6.226,-9.888,-34.241
0.440,-1.110,0.032,-5.859,-11.597,-38.757
0.471,-1.086,0.029,-5.432,-13.855,-42.053
0.494,-1.061,0.028,-4.700,-16.174,-43.518
0.506,-1.037,0.028,-3.723,-18.311,-42.786
0.514,-1.014,0.030,-2.380,-20.447,-40.344
0.513,-0.991,0.034,-0.671,-22.400,-36.072
0.501,-0.968,0.037,1.221,-23.499,-29.968
0.481,-0.951,0.040,2.625,-24.048,-22.461
0.453,-0.945,0.040,3.601,-23.804,-13.794
0.419,-0.945,0.043,3.906,-22.034,-5.127
0.389,-0.951,0.043,3.113,-18.982,2.625
0.360,-0.960,0.039,1.709,-14.709,10.315
0.334,-0.973,0.036,-0.854,-9.338,17.273
0.318,-0.983,0.033,-3.479,-3.845,22.461
0.304,-0.998,0.041,-5.249,1.587,26.245
0.296,-1.002,0.047,-6.958,6.592,28.442
0.297,-1.001,0.057,-8.362,10.010,29.297
0.302,-1.000,0.063,-9.888,11.658,29.297
0.306,-1.000,0.064,-11.047,12.146,29.053
0.305,-1.001,0.062,-11.353,11.108,28.320
0.309,-1.009,0.061,-11.230,8.667,27.283
0.314,-1.012,0.062,-10.498,5.737,25.940
0.314,-1.005,0.064,-9.399,1.831,24.414
0.312,-1.000,0.065,-7.751,-2.014,22.705
0.306,-0.994,0.063,-6.226,-5.188,21.179
0.300,-0.984,0.063,-4.700,-8.057,19.531
0.300,-0.971,0.061,-3.418,-9.827,18.005
0.303,-0.967,0.060,-2.197,-11.169,16.602
0.311,-0.969,0.062,-1.038,-12.207,15.625
0.316,-0.970,0.066,-0.244,-12.695,14.832
0.327,-0.965,0.068,-0.183,-13.062,14.099
0.334,-0.962,0.069,0.061,-13.977,13.733
0.334,-0.959,0.068,0.183,-15.137,13.794
0.337,-0.951,0.065,0.000,-16.418,14.221
0.337,-0.943,0.066,0.122,-17.456,14.832
0.331,-0.936,0.060,-0.366,-18.311,15.442
0.322,-0.929,0.050,-1.343,-18.555,16.357
0.310,-0.928,0.039,-2.380,-18.311,17.273
0.300,-0.933,0.026,-3.296,-16.785,17.883

0.651,-1.952,-0.146,-5.005,30.151,-5.615
0.623,-2.044,-0.001,-9.705,26.001,-2.075
0.573,-2.054,0.015,-19.287,27.710,5.066
0.526,-1.864,-0.038,-27.710,25.330,7.446
0.408,-1.844,-0.142,-24.963,18.799,9.888
0.323,-1.759,-0.126,-20.630,18.188,12.634
0.282,-1.733,-0.064,-17.029,18.555,12.756
0.260,-1.728,0.042,-12.268,19.653,9.216
0.230,-1.670,0.024,-11.841,20.020,5.676
0.205,-1.589,0.013,-12.634,20.264,2.747
0.184,-1.589,0.033,-11.780,21.362,-0.977
0.183,-1.585,0.055,-9.521,21.973,-5.493
0.200,-1.589,0.064,-7.019,20.508,-9.583
0.214,-1.601,0.043,-3.174,17.944,-13.306
0.231,-1.625,0.027,1.465,14.587,-15.381
0.239,-1.618,0.040,2.625,12.207,-14.404
0.231,-1.668,0.094,-0.854,13.611,-12.634
0.216,-1.730,0.122,-5.371,18.555,-11.597
0.224,-1.793,0.160,-11.658,25.330,-11.292
0.257,-1.853,0.218,-20.752,31.433,-10.986
0.299,-1.895,0.259,-29.907,34.546,-10.010
0.316,-1.877,0.283,-36.743,35.095,-8.972
0.311,-1.795,0.307,-40.039,35.645,-7.507
0.285,-1.720,0.275,-38.757,36.987,-5.615
0.286,-1.610,0.297,-38.208,42.847,-4.700
0.295,-1.523,0.283,-38.269,50.293,-3.357
0.288,-1.466,0.257,-37.292,58.289,0.305
0.254,-1.422,0.228,-36.438,67.261,5.188
0.235,-1.393,0.200,-35.156,76.294,9.399
0.245,-1.362,0.170,-33.691,83.557,12.634
0.270,-1.326,0.155,-31.677,87.952,15.015
0.297,-1.291,0.158,-29.785,88.440,16.907
0.325,-1.259,0.161,-28.076,85.205,18.066
0.345,-1.223,0.164,-26.306,78.308,18.250
0.360,-1.192,0.160,-24.048,68.787,17.273
0.367,-1.153,0.147,-20.996,57.312,14.893
0.371,-1.108,0.138,-17.761,45.044,11.963
0.370,-1.054,0.134,-15.015,33.386,9.399
0.363,-1.003,0.126,-12.390,21.973,7.385
0.349,-0.949,0.117,-9.155,11.780,5.493
0.335,-0.894,0.111,-5.676,3.296,4.089
0.319,-0.834,0.104,-1.587,-3.052,3.052
0.311,-0.788,0.096,3.479,-7.751,2.441
0.292,-0.733,0.088,8.789,-10.986,1.526
0.286,-0.700,0.080,14.954,-12.512,1.160
0.279,-0.651,0.075,20.569,-12.573,0.122
0.277,-0.624,0.078,26.428,-10.986,-0.549
0.277,-0.599,0.077,32.410,-8.911,-2.075
0.276,-0.563,0.076,37.231,-5.981,-3.723
0.276,-0.521,0.078,41.809,-2.319,-5.371
0.280,-0.484,0.074,46.021,0.977,-7.019
0.288,-0.462,0.073,50.293,5.066,-7.446
0.294,-0.440,0.077,52.979,8.850,-7.202
0.299,-0.428,0.081,54.810,11.841,-6.042
0.307,-0.423,0.085,55.359,14.160,-4.211
0.314,-0.422,0.089,55.359,15.320,-2.563
0.314,-0.421,0.093,54.871,15.564,-0.183
0.313,-0.419,0.097,53.711,15.259,2.869
0.311,-0.417,0.101,51.636,14.099,6.287
0.310,-0.411,0.104,49.133,12.329,9.277
0.311,-0.407,0.104,46.692,10.376,11.841
0.312,-0.405,0.105,44.067,7.812,14.282
0.308,-0.411,0.101,41.199,4.517,16.541
0.300,-0.427,0.093,38.513,0.977,18.494
0.296,-0.448,0.088,35.583,-2.197,20.813
0.298,-0.472,0.082,32.654,-5.493,22.461
0.297,-0.493,0.077,29.907,-8.484,23.560
0.298,-0.512,0.074,26.855,-11.108,24.231
0.301,-0.542,0.072,23.987,-13.855,23.987
0.294,-0.578,0.064,20.325,-16.052,23.193
0.281,-0.618,0.053,16.785,-17.212,21.790
0.275,-0.664,0.045,13.184,-17.151,20.081
0.284,-0.715,0.045,9.583,-15.808,17.578
0.301,-0.763,0.048,6.226,-13.672,13.794
0.314,-0.801,0.052,2.808,-11.292,8.972
0.327,-0.839,0.051,-0.793,-8.850,3.601
0.344,-0.874,0.043,-3.540,-6.409,-2.258
0.370,-0.912,0.036,-5.615,-3.723,-8.423
0.406,-0.947,0.031,-7.324,-0.610,-15.625
0.462,-0.976,0.030,-8.484,2.686,-22.766
0.533,-0.991,0.030,-8.728,5.005,-29.297
0.595,-0.998,0.019,-8.240,6.287,-34.851
0.638,-0.990,0.004,-7.507,8.057,-39.063
0.663,-0.970,-0.016,-6.714,10.864,-40.527
0.676,-0.944,-0.037,-6.287,14.587,-38.696
0.675,-0.916,-0.057,-6.592,19.714,-33.569
0.670,-0.891,-0.059,-6.775,26.062,-25.757
0.667,-0.875,-0.052,-6.775,32.532,-15.686
0.671,-0.877,-0.041,-6.042,37.537,-4.944
0.670,-0.883,-0.029,-5.249,39.917,5.798
0.656,-0.885,-0.016,-3.845,39.368,16.479
0.638,-0.893,-0.000,-2.075,36.194,25.940
0.617,-0.907,0.010,-0.183,30.151,33.142
0.595,-0.924,0.020,1.404,21.484,38.086
0.564,-0.936,0.028,2.930,10.925,40.833
0.523,-0.945,0.034,4.517,-0.610,41.809
0.486,-0.959,0.038,5.920,-11.353,40.710
0.444,-0.972,0.038,7.019,-21.545,38.574
0.407,-0.979,0.043,7.874,-30.579,35.522
0.372,-0.983,0.045,8.118,-37.537,31.555
0.344,-0.984,0.047,8.301,-42.480,27.649
0.324,-0.988,0.044,8.179,-46.143,23.315
0.307,-0.993,0.038,7.690,-48.096,18.738
0.300,-0.999,0.034,7.568,-48.279,14.465
0.305,-1.001,0.032,7.507,-47.180,10.681
0.313,-1.001,0.031,7.507,-45.715,7.690
0.324,-1.001,0.037,7.629,-44.250,5.371
0.333,-1.001,0.040,7.935,-42.664,3.845
0.338,-1.000,0.041,8.606,-41.382,2.808
0.335,-0.997,0.042,9.766,-40.039,2.075
0.332,-0.986,0.044,10.681,-38.269,2.014
0.329,-0.981,0.046,11.597,-36.377,2.747
0.324,-0.982,0.045,12.695,-34.058,3.906
0.314,-0.979,0.043,13.306,-31.372,4.822
0.305,-0.983,0.039,13.611,-28.198,5.859
0.304,-0.979,0.038,14.038,-25.085,6.836
0.304,-0.979,0.036,13.977,-21.851,7.935
0.305,-0.977,0.036,13.550,-19.226,8.484
0.302,-0.984,0.037,13.123,-17.273,8.667

-0.236,-0.740,1.213,-82.458,-247.681,-67.993
-0.461,-0.145,0.531,-98.938,-202.393,-66.650
-0.452,-0.058,0.248,-71.655,-119.873,-51.208
-0.240,-0.260,0.211,-32.837,-66.467,-59.143
-0.196,-0.360,0.156,-0.793,-43.762,-58.960
-0.243,-0.494,0.044,14.221,-30.579,-43.091
-0.228,-0.779,0.053,11.108,-4.272,-22.400
-0.074,-0.890,0.140,-6.287,28.687,-14.526
0.089,-0.967,0.312,-22.827,42.908,-15.869
0.224,-1.055,0.336,-34.729,28.931,-20.264
0.245,-1.224,0.268,-42.908,19.165,-18.799
0.003,-1.231,0.167,-45.288,34.424,-15.076
-0.035,-1.267,0.085,-44.556,60.974,-18.494
0.193,-1.406,0.110,-41.504,81.604,-23.254
0.300,-1.497,0.216,-33.569,92.407,-32.532
0.430,-1.463,0.194,-30.090,93.933,-36.682
0.583,-1.554,0.050,-28.809,88.562,-23.926
0.587,-1.692,-0.007,-21.729,90.759,-6.592
0.676,-1.674,0.067,-20.020,82.947,-2.930
0.824,-1.693,0.033,-20.691,66.345,3.601
0.745,-1.771,-0.020,-19.836,48.767,11.230
0.575,-1.752,-0.003,-15.930,32.715,11.719
0.467,-1.767,0.008,-13.794,21.606,11.841
0.373,-1.832,-0.058,-10.376,15.259,11.780
0.254,-1.786,-0.100,-9.277,18.433,12.085
0.243,-1.821,-0.134,-7.446,23.193,13.428
0.250,-1.864,-0.172,-4.822,28.687,14.404
0.214,-1.787,-0.194,-3.967,30.029,10.864
0.188,-1.804,-0.171,-1.099,25.757,6.653
0.154,-1.865,-0.133,4.089,23.437,4.211
0.146,-1.879,-0.140,7.202,24.231,2.930
0.182,-1.855,-0.183,9.216,23.621,-0.427
0.221,-1.894,-0.195,11.841,21.912,-2.747
0.248,-1.937,-0.157,12.634,20.081,-4.272
0.291,-1.985,-0.104,12.146,16.724,-5.554
0.319,-1.980,-0.047,10.132,11.536,-6.836
0.321,-1.960,0.030,4.456,6.287,-9.949
0.305,-2.002,0.103,-2.686,0.854,-15.198
0.294,-2.057,0.155,-7.751,-5.066,-20.203
0.269,-2.072,0.197,-12.634,-10.437,-24.109
0.247,-2.030,0.218,-17.090,-15.503,-27.405
0.188,-1.958,0.185,-17.822,-20.264,-28.931
0.121,-1.822,0.154,-19.531,-20.325,-29.480
0.096,-1.717,0.112,-22.644,-11.353,-29.602
0.090,-1.665,0.077,-24.719,5.920,-28.198
0.085,-1.633,0.047,-27.222,29.114,-25.085
0.084,-1.572,0.015,-31.616,52.979,-21.790
0.088,-1.501,-0.016,-35.461,74.524,-18.982
0.099,-1.423,-0.043,-37.537,93.018,-16.418
0.117,-1.346,-0.054,-36.560,107.971,-13.977
0.144,-1.275,-0.052,-32.837,119.080,-11.169
0.174,-1.196,-0.043,-27.222,124.512,-8.301
0.203,-1.116,-0.032,-19.409,124.512,-5.676
0.230,-1.049,-0.016,-10.376,119.690,-4.028
0.256,-0.998,-0.001,-1.160,110.840,-3.357
0.276,-0.954,0.012,8.118,98.755,-3.235
0.292,-0.909,0.024,16.418,84.656,-3.174
0.306,-0.866,0.032,23.315,68.970,-3.296
0.314,-0.819,0.031,29.236,52.002,-3.662
0.323,-0.800,0.027,34.302,35.645,-4.333
0.324,-0.783,0.029,37.964,20.325,-5.493
0.322,-0.748,0.033,39.856,5.981,-6.409
0.316,-0.702,0.040,40.222,-6.226,-6.775
0.316,-0.661,0.050,39.856,-16.724,-7.812
0.317,-0.625,0.057,39.490,-26.062,-8.972
0.321,-0.592,0.057,39.429,-33.691,-9.583
0.319,-0.557,0.046,39.612,-39.856,-9.949
0.320,-0.535,0.039,39.307,-44.250,-9.216
0.317,-0.512,0.044,37.903,-46.204,-7.874
0.314,-0.487,0.061,35.461,-46.021,-5.920
0.319,-0.457,0.078,33.325,-44.556,-3.418
0.328,-0.437,0.092,31.006,-42.603,-0.488
0.338,-0.428,0.104,28.748,-40.588,3.418
0.347,-0.425,0.110,26.367,-39.307,7.324
0.345,-0.415,0.116,24.475,-38.208,11.902
0.337,-0.406,0.113,22.400,-37.170,17.151
0.318,-0.399,0.105,20.935,-36.072,23.132
0.301,-0.396,0.095,19.775,-34.485,30.273
0.285,-0.398,0.086,18.738,-32.104,37.354
0.266,-0.409,0.083,18.494,-28.625,43.640
0.248,-0.436,0.076,18.311,-24.170,48.523
0.231,-0.469,0.065,17.639,-19.348,51.941
0.213,-0.505,0.048,16.174,-13.977,54.077
0.200,-0.538,0.035,13.245,-8.240,55.786
0.198,-0.583,0.026,9.827,-2.625,56.580
0.198,-0.643,0.020,6.287,2.441,56.091
0.193,-0.700,0.013,2.502,7.141,54.688
0.189,-0.752,0.004,-1.831,11.230,52.856
0.201,-0.812,-0.003,-5.676,14.771,50.415
0.212,-0.870,-0.008,-9.644,18.250,46.692
0.219,-0.919,-0.010,-12.756,21.606,41.382
0.229,-0.966,-0.001,-15.869,24.963,33.997
0.250,-1.006,0.000,-19.104,27.649,24.719
0.282,-1.040,-0.011,-21.973,29.480,14.343
0.325,-1.053,-0.025,-23.987,30.334,3.906
0.374,-1.038,-0.036,-25.146,30.579,-5.493
0.424,-1.008,-0.038,-24.414,29.968,-15.259
0.476,-0.970,-0.036,-21.912,28.687,-24.780
0.521,-0.929,-0.024,-17.944,26.917,-32.227
0.554,-0.892,-0.012,-12.939,23.804,-37.048
0.573,-0.866,0.002,-7.263,20.020,-38.879
0.580,-0.844,0.018,-1.343,15.198,-37.781
0.578,-0.832,0.027,4.578,9.583,-34.241
0.576,-0.831,0.032,9.705,3.601,-28.564
0.565,-0.846,0.024,13.000,-2.319,-22.095
0.541,-0.876,0.022,14.648,-7.080,-15.564
0.503,-0.904,0.008,13.977,-10.315,-8.850
0.465,-0.910,0.000,11.292,-11.597,-3.174
0.439,-0.916,0.006,8.606,-11.230,2.136
0.421,-0.925,0.009,5.859,-10.681,7.141
0.400,-0.931,0.013,3.296,-10.498,11.414
0.383,-0.941,0.018,0.793,-10.803,14.709
0.366,-0.951,0.018,-1.587,-11.658,17.456
0.351,-0.968,0.018,-2.930,-13.428,19.470
0.344,-0.991,0.018,-3.418,-15.564,19.958
0.341,-1.017,0.027,-3.296,-18.127,19.165
0.352,-1.045,0.035,-3.052,-21.301,16.846
0.360,-1.059,0.039,-2.686,-25.330,12.939
0.366,-1.069,0.036,-2.319,-29.724,8.667

0.638,-1.794,-0.325,14.099,80.261,11.841
0.613,-1.871,-0.323,19.165,69.275,2.930
0.618,-1.981,-0.423,24.414,48.645,-7.080
0.643,-1.883,-0.402,22.156,36.316,-8.850
0.644,-1.918,-0.289,20.752,30.273,-7.019
0.645,-2.003,-0.419,25.818,15.686,-7.385
0.601,-1.900,-0.423,27.405,-5.798,-8.484
0.472,-1.833,-0.366,22.339,-21.851,-6.775
0.384,-1.855,-0.364,20.630,-28.320,-5.676
0.356,-1.803,-0.320,19.287,-29.846,-4.456
0.298,-1.805,-0.297,16.296,-32.654,-5.188
0.195,-1.844,-0.283,12.512,-36.987,-7.751
0.104,-1.834,-0.273,8.362,-39.612,-10.437
0.082,-1.829,-0.226,5.554,-39.185,-13.123
0.096,-1.870,-0.223,5.249,-39.917,-15.869
0.137,-1.889,-0.204,3.906,-43.579,-18.494
0.186,-1.895,-0.169,1.160,-49.683,-20.264
0.201,-1.891,-0.113,-3.662,-55.969,-20.569
0.164,-1.941,-0.032,-7.874,-59.143,-20.691
0.104,-2.056,-0.019,-11.658,-58.350,-20.569
0.064,-2.089,-0.073,-17.883,-50.964,-21.362
0.108,-1.960,-0.116,-31.555,-37.415,-22.888
0.161,-1.750,-0.103,-50.293,-18.188,-24.353
0.180,-1.610,-0.097,-62.195,1.648,-23.499
0.194,-1.509,-0.091,-67.810,18.433,-20.203
0.200,-1.422,-0.073,-70.618,30.396,-15.564
0.193,-1.359,-0.060,-69.763,38.818,-10.132
0.186,-1.314,-0.050,-65.613,44.495,-5.005
0.190,-1.261,-0.039,-60.303,48.767,-0.061
0.197,-1.203,-0.029,-53.406,51.208,4.639
0.198,-1.157,-0.021,-45.044,52.429,8.362
0.194,-1.140,-0.018,-36.072,52.368,11.169
0.194,-1.123,-0.018,-26.733,51.758,12.634
0.203,-1.072,-0.017,-18.799,50.720,12.268
0.218,-1.003,-0.018,-12.024,48.706,10.803
0.230,-0.945,-0.024,-5.554,45.898,8.728
0.244,-0.903,-0.029,0.488,43.152,6.104
0.259,-0.865,-0.030,4.883,40.344,3.479
0.286,-0.828,-0.032,8.423,36.804,1.099
0.326,-0.807,-0.047,11.353,31.555,-0.488
0.361,-0.786,-0.058,13.245,24.536,-0.916
0.374,-0.746,-0.059,13.794,16.174,0.305
0.382,-0.705,-0.054,13.306,6.958,3.052
0.387,-0.661,-0.043,12.451,-2.808,5.798
0.388,-0.628,-0.032,12.878,-12.268,9.338
0.386,-0.596,-0.017,13.184,-21.973,13.245
0.386,-0.598,-0.013,14.099,-31.250,17.578
0.375,-0.581,-0.008,15.076,-40.161,20.691
0.359,-0.553,-0.007,15.869,-47.424,23.621
0.340,-0.532,-0.013,16.418,-53.467,25.940
0.319,-0.530,-0.031,17.883,-57.739,27.710
0.303,-0.530,-0.046,18.311,-59.509,28.992
0.287,-0.517,-0.054,18.555,-59.021,29.541
0.270,-0.509,-0.066,18.738,-56.580,29.602
0.254,-0.512,-0.080,18.921,-52.734,29.907
0.243,-0.518,-0.094,18.494,-47.607,30.396
0.241,-0.507,-0.096,17.578,-42.236,31.311
0.250,-0.496,-0.086,15.869,-36.926,33.081
0.261,-0.491,-0.077,14.587,-33.081,34.546
0.262,-0.495,-0.069,13.489,-30.884,35.461
0.255,-0.503,-0.067,12.207,-29.358,35.889
0.247,-0.517,-0.070,10.986,-28.076,35.767
0.239,-0.544,-0.076,10.071,-26.917,35.034
0.224,-0.573,-0.086,8.667,-24.963,34.607
0.219,-0.591,-0.089,7.202,-22.400,33.752
0.227,-0.616,-0.089,5.554,-18.921,32.227
0.231,-0.635,-0.085,4.395,-14.526,29.358
0.239,-0.659,-0.082,3.052,-9.888,25.085
0.259,-0.697,-0.081,1.953,-5.127,19.470
0.287,-0.727,-0.078,0.793,-0.732,13.306
0.320,-0.737,-0.068,-0.061,2.869,7.202
0.354,-0.753,-0.061,-0.244,5.066,0.732
0.383,-0.765,-0.061,-0.244,6.226,-5.127
0.428,-0.789,-0.037,-0.732,6.775,-10.803
0.470,-0.805,-0.023,-2.258,5.798,-15.686
0.494,-0.829,-0.026,-3.052,4.150,-19.653
0.505,-0.854,-0.022,-2.808,2.441,-23.437
0.519,-0.867,-0.020,-2.625,1.282,-26.245
0.537,-0.869,-0.019,-2.319,0.793,-27.405
0.564,-0.868,-0.010,-2.197,0.000,-27.161
0.588,-0.878,-0.003,-2.319,-0.916,-25.452
0.594,-0.885,0.001,-2.930,-2.014,-22.888
0.590,-0.894,-0.000,-3.418,-3.784,-19.287
0.579,-0.898,-0.001,-3.479,-5.127,-15.076
0.566,-0.904,-0.001,-3.723,-6.042,-10.193
0.545,-0.915,-0.005,-4.089,-6.470,-4.822
0.525,-0.920,-0.005,-5.066,-5.737,0.488
0.503,-0.924,-0.010,-5.798,-4.456,5.859
0.480,-0.939,-0.018,-6.104,-2.686,9.888
0.456,-0.954,-0.024,-6.104,-0.549,12.268
0.449,-0.957,-0.024,-5.859,1.587,13.550
0.451,-0.951,-0.018,-5.005,2.869,13.977
0.449,-0.953,-0.017,-3.967,2.686,13.977
0.447,-0.956,-0.021,-2.747,1.831,13.672
0.450,-0.957,-0.019,-0.854,-0.244,13.428
0.457,-0.958,-0.018,0.610,-2.747,13.123
0.459,-0.958,-0.014,1.892,-6.226,12.695
0.458,-0.957,-0.012,3.357,-10.437,12.207
0.461,-0.954,-0.006,4.211,-14.648,11.780
0.465,-0.957,-0.004,5.188,-19.470,11.108
0.469,-0.957,-0.000,5.676,-23.987,10.010
0.474,-0.953,0.001,6.226,-28.137,8.667
0.484,-0.943,0.003,6.409,-32.654,7.629
0.495,-0.939,0.003,6.897,-37.354,6.775
0.512,-0.943,0.009,7.202,-42.297,6.409
0.541,-0.962,0.013,7.690,-48.096,6.226
0.565,-0.986,0.013,8.240,-55.115,5.859
0.574,-0.986,0.015,9.094,-62.927,5.493
0.578,-0.979,0.020,10.254,-71.411,5.554
0.580,-0.976,0.022,11.536,-80.017,5.493
0.583,-0.978,0.021,12.817,-88.196,5.066
0.579,-0.971,0.017,13.550,-96.069,4.456
0.560,-0.948,0.005,13.855,-103.943,3.418
0.536,-0.922,-0.009,13.855,-110.901,2.258
0.511,-0.891,-0.030,13.062,-117.188,2.014
0.515,-0.852,-0.041,12.024,-122.681,3.296
0.538,-0.796,-0.062,11.902,-130.188,6.531
0.528,-0.749,-0.083,13.550,-139.404,10.742
0.507,-0.704,-0.102,16.846,-147.339,15.808

-0.355,-2.202,-0.079,-16.479,-99.426,-45.776
-0.476,-2.071,-0.085,-11.353,-90.637,-26.978
-0.578,-1.982,-0.101,-8.362,-81.055,-13.428
-0.709,-1.896,-0.091,-7.629,-70.313,-2.380
-0.785,-1.814,-0.056,-8.240,-53.406,8.667
-0.837,-1.755,-0.072,-9.766,-30.884,16.235
-0.838,-1.648,-0.079,-11.475,-6.104,19.287
-0.780,-1.626,-0.043,-13.489,21.545,20.569
-0.706,-1.637,0.002,-14.648,45.959,22.522
-0.598,-1.588,0.067,-14.893,65.247,22.339
-0.516,-1.553,0.149,-13.611,78.430,23.499
-0.466,-1.551,0.231,-8.972,86.304,25.452
-0.400,-1.583,0.315,0.244,91.736,27.832
-0.326,-1.636,0.344,13.000,93.384,32.715
-0.203,-1.687,0.365,26.306,88.684,39.795
-0.142,-1.716,0.337,36.377,73.853,49.011
-0.171,-1.673,0.366,38.818,57.312,57.678
-0.183,-1.721,0.337,36.499,44.739,63.660
-0.218,-1.759,0.273,29.785,36.072,68.359
-0.264,-1.727,0.237,18.738,35.706,73.669
-0.271,-1.691,0.204,7.324,40.588,79.590
-0.246,-1.630,0.160,-3.113,47.791,83.557
-0.223,-1.530,0.119,-11.719,55.603,84.717
-0.211,-1.415,0.075,-16.174,64.087,83.679
-0.211,-1.315,0.061,-15.869,74.463,80.566
-0.187,-1.246,0.072,-12.085,85.510,76.477
-0.139,-1.182,0.085,-7.019,92.896,70.923
-0.087,-1.120,0.099,-1.343,96.375,63.721
-0.040,-1.072,0.113,4.089,97.168,55.969
-0.000,-1.028,0.125,7.935,95.581,49.133
0.021,-0.987,0.130,10.742,92.041,43.823
0.032,-0.933,0.121,12.512,87.708,39.795
0.039,-0.867,0.108,13.306,84.106,37.354
0.045,-0.800,0.097,12.817,82.764,36.987
0.055,-0.741,0.088,12.207,83.008,37.903
0.068,-0.687,0.084,11.902,84.839,39.551
0.079,-0.642,0.082,12.451,87.646,41.443
0.087,-0.598,0.076,13.184,91.125,43.213
0.099,-0.564,0.069,15.137,95.276,44.189
0.111,-0.529,0.066,17.273,99.670,43.396
0.125,-0.492,0.061,19.409,104.858,41.321
0.145,-0.467,0.069,22.217,111.084,39.001
0.166,-0.454,0.078,24.841,117.004,36.072
0.192,-0.460,0.094,27.283,122.192,32.715
0.215,-0.465,0.113,28.687,125.366,28.931
0.240,-0.469,0.131,27.771,126.526,25.635
0.262,-0.461,0.141,25.574,125.732,22.705
0.276,-0.443,0.141,22.766,122.742,20.386
0.300,-0.429,0.148,19.653,118.774,19.836
0.340,-0.426,0.162,16.846,113.647,20.325
0.369,-0.427,0.177,14.465,106.567,21.301
0.377,-0.427,0.178,12.207,97.900,22.339
0.378,-0.444,0.170,10.010,89.050,23.682
0.379,-0.473,0.164,8.423,80.322,24.963
0.379,-0.493,0.159,6.042,72.083,26.245
0.376,-0.498,0.155,3.784,64.209,27.283
0.369,-0.510,0.152,1.648,57.678,27.893
0.362,-0.526,0.149,-0.427,52.124,28.015
0.350,-0.534,0.139,-2.563,47.485,27.344
0.341,-0.535,0.126,-4.395,44.067,26.306
0.340,-0.560,0.110,-5.859,42.297,25.391
0.340,-0.609,0.093,-7.324,41.809,24.292
0.338,-0.648,0.083,-9.277,42.114,22.339
0.333,-0.672,0.084,-12.024,43.823,19.287
0.341,-0.701,0.085,-14.648,46.265,15.259
0.352,-0.729,0.083,-16.968,49.255,10.498
0.355,-0.764,0.077,-19.043,53.162,5.249
0.368,-0.801,0.071,-20.447,57.556,-0.366
0.396,-0.828,0.066,-21.484,62.439,-6.104
0.419,-0.847,0.055,-22.400,67.383,-12.207
0.461,-0.868,0.057,-22.644,72.876,-17.334
0.516,-0.891,0.048,-22.217,77.271,-21.301
0.541,-0.896,0.028,-21.057,80.933,-24.597
0.558,-0.903,0.025,-17.883,85.510,-25.940
0.620,-0.920,0.041,-14.282,89.539,-24.475
0.675,-0.926,0.051,-11.230,88.989,-21.240
0.703,-0.928,0.062,-8.301,83.984,-16.785
0.720,-0.926,0.070,-6.775,75.134,-11.169
0.723,-0.926,0.077,-6.287,63.171,-5.127
0.709,-0.929,0.077,-6.592,48.828,0.977
0.677,-0.940,0.069,-6.958,33.508,7.324
0.632,-0.949,0.058,-7.812,18.799,12.878
0.578,-0.952,0.049,-8.484,5.615,17.578
0.519,-0.948,0.039,-9.094,-5.249,21.240
0.465,-0.951,0.032,-8.545,-13.672,23.437
0.416,-0.958,0.032,-7.385,-19.348,24.048
0.371,-0.963,0.036,-5.676,-22.644,23.010
0.341,-0.973,0.042,-3.784,-23.621,20.630
0.316,-0.979,0.050,-1.221,-23.071,17.212
0.305,-0.992,0.055,0.549,-21.667,13.367
0.300,-0.993,0.053,1.648,-20.569,8.789
0.298,-0.993,0.044,2.136,-18.433,4.333
0.288,-0.987,0.038,2.136,-15.930,0.488
0.288,-0.983,0.033,2.258,-13.062,-2.502
0.297,-0.977,0.028,2.441,-10.193,-3.601
0.310,-0.976,0.026,1.953,-7.507,-3.723
0.317,-0.974,0.021,1.770,-5.127,-3.296
0.328,-0.968,0.013,1.404,-3.479,-2.441
0.333,-0.958,0.004,1.770,-2.014,-0.916
0.335,-0.949,-0.008,2.502,-1.343,0.610
0.335,-0.950,-0.017,4.211,-1.099,2.075
0.336,-0.952,-0.027,6.226,-1.099,2.747
0.333,-0.948,-0.033,8.484,-1.404,2.258
0.329,-0.943,-0.036,11.169,-2.075,0.916
0.328,-0.930,-0.034,12.939,-2.991,-0.854
0.333,-0.910,-0.031,14.160,-5.005,-2.258
0.338,-0.886,-0.032,15.198,-8.057,-2.808
0.340,-0.866,-0.035,15.930,-11.780,-2.502
0.338,-0.851,-0.031,16.785,-15.991,-1.709
0.327,-0.835,-0.031,17.029,-19.958,-1.587
0.310,-0.821,-0.031,16.479,-23.254,-1.770
0.289,-0.808,-0.031,15.808,-25.085,-2.441
0.266,-0.789,-0.045,14.954,-25.269,-3.845
0.247,-0.773,-0.056,14.038,-22.766,-7.263
0.236,-0.730,-0.047,12.390,-18.066,-12.817
0.245,-0.658,-0.052,10.193,-12.451,-18.616
0.259,-0.585,-0.060,8.972,-7.019,-23.132
0.271,-0.520,-0.065,9.094,-2.441,-26.489
0.279,-0.476,-0.083,11.047,0.488,-28.931

-0.106,-0.873,1.738,-146.057,-30.701,-31.921
-0.459,0.135,0.699,-179.932,26.855,-32.349
-0.376,0.248,0.357,-128.540,66.528,-32.959
-0.077,0.034,-0.102,-53.894,69.397,-31.128
0.077,-0.239,-0.376,4.883,55.786,-21.057
0.216,-0.532,-0.556,27.710,44.067,-14.282
0.458,-0.890,-0.431,27.954,34.424,-9.827
0.653,-1.121,-0.078,24.292,21.973,-3.967
0.650,-1.350,0.146,22.705,7.324,-4.761
0.487,-1.576,0.392,14.587,8.545,-3.662
0.166,-1.538,0.381,-5.310,22.034,-3.235
0.127,-1.480,0.005,-29.419,32.166,-3.052
0.302,-1.456,-0.204,-37.109,44.861,10.742
0.286,-1.425,-0.040,-30.090,47.913,24.353
0.151,-1.743,-0.200,-2.869,30.762,10.437
0.305,-1.906,-0.034,13.794,35.583,9.888
0.179,-1.823,-0.239,10.681,54.871,10.498
0.297,-1.989,-0.317,1.709,69.580,11.230
0.410,-1.959,-0.422,-6.592,66.589,9.277
0.518,-1.902,-0.265,-7.874,59.692,6.165
0.544,-1.987,-0.218,-0.977,50.659,7.202
0.398,-1.883,-0.168,9.094,40.222,0.122
0.384,-1.958,-0.297,8.240,35.034,0.183
0.388,-1.889,-0.251,6.042,36.621,3.601
0.344,-1.801,-0.183,6.226,31.067,2.502
0.254,-1.726,-0.238,6.775,21.118,0.610
0.204,-1.665,-0.236,6.958,11.230,-1.709
0.166,-1.647,-0.169,8.545,5.005,-1.831
0.118,-1.625,-0.124,11.230,2.991,-0.610
0.040,-1.605,-0.131,13.245,0.732,-1.343
-0.001,-1.592,-0.172,14.404,-0.732,-0.366
-0.011,-1.628,-0.206,15.747,-1.892,0.610
0.015,-1.643,-0.186,15.625,-0.061,-0.366
0.089,-1.682,-0.159,15.686,1.831,-2.808
0.135,-1.753,-0.126,14.954,1.465,-3.601
0.128,-1.792,-0.096,9.277,-0.122,-6.042
0.130,-1.841,-0.015,-0.793,0.732,-10.010
0.138,-1.911,0.060,-12.390,2.930,-11.719
0.168,-1.941,0.123,-25.391,4.700,-10.864
0.224,-1.948,0.168,-37.170,3.174,-8.911
0.237,-1.944,0.131,-43.945,-2.197,-6.836
0.223,-1.860,0.094,-51.025,-4.944,-7.202
0.248,-1.732,0.051,-58.533,-2.869,-7.935
0.271,-1.645,0.019,-61.890,2.686,-5.615
0.251,-1.581,-0.004,-63.293,10.803,-2.930
0.212,-1.517,-0.028,-62.256,20.569,-1.221
0.198,-1.438,-0.040,-60.425,31.250,0.305
0.204,-1.357,-0.041,-57.556,42.480,2.686
0.211,-1.280,-0.040,-52.185,52.124,5.249
0.215,-1.205,-0.031,-45.044,59.387,7.019
0.224,-1.146,-0.020,-36.865,64.148,7.996
0.231,-1.098,-0.005,-28.442,66.162,8.484
0.237,-1.067,0.004,-20.691,66.101,8.179
0.242,-1.043,0.003,-14.832,64.148,7.080
0.246,-1.017,-0.004,-10.376,60.608,5.127
0.247,-0.983,-0.011,-6.775,56.946,3.540
0.253,-0.948,-0.015,-3.906,53.650,2.380
0.254,-0.908,-0.018,-1.526,50.293,1.282
0.257,-0.866,-0.019,-0.122,47.546,0.549
0.260,-0.818,-0.020,0.488,44.861,0.000
0.261,-0.772,-0.030,1.526,41.931,-0.183
0.262,-0.732,-0.037,2.930,38.757,-0.183
0.274,-0.712,-0.042,4.639,35.278,0.671
0.276,-0.654,-0.036,6.409,31.555,1.099
0.286,-0.627,-0.033,8.667,27.466,2.686
0.291,-0.592,-0.025,10.925,22.522,4.272
0.297,-0.583,-0.017,13.855,16.785,6.042
0.295,-0.569,-0.008,16.479,10.864,7.080
0.293,-0.548,-0.002,19.043,4.639,7.935
0.296,-0.524,0.002,21.912,-1.587,8.545
0.302,-0.513,0.002,24.597,-7.019,9.277
0.302,-0.501,0.005,26.672,-12.207,9.705
0.300,-0.486,0.012,28.320,-17.334,9.766
0.300,-0.484,0.014,29.968,-21.912,9.583
0.292,-0.464,0.012,31.311,-25.635,9.155
0.291,-0.472,0.012,32.776,-28.381,9.460
0.290,-0.485,0.006,33.386,-30.396,8.972
0.281,-0.496,0.001,33.569,-31.433,8.789
0.267,-0.490,-0.001,33.264,-31.616,9.155
0.260,-0.489,-0.007,33.264,-31.067,11.047
0.254,-0.497,-0.014,33.264,-29.846,13.367
0.242,-0.509,-0.024,33.264,-27.466,15.381
0.227,-0.531,-0.031,32.104,-24.231,17.761
0.210,-0.563,-0.038,30.212,-20.081,19.714
0.196,-0.605,-0.046,27.405,-14.832,21.423
0.193,-0.647,-0.048,23.621,-9.216,21.851
0.200,-0.696,-0.047,19.531,-3.113,20.935
0.206,-0.739,-0.041,15.015,2.869,18.677
0.219,-0.779,-0.034,9.888,8.789,15.320
0.244,-0.820,-0.029,5.249,13.000,10.925
0.276,-0.854,-0.021,1.221,15.686,6.042
0.305,-0.881,-0.012,-2.197,16.541,1.343
0.326,-0.901,-0.011,-4.639,15.442,-2.930
0.351,-0.919,-0.009,-5.859,13.184,-6.409
0.385,-0.928,-0.004,-6.958,10.925,-9.583
0.419,-0.942,-0.003,-6.836,8.057,-11.963
0.449,-0.948,-0.001,-6.470,4.883,-14.160
0.475,-0.964,0.000,-5.798,1.831,-16.541
0.497,-0.980,0.001,-5.066,-0.793,-19.043
0.523,-0.989,0.006,-4.456,-3.113,-21.423
0.555,-0.983,0.010,-3.906,-5.798,-23.132
0.582,-0.976,0.016,-2.808,-9.216,-23.865
0.594,-0.968,0.016,-1.282,-13.245,-23.743
0.601,-0.968,0.025,0.122,-17.151,-22.278
0.601,-0.979,0.018,1.770,-20.935,-19.714
0.576,-0.945,0.027,2.136,-23.987,-16.052
0.579,-1.000,0.017,3.113,-26.611,-9.399
0.550,-0.978,0.023,2.136,-29.114,-4.517
0.526,-0.978,0.015,1.282,-30.579,1.892
0.506,-1.010,0.033,1.099,-30.334,9.094
0.472,-1.014,0.019,-0.305,-31.494,14.832
0.442,-1.051,0.001,-1.953,-31.067,20.752
0.412,-1.069,-0.010,-5.066,-28.992,23.376
0.391,-1.063,-0.004,-7.568,-26.306,23.865
0.383,-1.057,0.012,-8.667,-23.865,23.254
0.395,-1.072,0.019,-8.545,-23.132,20.935
0.419,-1.079,0.025,-8.057,-24.597,16.541
0.453,-1.077,0.028,-7.568,-27.954,11.658
0.490,-1.073,0.026,-6.653,-34.607,7.385

0.971,-1.857,3.506,2.014,-116.577,-82.520
0.537,-0.390,1.651,-81.299,-252.258,-94.604
-0.437,-0.402,0.639,-65.063,-221.497,-37.048
-0.449,-0.567,0.378,-38.513,-129.150,-18.250
-0.490,-0.791,0.261,-15.015,-28.259,-17.517
-0.358,-0.908,0.057,-6.958,64.636,-21.484
0.194,-0.979,-0.174,-6.348,112.122,-21.423
0.307,-1.104,-0.188,-10.681,117.432,-27.283
0.350,-1.230,-0.171,-22.034,91.431,-48.218
0.696,-1.447,-0.035,-28.564,44.495,-65.491
0.758,-1.748,0.110,-25.208,1.587,-61.523
0.468,-1.961,0.483,-25.635,-9.644,-63.171
0.418,-1.757,0.477,-39.063,-1.953,-67.322
0.372,-1.613,0.136,-45.166,11.414,-55.725
0.244,-1.658,-0.115,-37.415,16.846,-51.086
0.199,-1.847,-0.120,-29.175,10.986,-53.955
0.274,-2.088,-0.114,-24.292,0.122,-52.917
0.357,-2.211,-0.030,-30.457,-4.700,-44.739
0.261,-2.147,-0.033,-39.917,-3.845,-43.518
0.259,-2.063,0.021,-45.593,-5.798,-43.579
0.228,-1.994,-0.002,-49.866,-11.536,-38.818
0.186,-1.881,-0.019,-49.194,-18.982,-33.447
0.123,-1.726,-0.080,-45.044,-27.466,-30.273
0.057,-1.632,-0.043,-37.170,-32.349,-27.222
-0.000,-1.611,0.015,-26.917,-31.372,-22.705
-0.090,-1.575,0.010,-19.775,-28.259,-18.677
-0.199,-1.532,0.001,-14.465,-22.827,-14.282
-0.285,-1.528,-0.042,-9.949,-16.357,-8.545
-0.333,-1.565,-0.065,-2.747,-7.751,-2.625
-0.350,-1.613,-0.081,7.080,2.014,2.258
-0.349,-1.678,-0.122,17.700,13.794,5.859
-0.314,-1.753,-0.110,27.100,27.893,8.911
-0.247,-1.809,-0.039,34.058,44.067,11.719
-0.162,-1.853,0.083,36.011,59.631,13.306
-0.079,-1.924,0.199,37.964,71.533,11.414
-0.016,-1.997,0.279,39.429,75.317,8.301
0.063,-2.058,0.334,39.612,70.068,4.333
0.107,-2.081,0.344,34.912,56.213,-0.610
0.038,-2.027,0.278,24.963,39.001,-5.127
-0.005,-1.908,0.210,7.935,29.297,-9.583
-0.004,-1.796,0.114,-9.277,28.687,-11.841
-0.010,-1.693,0.049,-22.705,36.621,-10.193
-0.026,-1.572,0.038,-34.546,48.340,-6.409
-0.032,-1.469,0.040,-43.091,61.157,-1.709
-0.020,-1.375,0.037,-47.302,73.059,3.906
0.005,-1.286,0.038,-47.485,81.726,9.644
0.032,-1.204,0.042,-43.335,86.975,15.259
0.047,-1.126,0.045,-35.645,88.562,19.592
0.053,-1.066,0.043,-25.635,88.135,23.071
0.058,-1.021,0.052,-14.954,86.731,24.780
0.066,-0.988,0.064,-4.700,84.900,24.963
0.073,-0.961,0.076,5.249,83.008,24.231
0.084,-0.940,0.089,13.794,80.566,22.339
0.101,-0.926,0.094,21.118,77.454,18.738
0.121,-0.906,0.090,26.428,74.280,14.832
0.138,-0.867,0.090,29.907,71.533,10.803
0.153,-0.819,0.093,31.677,69.031,7.019
0.167,-0.775,0.083,31.799,66.833,4.333
0.182,-0.743,0.074,31.006,65.125,2.747
0.199,-0.724,0.077,29.541,64.026,2.014
0.224,-0.729,0.089,26.672,63.171,2.014
0.252,-0.724,0.103,22.949,61.035,2.258
0.275,-0.693,0.121,18.677,57.922,2.686
0.291,-0.654,0.135,14.404,53.223,3.784
0.302,-0.614,0.141,10.925,46.997,5.249
0.310,-0.580,0.139,8.545,40.466,7.141
0.314,-0.549,0.137,7.141,33.691,9.399
0.316,-0.531,0.138,7.202,27.161,11.780
0.317,-0.524,0.132,7.751,20.935,14.099
0.311,-0.512,0.127,8.911,15.015,16.235
0.298,-0.500,0.117,9.888,9.705,18.433
0.285,-0.499,0.108,11.780,5.554,21.362
0.274,-0.500,0.095,13.489,2.075,25.085
0.263,-0.498,0.078,15.259,-0.305,28.992
0.244,-0.500,0.065,16.663,-0.671,33.020
0.223,-0.507,0.057,17.456,-0.122,36.621
0.204,-0.517,0.050,17.456,1.404,39.246
0.188,-0.525,0.041,16.052,4.395,41.260
0.181,-0.544,0.035,13.855,7.507,42.664
0.172,-0.579,0.023,11.353,10.742,43.030
0.156,-0.615,0.015,8.606,14.221,43.457
0.139,-0.639,0.008,6.042,17.883,43.945
0.131,-0.658,0.006,3.357,21.851,44.128
0.122,-0.682,0.010,0.122,25.818,43.274
0.109,-0.713,0.010,-2.441,30.151,40.955
0.102,-0.750,0.008,-4.761,34.424,37.537
0.113,-0.793,0.006,-6.531,39.063,32.837
0.138,-0.831,0.007,-7.751,43.884,27.283
0.169,-0.862,0.010,-8.118,48.096,20.264
0.212,-0.904,0.019,-7.935,51.697,11.963
0.265,-0.938,0.031,-7.568,54.688,2.258
0.322,-0.959,0.039,-7.202,55.786,-7.568
0.387,-0.972,0.043,-6.287,55.603,-18.127
0.452,-0.971,0.053,-5.676,53.711,-27.283
0.512,-0.953,0.064,-4.578,50.293,-33.752
0.578,-0.937,0.072,-3.357,45.166,-35.950
0.630,-0.933,0.082,-1.648,38.452,-35.156
0.651,-0.938,0.086,0.000,30.457,-31.982
0.651,-0.944,0.089,1.160,22.583,-26.550
0.647,-0.947,0.089,1.526,15.198,-19.653
0.624,-0.954,0.079,1.099,8.484,-12.268
0.593,-0.959,0.062,-0.427,3.784,-4.517
0.564,-0.963,0.057,-2.258,0.916,2.441
0.531,-0.960,0.054,-4.150,-0.488,8.850
0.500,-0.954,0.046,-5.493,-0.427,13.855
0.475,-0.954,0.043,-6.165,0.854,16.785
0.454,-0.964,0.042,-6.592,2.319,18.127
0.445,-0.971,0.040,-6.897,3.357,18.372
0.440,-0.977,0.042,-6.714,3.601,17.456
0.440,-0.979,0.051,-6.531,2.625,16.235
0.441,-0.980,0.056,-5.188,-0.183,15.076
0.443,-0.976,0.066,-3.052,-3.845,14.343
0.448,-0.970,0.073,-1.038,-8.484,13.428
0.457,-0.970,0.080,1.038,-13.977,12.939
0.465,-0.980,0.084,2.808,-20.325,12.451
0.471,-0.979,0.083,3.418,-27.710,11.658
0.477,-0.966,0.082,3.235,-35.461,11.108
0.475,-0.955,0.076,2.991,-43.030,10.925
0.468,-0.943,0.069,2.136,-49.744,10.864

-1.013,-0.142,0.215,-144.531,-412.231,-140.930
-1.458,0.543,-0.142,-113.464,-270.325,-110.352
-1.206,0.020,0.105,-73.181,-161.133,-69.580
-1.299,-0.309,0.546,-46.326,-77.881,-57.739
-0.895,-0.465,0.466,-21.118,-13.733,-63.416
-0.616,-0.733,0.266,-11.292,31.616,-69.153
-0.225,-0.994,-0.004,-24.719,66.956,-70.862
0.269,-1.315,0.063,-27.893,85.632,-64.026
0.456,-1.774,0.422,-24.963,71.655,-70.923
0.590,-2.118,0.572,-25.818,43.030,-84.167
0.664,-2.051,0.427,-32.166,25.024,-89.478
0.467,-2.060,0.139,-41.626,24.719,-88.928
0.361,-1.756,-0.034,-45.959,35.400,-89.844
0.290,-1.932,-0.130,-36.133,31.555,-92.224
0.445,-2.085,-0.121,-23.682,21.301,-80.627
0.486,-2.130,-0.022,-24.597,12.512,-62.927
0.277,-2.158,-0.025,-34.485,1.404,-55.115
0.184,-2.055,-0.071,-36.255,-4.700,-53.955
0.123,-2.001,-0.020,-35.339,-6.226,-52.795
0.084,-1.981,0.003,-36.011,-9.583,-50.232
-0.017,-1.907,-0.037,-34.729,-15.564,-44.861
-0.064,-1.880,-0.073,-26.367,-16.968,-36.621
-0.090,-1.806,-0.018,-13.672,-15.930,-25.757
-0.173,-1.753,-0.049,-2.563,-17.151,-13.428
-0.290,-1.754,-0.111,5.615,-14.099,-0.916
-0.369,-1.741,-0.139,15.320,-7.019,9.827
-0.382,-1.731,-0.116,24.963,2.014,19.165
-0.360,-1.777,-0.067,33.020,13.489,25.940
-0.331,-1.843,-0.035,39.490,23.376,28.015
-0.260,-1.835,-0.013,43.945,32.410,26.428
-0.197,-1.825,0.034,44.861,41.687,24.658
-0.172,-1.849,0.073,42.847,49.011,23.621
-0.176,-1.882,0.130,37.964,53.894,22.888
-0.181,-1.891,0.180,32.227,55.847,21.790
-0.162,-1.864,0.207,25.635,57.373,19.409
-0.113,-1.855,0.243,18.433,62.439,17.944
-0.076,-1.809,0.211,9.216,70.068,17.944
-0.057,-1.721,0.162,-2.625,78.552,20.935
-0.036,-1.657,0.122,-12.695,88.074,27.344
-0.019,-1.579,0.155,-23.254,98.999,32.837
-0.009,-1.519,0.160,-31.494,107.605,37.170
0.020,-1.468,0.148,-36.621,111.755,42.114
0.048,-1.387,0.146,-40.894,112.122,46.448
0.063,-1.302,0.145,-42.297,109.802,50.171
0.076,-1.224,0.145,-40.344,105.591,52.856
0.085,-1.159,0.143,-35.828,99.731,54.199
0.091,-1.111,0.140,-29.419,93.323,53.833
0.093,-1.062,0.143,-22.644,87.158,51.697
0.102,-1.025,0.137,-15.015,81.055,48.218
0.115,-0.999,0.136,-7.019,76.172,43.152
0.122,-0.951,0.133,0.000,72.449,36.926
0.134,-0.896,0.121,6.165,69.031,30.640
0.152,-0.845,0.121,11.047,66.589,24.597
0.174,-0.813,0.137,14.160,65.247,18.616
0.197,-0.778,0.155,15.930,63.538,13.489
0.219,-0.739,0.172,15.381,61.768,10.071
0.231,-0.699,0.183,13.428,59.082,8.423
0.243,-0.669,0.188,10.681,56.274,8.484
0.250,-0.637,0.183,7.690,52.979,9.705
0.250,-0.602,0.177,4.639,49.377,11.902
0.248,-0.570,0.168,2.441,45.532,14.709
0.245,-0.550,0.157,1.465,41.626,18.372
0.239,-0.536,0.147,1.282,37.964,21.729
0.226,-0.515,0.137,2.258,34.546,24.902
0.210,-0.501,0.113,4.272,31.921,27.405
0.207,-0.492,0.089,6.897,30.457,29.602
0.209,-0.492,0.080,10.315,30.884,31.250
0.209,-0.497,0.082,13.733,32.288,32.532
0.206,-0.499,0.089,16.724,33.752,33.142
0.206,-0.497,0.100,19.165,35.339,33.264
0.211,-0.501,0.101,21.301,36.987,32.776
0.210,-0.525,0.099,22.278,38.574,32.043
0.211,-0.561,0.099,22.400,39.917,31.555
0.216,-0.584,0.103,20.996,40.955,31.189
0.221,-0.591,0.110,18.372,41.260,31.006
0.229,-0.605,0.116,15.015,40.222,30.579
0.235,-0.642,0.110,10.925,38.757,29.785
0.239,-0.693,0.098,5.920,37.354,28.503
0.248,-0.730,0.083,0.244,36.255,26.489
0.259,-0.754,0.065,-5.859,35.461,24.292
0.276,-0.774,0.051,-11.230,34.729,22.583
0.295,-0.802,0.043,-15.442,34.119,20.386
0.311,-0.828,0.037,-19.104,33.691,17.090
0.321,-0.852,0.033,-21.545,32.898,13.550
0.329,-0.865,0.031,-22.766,32.227,9.521
0.343,-0.867,0.030,-23.132,31.860,5.676
0.363,-0.872,0.030,-22.705,31.555,1.892
0.384,-0.882,0.029,-21.118,31.128,-2.380
0.406,-0.883,0.035,-18.555,31.189,-6.531
0.429,-0.876,0.041,-15.564,31.433,-11.475
0.450,-0.862,0.044,-12.268,31.738,-16.174
0.472,-0.842,0.050,-8.850,31.982,-20.142
0.492,-0.833,0.057,-5.737,32.898,-22.949
0.512,-0.838,0.064,-1.953,33.325,-24.902
0.526,-0.844,0.070,0.916,33.569,-25.818
0.531,-0.837,0.079,2.686,33.630,-25.696
0.536,-0.832,0.085,4.272,32.776,-24.292
0.538,-0.834,0.090,5.798,31.067,-21.851
0.536,-0.843,0.091,6.653,28.748,-18.433
0.527,-0.848,0.087,7.019,25.940,-14.343
0.518,-0.858,0.088,6.348,23.254,-9.460
0.511,-0.879,0.083,5.005,20.142,-4.883
0.501,-0.901,0.072,3.174,16.785,-1.648
0.488,-0.935,0.058,1.282,13.611,1.526
0.468,-0.956,0.039,-0.488,10.742,3.479
0.448,-0.945,0.038,-1.221,8.301,3.845
0.426,-0.943,0.041,-0.061,5.859,2.930
0.405,-0.945,0.040,2.319,2.747,1.526
0.387,-0.940,0.045,4.578,-0.305,-0.061
0.373,-0.940,0.053,7.324,-3.296,-1.038
0.360,-0.946,0.057,9.888,-6.531,-1.343
0.344,-0.955,0.059,12.268,-9.094,-1.526
0.328,-0.959,0.064,13.977,-10.559,-1.343
0.317,-0.967,0.068,15.137,-11.963,-1.282
0.305,-0.969,0.071,15.808,-12.634,-1.587
0.297,-0.972,0.073,15.625,-12.390,-2.075
0.286,-0.973,0.073,15.076,-11.353,-2.869
0.271,-0.964,0.067,13.367,-9.949,-3.174
0.259,-0.953,0.048,10.742,-7.629,-3.357

0.250,-1.985,-0.406,-10.315,84.717,18.494
0.238,-1.877,-0.365,-13.123,102.295,18.677
0.295,-1.924,-0.390,-4.211,103.210,20.874
0.254,-1.886,-0.403,7.080,103.760,18.372
0.262,-1.914,-0.443,12.573,105.286,18.921
0.312,-1.992,-0.465,17.029,109.680,26.062
0.319,-2.017,-0.402,19.348,110.718,20.508
0.352,-1.995,-0.353,20.996,107.788,8.728
0.438,-2.017,-0.356,18.555,100.281,4.272
0.482,-2.100,-0.329,14.954,92.407,1.709
0.495,-2.123,-0.287,9.216,83.923,-3.784
0.525,-2.147,-0.239,2.136,72.327,-8.911
0.555,-2.159,-0.196,-6.775,55.969,-15.381
0.580,-2.142,-0.151,-20.203,35.034,-24.597
0.606,-2.092,-0.083,-35.095,11.841,-34.668
0.582,-2.029,-0.097,-47.791,-13.428,-42.786
0.520,-1.956,-0.123,-54.626,-37.170,-44.495
0.450,-1.870,-0.175,-59.143,-53.589,-39.673
0.348,-1.773,-0.249,-62.378,-57.129,-32.104
0.242,-1.667,-0.296,-65.674,-45.044,-23.743
0.193,-1.576,-0.289,-66.956,-20.752,-13.916
0.181,-1.518,-0.284,-65.247,7.751,-4.883
0.184,-1.483,-0.261,-61.829,37.842,1.526
0.212,-1.423,-0.232,-59.265,65.247,7.446
0.259,-1.328,-0.207,-57.068,86.670,13.062
0.306,-1.228,-0.173,-53.345,101.318,17.456
0.345,-1.143,-0.136,-47.302,108.215,20.386
0.375,-1.071,-0.105,-39.124,107.300,21.484
0.393,-1.007,-0.077,-30.151,100.464,21.240
0.399,-0.945,-0.055,-21.851,89.233,19.897
0.392,-0.891,-0.045,-14.099,74.890,18.188
0.380,-0.843,-0.042,-6.836,58.960,16.357
0.366,-0.790,-0.036,-0.183,42.664,15.442
0.357,-0.742,-0.032,5.981,26.245,14.893
0.345,-0.705,-0.033,11.658,9.644,14.526
0.329,-0.674,-0.040,17.212,-5.920,14.526
0.310,-0.651,-0.048,22.095,-20.386,14.160
0.289,-0.631,-0.055,25.696,-32.959,13.550
0.268,-0.603,-0.057,28.137,-43.640,12.939
0.252,-0.570,-0.062,30.212,-52.979,12.146
0.245,-0.545,-0.063,31.616,-60.669,11.658
0.240,-0.526,-0.058,32.593,-67.688,10.803
0.225,-0.510,-0.054,33.447,-74.097,9.827
0.210,-0.495,-0.052,34.058,-78.918,8.972
0.202,-0.488,-0.049,34.241,-83.008,7.996
0.193,-0.473,-0.044,33.813,-85.999,6.714
0.182,-0.456,-0.032,32.593,-87.830,5.615
0.169,-0.435,-0.026,30.762,-88.989,4.272
0.153,-0.419,-0.024,28.748,-89.050,3.540
0.146,-0.402,-0.023,27.222,-88.074,3.845
0.145,-0.389,-0.020,25.452,-86.487,3.967
0.137,-0.405,-0.017,24.414,-84.167,4.150
0.127,-0.443,-0.022,22.583,-80.750,3.906
0.116,-0.484,-0.023,20.203,-76.111,2.563
0.105,-0.511,-0.025,17.395,-70.313,0.793
0.092,-0.529,-0.033,14.587,-63.538,-1.221
0.081,-0.553,-0.038,12.024,-55.664,-2.808
0.085,-0.584,-0.045,10.010,-46.875,-3.479
0.095,-0.620,-0.046,8.057,-37.170,-4.456
0.101,-0.670,-0.043,6.165,-27.405,-5.859
0.114,-0.742,-0.040,3.723,-17.334,-7.935
0.141,-0.812,-0.035,0.793,-7.812,-11.108
0.174,-0.874,-0.029,-2.258,0.122,-14.954
0.201,-0.918,-0.028,-4.150,6.836,-18.921
0.226,-0.953,-0.024,-5.981,12.634,-21.912
0.261,-0.990,-0.024,-7.996,16.724,-23.804
0.295,-1.021,-0.028,-9.460,19.775,-25.330
0.319,-1.047,-0.029,-10.742,21.912,-27.039
0.339,-1.070,-0.032,-11.658,23.804,-29.480
0.367,-1.093,-0.034,-12.695,25.696,-32.532
0.399,-1.106,-0.033,-13.306,27.832,-35.217
0.437,-1.104,-0.024,-12.878,29.602,-37.415
0.470,-1.088,-0.020,-12.268,30.029,-38.879
0.488,-1.056,-0.020,-10.925,29.541,-39.490
0.507,-1.016,-0.021,-9.216,28.564,-39.001
0.540,-0.990,-0.020,-7.629,27.710,-37.048
0.557,-0.967,-0.022,-6.165,26.733,-33.630
0.562,-0.946,-0.025,-4.456,25.635,-29.175
0.578,-0.938,-0.021,-2.686,24.658,-23.621
0.600,-0.932,-0.014,-0.977,23.437,-17.212
0.614,-0.939,-0.006,1.282,21.484,-10.071
0.618,-0.940,-0.002,2.441,18.372,-3.174
0.613,-0.946,0.001,2.930,14.160,3.540
0.604,-0.951,0.005,3.296,9.033,9.888
0.590,-0.957,0.008,3.601,3.357,15.564
0.572,-0.969,0.010,3.235,-2.441,21.240
0.552,-0.983,0.013,2.991,-8.606,26.062
0.531,-0.995,0.014,2.380,-15.137,29.846
0.510,-1.002,0.011,1.892,-21.667,32.227
0.497,-1.016,0.012,1.831,-27.954,33.691
0.487,-1.037,0.007,1.953,-33.936,34.058
0.489,-1.043,0.000,2.441,-39.490,33.386
0.487,-1.033,-0.002,3.113,-45.349,31.982
0.489,-1.028,-0.007,3.418,-51.208,30.762
0.510,-1.026,-0.007,4.517,-57.007,29.785
0.554,-1.039,0.002,6.653,-64.087,28.381
0.594,-1.055,0.002,8.972,-73.669,26.062
0.611,-1.048,0.000,11.108,-84.473,22.461
0.614,-1.031,-0.017,13.123,-95.764,19.226
0.615,-1.028,-0.022,14.343,-106.140,17.273
0.618,-1.030,-0.018,14.954,-116.028,15.808
0.620,-1.022,-0.027,14.343,-125.427,15.015
0.638,-1.009,-0.038,12.756,-133.362,14.893
0.680,-1.002,-0.059,11.841,-140.442,14.404
0.708,-1.012,-0.057,12.146,-146.729,14.282
0.727,-1.003,-0.061,10.864,-154.846,15.442
0.730,-0.970,-0.078,9.521,-166.138,18.311
0.692,-0.928,-0.113,7.935,-178.589,23.376
0.632,-0.899,-0.147,7.874,-188.293,30.029
0.592,-0.858,-0.155,7.935,-194.458,36.194
0.548,-0.824,-0.166,8.484,-199.097,41.382
0.483,-0.818,-0.189,8.789,-201.294,44.922
0.402,-0.788,-0.208,7.629,-200.439,46.082
0.340,-0.741,-0.218,5.493,-195.801,45.898
0.281,-0.698,-0.225,2.808,-186.707,44.617
0.214,-0.654,-0.226,0.366,-174.438,41.077
0.164,-0.609,-0.228,-1.160,-159.790,35.400
0.141,-0.560,-0.215,-2.502,-145.203,28.564
0.127,-0.502,-0.213,-2.747,-133.423,20.752

0.500,-1.463,2.848,-64.697,-84.045,-74.036
-0.157,-0.226,1.196,-149.048,-162.537,-108.215
-0.410,-0.094,0.557,-130.005,-190.552,-113.647
-0.338,-0.251,0.273,-88.623,-197.388,-104.858
-0.547,-0.274,-0.007,-59.204,-204.102,-82.153
-0.825,-0.341,-0.231,-37.598,-173.767,-62.927
-0.799,-0.438,-0.390,-15.808,-106.567,-49.927
-0.672,-0.634,-0.347,-1.526,-19.104,-41.077
-0.396,-0.906,-0.136,2.747,47.485,-43.030
-0.143,-1.061,0.159,-2.014,71.472,-58.838
-0.019,-1.280,0.392,-18.127,56.885,-77.759
0.056,-1.491,0.635,-41.443,23.743,-88.074
0.040,-1.526,0.665,-67.078,-6.653,-94.543
-0.005,-1.545,0.548,-88.623,-19.470,-94.238
-0.113,-1.363,0.359,-97.534,-15.259,-95.581
-0.152,-1.127,0.073,-89.844,-7.812,-102.112
-0.083,-1.241,0.116,-73.242,6.348,-100.220
-0.123,-1.548,0.118,-55.420,13.794,-94.910
0.033,-1.643,0.273,-38.879,12.634,-88.745
-0.049,-1.783,0.389,-34.912,-4.211,-78.491
-0.188,-1.946,0.289,-28.992,-20.691,-74.585
-0.369,-1.983,0.084,-26.245,-34.546,-64.575
-0.581,-1.910,-0.208,-20.203,-33.203,-49.561
-0.702,-1.943,-0.358,-8.240,-14.893,-32.043
-0.800,-2.063,-0.285,9.155,11.353,-14.587
-0.795,-2.126,-0.162,26.611,42.358,1.892
-0.676,-2.198,-0.087,40.222,71.289,12.512
-0.563,-2.157,0.009,46.692,93.750,16.357
-0.450,-2.164,0.077,50.232,109.741,18.372
-0.347,-2.219,0.125,51.697,115.723,17.456
-0.243,-2.286,0.205,46.997,114.014,12.756
-0.153,-2.284,0.262,33.508,104.980,7.751
-0.093,-2.195,0.234,14.282,89.539,4.761
-0.086,-2.127,0.199,-5.554,74.524,2.319
-0.120,-2.039,0.187,-23.499,64.148,1.587
-0.129,-1.953,0.195,-38.391,58.228,5.066
-0.121,-1.865,0.187,-48.462,54.688,13.367
-0.111,-1.795,0.182,-56.274,53.345,23.682
-0.122,-1.734,0.171,-63.171,53.406,35.156
-0.152,-1.668,0.142,-69.824,54.993,47.852
-0.186,-1.595,0.103,-74.768,59.387,61.401
-0.215,-1.543,0.055,-76.782,65.979,74.219
-0.232,-1.488,0.019,-74.585,74.158,83.313
-0.235,-1.409,-0.001,-68.359,82.703,87.463
-0.215,-1.339,0.005,-56.702,89.905,86.731
-0.175,-1.291,0.027,-41.443,94.238,81.787
-0.132,-1.237,0.040,-25.452,93.994,74.158
-0.104,-1.172,0.042,-10.132,89.966,65.491
-0.091,-1.113,0.027,4.700,83.679,56.213
-0.081,-1.061,0.028,18.188,77.820,47.668
-0.062,-1.004,0.039,29.846,72.510,40.161
-0.028,-0.961,0.056,39.856,67.749,34.363
0.005,-0.935,0.082,47.729,63.782,30.884
0.035,-0.904,0.109,52.673,59.265,28.931
0.069,-0.863,0.140,55.420,54.077,27.649
0.109,-0.828,0.171,56.702,48.889,27.466
0.135,-0.793,0.189,57.068,43.396,27.405
0.142,-0.756,0.200,56.458,38.513,27.588
0.142,-0.725,0.204,55.420,34.790,28.503
0.142,-0.702,0.198,54.321,31.921,29.663
0.139,-0.673,0.190,53.162,30.640,30.762
0.130,-0.640,0.181,51.270,31.250,31.494
0.123,-0.604,0.162,49.500,33.203,31.555
0.120,-0.569,0.139,48.462,36.560,31.433
0.124,-0.543,0.130,47.791,41.870,30.823
0.131,-0.519,0.125,47.729,48.218,29.724
0.138,-0.500,0.118,47.729,55.115,28.564
0.148,-0.487,0.125,46.997,62.134,27.893
0.158,-0.471,0.136,45.227,68.726,27.893
0.165,-0.458,0.145,42.358,74.768,28.320
0.167,-0.443,0.151,38.269,80.078,29.114
0.167,-0.429,0.150,33.569,84.900,30.457
0.167,-0.423,0.147,28.503,89.355,31.921
0.172,-0.425,0.138,23.437,93.323,33.691
0.180,-0.426,0.136,18.677,97.046,35.095
0.190,-0.428,0.133,14.221,100.037,36.560
0.197,-0.439,0.128,10.620,102.356,38.391
0.197,-0.444,0.122,7.385,103.760,39.978
0.194,-0.453,0.115,4.211,104.431,42.114
0.196,-0.472,0.105,1.709,104.370,43.884
0.193,-0.508,0.088,0.000,103.638,45.288
0.195,-0.557,0.068,-1.465,103.088,45.837
0.199,-0.605,0.059,-2.686,103.271,44.983
0.214,-0.664,0.065,-4.395,103.943,42.664
0.233,-0.716,0.076,-7.324,104.431,38.513
0.262,-0.760,0.085,-11.230,103.271,33.325
0.295,-0.807,0.089,-15.137,100.586,28.015
0.318,-0.856,0.084,-19.287,97.168,22.522
0.343,-0.908,0.073,-23.560,93.323,16.602
0.377,-0.958,0.060,-26.550,89.233,9.827
0.420,-1.008,0.046,-28.564,86.182,1.343
0.474,-1.062,0.041,-29.480,84.595,-9.521
0.527,-1.091,0.042,-29.846,84.290,-22.766
0.602,-1.088,0.062,-30.029,83.374,-35.706
0.679,-1.054,0.081,-29.724,79.834,-45.837
0.722,-1.017,0.086,-28.198,73.853,-51.453
0.727,-0.989,0.082,-25.635,66.406,-52.368
0.720,-0.959,0.082,-22.644,58.105,-49.805
0.705,-0.939,0.080,-20.081,49.683,-44.312
0.674,-0.924,0.072,-17.883,41.443,-36.621
0.631,-0.921,0.054,-15.930,34.180,-27.344
0.584,-0.931,0.038,-14.404,28.992,-17.151
0.529,-0.940,0.027,-13.916,26.550,-7.141
0.487,-0.946,0.030,-14.221,26.672,1.526
0.441,-0.950,0.029,-14.648,28.687,8.972
0.401,-0.955,0.028,-13.977,31.189,13.672
0.374,-0.955,0.027,-13.550,33.813,16.052
0.359,-0.963,0.025,-13.184,36.011,16.357
0.352,-0.969,0.023,-12.634,37.598,15.076
0.348,-0.974,0.025,-12.146,37.537,13.062
0.353,-0.988,0.030,-11.169,35.522,10.681
0.365,-0.998,0.038,-10.437,31.250,7.812
0.372,-1.002,0.042,-9.277,24.902,4.272
0.380,-1.004,0.043,-8.118,17.456,0.854
0.385,-1.000,0.046,-6.470,8.972,-2.136
0.385,-0.998,0.045,-4.272,0.000,-4.089
0.382,-0.996,0.035,-1.465,-8.606,-5.371
0.375,-0.990,0.031,1.526,-16.296,-5.920
0.366,-0.983,0.030,4.211,-23.132,-5.676

0.604,-2.125,-0.312,17.639,96.375,20.935
0.480,-2.072,-0.315,21.301,82.642,12.268
0.360,-2.209,-0.495,25.146,73.059,-5.554
0.443,-2.529,-0.633,27.039,66.956,-13.062
0.482,-2.616,-0.612,17.273,68.848,-16.907
0.543,-2.543,-0.614,7.935,72.571,-19.348
0.682,-2.356,-0.545,3.662,64.514,-15.503
0.707,-2.291,-0.471,4.883,49.072,-12.817
0.642,-2.220,-0.411,4.761,26.611,-10.376
0.580,-2.131,-0.372,3.357,2.930,-6.531
0.478,-2.033,-0.340,-0.427,-17.090,-2.991
0.369,-1.958,-0.318,-4.761,-31.311,1.160
0.300,-1.907,-0.293,-9.277,-41.260,4.578
0.229,-1.869,-0.233,-16.296,-48.340,4.211
0.181,-1.895,-0.157,-24.780,-51.453,0.366
0.163,-1.918,-0.098,-32.410,-51.880,-3.113
0.152,-1.905,-0.061,-39.673,-50.964,-5.493
0.137,-1.889,-0.107,-42.297,-49.072,-8.423
0.152,-1.829,-0.151,-41.687,-43.823,-10.742
0.134,-1.745,-0.150,-42.847,-33.386,-12.207
0.104,-1.668,-0.129,-41.504,-18.005,-12.024
0.095,-1.595,-0.119,-39.368,-1.038,-9.644
0.102,-1.521,-0.101,-36.499,15.869,-6.409
0.104,-1.454,-0.083,-34.058,30.945,-3.845
0.106,-1.399,-0.076,-30.823,44.373,-1.465
0.119,-1.349,-0.072,-27.710,55.298,1.038
0.135,-1.300,-0.060,-24.292,62.805,2.136
0.150,-1.264,-0.048,-21.362,66.833,1.770
0.164,-1.235,-0.036,-18.555,67.627,0.305
0.177,-1.199,-0.028,-16.357,65.552,-2.625
0.193,-1.159,-0.018,-14.526,60.852,-6.653
0.202,-1.128,-0.016,-12.512,53.833,-11.658
0.207,-1.114,-0.021,-10.254,45.715,-17.090
0.217,-1.092,-0.029,-8.423,37.354,-22.156
0.229,-1.040,-0.030,-7.324,28.748,-27.283
0.245,-0.968,-0.029,-6.775,20.020,-32.043
0.265,-0.891,-0.021,-6.470,10.986,-35.522
0.288,-0.814,-0.008,-5.798,1.587,-37.720
0.302,-0.741,-0.000,-4.700,-8.362,-39.246
0.297,-0.673,0.000,-3.479,-18.066,-40.161
0.291,-0.607,-0.001,-1.953,-26.550,-40.466
0.293,-0.547,-0.001,-0.183,-33.386,-39.917
0.297,-0.494,-0.002,2.502,-38.879,-38.391
0.304,-0.448,0.001,5.615,-43.884,-36.499
0.307,-0.414,0.007,9.033,-47.729,-34.119
0.306,-0.387,0.014,12.695,-51.025,-31.433
0.303,-0.363,0.014,16.846,-53.589,-28.748
0.305,-0.344,0.012,20.935,-55.725,-26.062
0.304,-0.332,0.013,24.963,-57.068,-23.193
0.298,-0.327,0.011,28.687,-57.922,-20.264
0.291,-0.330,0.011,31.860,-58.044,-17.395
0.284,-0.336,0.012,34.302,-57.556,-14.893
0.278,-0.346,0.019,36.255,-57.129,-12.146
0.271,-0.365,0.030,37.415,-56.213,-9.338
0.262,-0.387,0.037,38.208,-55.420,-6.775
0.257,-0.417,0.039,38.330,-54.871,-4.639
0.255,-0.456,0.042,37.598,-53.589,-3.174
0.258,-0.500,0.047,35.706,-51.697,-2.197
0.262,-0.556,0.045,32.776,-49.500,-1.282
0.267,-0.609,0.041,28.625,-47.607,-0.854
0.273,-0.659,0.038,23.254,-45.532,0.366
0.278,-0.714,0.036,18.311,-44.067,2.502
0.275,-0.774,0.029,13.306,-42.847,5.432
0.258,-0.832,0.016,7.935,-41.504,8.484
0.230,-0.899,-0.001,2.625,-38.513,11.414
0.198,-0.974,-0.022,-3.235,-33.630,14.038
0.167,-1.041,-0.045,-8.850,-26.428,16.357
0.147,-1.086,-0.060,-14.099,-16.907,18.250
0.136,-1.119,-0.073,-19.104,-5.798,19.043
0.128,-1.169,-0.086,-23.865,5.920,18.127
0.126,-1.208,-0.103,-28.198,18.677,15.747
0.135,-1.230,-0.124,-32.715,31.738,12.207
0.158,-1.235,-0.140,-36.865,44.189,7.446
0.190,-1.212,-0.150,-39.551,55.603,2.075
0.236,-1.157,-0.154,-41.016,65.308,-3.235
0.285,-1.088,-0.149,-40.405,72.571,-8.545
0.336,-1.015,-0.141,-37.537,76.843,-13.245
0.380,-0.946,-0.125,-32.410,77.759,-16.296
0.423,-0.889,-0.106,-25.024,75.684,-17.700
0.453,-0.856,-0.092,-16.724,70.801,-17.578
0.474,-0.847,-0.078,-8.362,63.965,-15.442
0.474,-0.845,-0.071,0.061,55.786,-11.902
0.468,-0.850,-0.072,7.629,47.241,-7.019
0.461,-0.866,-0.064,13.733,39.429,-1.587
0.440,-0.882,-0.056,18.311,32.715,4.883
0.416,-0.906,-0.040,20.752,27.405,11.841
0.401,-0.949,-0.028,21.179,22.278,17.883
0.388,-1.000,-0.020,20.752,16.968,22.583
0.381,-1.031,-0.008,19.226,11.475,26.001
0.373,-1.075,-0.006,17.395,5.798,28.503
0.355,-1.132,-0.014,15.564,-0.671,30.029
0.338,-1.156,-0.021,12.817,-6.348,30.334
0.318,-1.151,-0.026,9.888,-11.230,30.640
0.299,-1.148,-0.035,7.629,-15.686,30.396
0.272,-1.139,-0.045,5.737,-19.287,30.457
0.240,-1.124,-0.060,3.845,-21.545,30.701
0.201,-1.107,-0.083,2.686,-21.790,30.701
0.163,-1.099,-0.112,2.136,-19.104,30.640
0.129,-1.089,-0.140,2.319,-13.733,30.396
0.109,-1.061,-0.159,3.052,-6.042,29.297
0.102,-1.042,-0.170,4.639,3.296,27.588
0.106,-1.052,-0.181,6.897,13.367,24.780
0.124,-1.085,-0.180,10.132,22.766,20.081
0.161,-1.141,-0.167,13.916,30.701,13.672
0.198,-1.166,-0.163,16.663,35.339,6.226
0.218,-1.147,-0.158,17.090,37.354,-0.488
0.221,-1.111,-0.144,15.930,37.354,-5.310
0.220,-1.074,-0.142,14.038,35.828,-9.399
0.226,-1.025,-0.160,12.146,34.058,-12.085
0.234,-0.976,-0.182,10.498,33.447,-13.977
0.238,-0.922,-0.210,11.475,35.156,-15.564
0.242,-0.868,-0.229,14.282,39.001,-15.808
0.239,-0.816,-0.250,18.860,44.128,-14.526
0.229,-0.755,-0.274,24.963,51.697,-12.878
0.224,-0.686,-0.284,33.203,61.279,-10.559
0.234,-0.618,-0.292,41.077,71.655,-6.714
0.259,-0.549,-0.301,48.218,80.872,-2.258
0.277,-0.493,-0.309,54.565,87.769,2.686
0.285,-0.427,-0.331,57.922,92.041,6.714

0.374,-1.807,-0.678,4.700,137.146,36.682
0.348,-1.705,-0.809,17.151,127.441,25.635
0.394,-1.764,-0.705,28.198,124.207,29.114
0.411,-1.951,-0.727,46.082,127.136,34.912
0.435,-1.966,-0.717,59.326,132.446,29.297
0.469,-2.015,-0.627,55.237,131.165,20.691
0.563,-2.043,-0.572,49.133,122.009,7.263
0.632,-1.992,-0.557,38.086,104.736,-6.775
0.738,-1.945,-0.501,30.151,91.553,-13.733
0.803,-1.930,-0.446,24.780,78.308,-15.686
0.822,-1.950,-0.455,21.912,57.251,-18.677
0.797,-1.950,-0.457,14.404,29.663,-20.142
0.711,-1.985,-0.472,4.639,2.930,-21.240
0.587,-2.016,-0.472,-4.578,-15.991,-20.447
0.477,-2.054,-0.498,-12.268,-28.015,-19.531
0.397,-2.007,-0.500,-20.020,-34.546,-19.653
0.313,-1.974,-0.484,-29.846,-38.269,-21.545
0.251,-1.935,-0.404,-43.518,-38.757,-26.367
0.211,-1.922,-0.329,-54.810,-37.537,-30.334
0.209,-1.899,-0.264,-63.721,-36.743,-32.471
0.214,-1.855,-0.220,-71.594,-38.147,-34.424
0.195,-1.799,-0.185,-77.820,-42.358,-35.583
0.196,-1.736,-0.166,-82.458,-47.180,-36.011
0.233,-1.654,-0.175,-84.595,-51.575,-35.583
0.274,-1.570,-0.191,-83.618,-54.626,-34.058
0.277,-1.499,-0.162,-82.703,-54.626,-31.616
0.260,-1.456,-0.103,-79.773,-52.490,-29.480
0.254,-1.399,-0.059,-75.623,-51.208,-27.893
0.260,-1.335,-0.046,-71.228,-50.598,-25.024
0.272,-1.301,-0.047,-65.735,-50.232,-20.569
0.270,-1.274,-0.041,-60.242,-50.659,-15.930
0.250,-1.244,-0.043,-55.969,-52.063,-11.963
0.231,-1.207,-0.046,-52.368,-53.711,-8.545
0.216,-1.183,-0.061,-49.194,-55.481,-5.981
0.178,-1.163,-0.092,-47.119,-56.458,-4.456
0.142,-1.136,-0.118,-45.898,-54.626,-3.540
0.116,-1.077,-0.140,-45.105,-50.049,-2.991
0.102,-1.011,-0.152,-43.640,-43.579,-2.075
0.100,-0.960,-0.162,-40.222,-36.072,-1.404
0.109,-0.907,-0.163,-35.889,-29.053,-0.916
0.125,-0.855,-0.151,-30.640,-22.827,-1.099
0.149,-0.815,-0.134,-24.414,-18.677,-1.465
0.172,-0.774,-0.117,-17.090,-16.479,-1.953
0.195,-0.716,-0.099,-10.437,-16.479,-1.831
0.218,-0.653,-0.085,-3.906,-18.738,-2.014
0.236,-0.591,-0.071,1.770,-23.010,-2.319
0.246,-0.543,-0.059,6.592,-28.320,-2.625
0.249,-0.510,-0.052,11.047,-34.607,-2.991
0.244,-0.487,-0.056,14.771,-40.894,-3.601
0.236,-0.462,-0.059,17.395,-46.387,-4.395
0.228,-0.458,-0.056,19.714,-50.293,-5.249
0.212,-0.479,-0.057,21.240,-53.284,-6.409
0.195,-0.484,-0.058,21.423,-54.871,-7.568
0.189,-0.450,-0.053,19.897,-54.810,-7.874
0.191,-0.405,-0.045,18.555,-53.650,-7.629
0.194,-0.388,-0.039,17.883,-51.941,-6.531
0.198,-0.404,-0.033,18.188,-50.537,-5.371
0.203,-0.422,-0.027,18.677,-49.561,-4.150
0.216,-0.433,-0.019,18.860,-49.255,-3.235
0.235,-0.440,-0.015,19.165,-49.622,-2.808
0.257,-0.454,-0.021,19.836,-50.476,-2.319
0.281,-0.481,-0.033,20.569,-51.086,-2.380
0.294,-0.521,-0.047,22.095,-50.720,-2.930
0.297,-0.558,-0.055,23.682,-48.950,-2.930
0.293,-0.598,-0.054,24.658,-46.387,-1.892
0.287,-0.654,-0.057,25.146,-43.091,0.366
0.277,-0.717,-0.066,24.109,-38.574,3.479
0.256,-0.774,-0.082,20.935,-32.959,7.935
0.230,-0.831,-0.103,15.930,-26.489,13.062
0.210,-0.887,-0.118,9.888,-18.616,18.494
0.192,-0.928,-0.128,3.174,-9.583,22.888
0.182,-0.960,-0.126,-2.563,-0.427,25.696
0.183,-0.989,-0.117,-6.836,8.789,26.855
0.188,-1.010,-0.108,-9.827,17.090,26.184
0.198,-1.017,-0.101,-11.169,23.926,23.804
0.217,-1.018,-0.096,-10.864,29.175,20.081
0.242,-1.008,-0.092,-9.399,32.471,15.320
0.281,-0.993,-0.084,-6.836,34.241,9.827
0.332,-0.984,-0.070,-3.784,34.424,3.357
0.374,-0.976,-0.057,0.061,32.349,-3.174
0.416,-0.953,-0.040,4.089,28.198,-8.850
0.458,-0.921,-0.020,7.568,21.667,-12.878
0.487,-0.898,-0.010,10.498,13.306,-14.954
0.505,-0.894,0.002,12.939,4.089,-14.282
0.505,-0.904,0.004,14.282,-5.310,-11.536
0.488,-0.907,0.001,14.893,-14.038,-7.996
0.460,-0.902,0.000,14.526,-21.362,-3.784
0.429,-0.901,-0.005,13.977,-26.733,1.099
0.398,-0.918,-0.009,12.939,-29.846,7.202
0.359,-0.920,-0.009,11.597,-30.579,12.939
0.336,-0.957,-0.015,9.644,-29.297,18.921
0.303,-0.967,-0.007,7.141,-26.733,22.339
0.280,-0.979,-0.009,5.310,-23.865,25.330
0.263,-1.000,-0.007,3.601,-20.142,27.466
0.249,-1.012,-0.001,2.441,-16.541,27.771
0.240,-1.025,0.000,1.770,-13.855,27.344
0.236,-1.051,-0.003,1.038,-11.780,26.062
0.218,-1.069,-0.012,0.610,-10.254,23.376
0.205,-1.063,-0.019,0.122,-8.545,20.447
0.200,-1.042,-0.024,0.061,-6.775,17.334
0.201,-1.024,-0.029,0.854,-5.371,14.099
0.203,-1.005,-0.036,2.441,-3.784,11.292
0.205,-0.991,-0.042,3.723,-2.258,9.033
0.211,-0.997,-0.052,5.920,-1.038,7.446
0.219,-0.998,-0.062,8.423,-0.122,6.165
0.228,-0.983,-0.066,10.254,0.854,5.188
0.231,-0.962,-0.073,12.024,1.404,4.517
0.232,-0.951,-0.083,13.977,1.465,3.906
0.234,-0.935,-0.096,15.564,1.526,2.747
0.240,-0.917,-0.101,16.785,1.709,1.587
0.240,-0.910,-0.102,18.188,1.099,0.671
0.246,-0.919,-0.101,19.470,-0.549,0.244
0.248,-0.916,-0.100,19.836,-3.296,-0.183
0.245,-0.908,-0.108,19.409,-6.348,-0.183
0.242,-0.897,-0.109,19.348,-9.888,0.000
0.238,-0.882,-0.108,20.142,-13.855,-0.061
0.232,-0.870,-0.115,21.179,-18.372,-0.305
0.223,-0.861,-0.117,21.790,-22.217,-0.488
0.208,-0.844,-0.117,22.827,-24.963,-1.099

0.233,-1.781,-0.948,67.383,182.007,18.921
0.186,-2.056,-0.985,72.937,192.139,19.958
0.234,-2.167,-0.887,63.354,211.182,16.907
0.351,-2.015,-0.840,43.579,223.206,8.545
0.497,-1.995,-0.765,31.738,215.759,-7.202
0.678,-2.036,-0.668,25.574,189.941,-23.254
0.854,-2.004,-0.499,9.583,147.278,-29.236
0.987,-2.054,-0.306,-16.907,96.375,-26.733
0.963,-2.010,-0.298,-33.936,43.579,-34.302
0.873,-2.058,-0.322,-47.119,-6.165,-45.044
0.820,-2.152,-0.340,-53.040,-48.279,-61.584
0.849,-2.228,-0.340,-55.115,-81.848,-74.951
0.871,-2.238,-0.343,-58.655,-108.215,-81.726
0.794,-2.231,-0.400,-64.026,-127.319,-79.285
0.678,-2.244,-0.449,-69.458,-137.024,-68.359
0.548,-2.234,-0.435,-77.759,-140.259,-55.847
0.407,-2.190,-0.430,-89.905,-141.846,-46.143
0.280,-2.108,-0.459,-103.699,-142.578,-39.978
0.232,-2.039,-0.442,-114.624,-138.672,-35.950
0.222,-1.987,-0.401,-121.948,-131.592,-32.104
0.183,-1.907,-0.361,-127.319,-123.962,-28.015
0.129,-1.799,-0.316,-130.798,-114.685,-22.095
0.100,-1.697,-0.268,-129.700,-104.675,-12.451
0.074,-1.593,-0.241,-123.413,-96.252,-0.671
0.016,-1.480,-0.228,-111.267,-89.233,11.353
-0.057,-1.369,-0.209,-94.116,-79.224,20.874
-0.097,-1.278,-0.180,-73.975,-64.697,26.978
-0.083,-1.234,-0.151,-52.307,-47.607,30.457
-0.054,-1.228,-0.125,-32.104,-30.029,30.762
-0.024,-1.240,-0.104,-15.442,-13.489,28.503
0.006,-1.259,-0.100,-2.197,-0.305,24.231
0.030,-1.270,-0.105,7.080,9.583,18.738
0.060,-1.249,-0.103,12.817,16.602,12.878
0.099,-1.196,-0.095,16.235,20.691,7.141
0.140,-1.140,-0.086,17.822,21.545,2.258
0.171,-1.087,-0.082,18.799,19.226,-1.038
0.200,-1.032,-0.081,18.738,14.221,-2.747
0.226,-0.977,-0.070,17.761,6.531,-3.174
0.245,-0.923,-0.059,16.174,-3.113,-3.174
0.251,-0.882,-0.052,15.015,-14.648,-3.052
0.253,-0.853,-0.054,13.245,-26.672,-2.258
0.255,-0.820,-0.057,11.108,-38.635,-0.610
0.257,-0.783,-0.058,8.667,-50.232,0.549
0.252,-0.735,-0.064,6.287,-61.401,1.770
0.239,-0.678,-0.072,4.150,-70.984,2.808
0.219,-0.629,-0.079,3.235,-78.552,3.418
0.204,-0.598,-0.090,3.174,-83.923,3.723
0.196,-0.565,-0.100,3.967,-87.463,4.028
0.175,-0.537,-0.109,4.944,-89.355,4.089
0.152,-0.523,-0.120,6.165,-88.745,3.723
0.140,-0.506,-0.123,7.141,-85.449,2.991
0.137,-0.485,-0.119,8.423,-80.261,2.625
0.141,-0.455,-0.112,9.644,-74.097,2.808
0.149,-0.434,-0.099,12.268,-67.810,3.418
0.163,-0.435,-0.085,15.442,-61.951,4.578
0.179,-0.434,-0.070,18.311,-57.678,6.226
0.190,-0.419,-0.058,20.935,-54.626,8.179
0.198,-0.410,-0.049,22.888,-52.551,10.498
0.202,-0.424,-0.046,23.865,-51.453,12.756
0.195,-0.457,-0.056,25.024,-51.270,14.954
0.173,-0.481,-0.069,24.902,-50.720,16.663
0.153,-0.488,-0.075,23.560,-48.523,17.517
0.142,-0.489,-0.074,22.827,-44.617,18.799
0.138,-0.502,-0.069,22.339,-40.283,20.874
0.137,-0.531,-0.058,21.667,-35.522,23.010
0.138,-0.561,-0.046,21.118,-31.250,24.475
0.135,-0.595,-0.044,19.775,-26.794,25.208
0.131,-0.642,-0.046,18.005,-22.339,25.574
0.134,-0.699,-0.048,15.564,-18.005,25.146
0.133,-0.764,-0.053,13.000,-13.611,23.987
0.128,-0.844,-0.059,10.437,-9.277,22.522
0.127,-0.929,-0.062,7.690,-5.005,20.935
0.126,-0.998,-0.066,5.005,-0.366,19.104
0.121,-1.051,-0.070,1.770,4.456,16.602
0.121,-1.088,-0.072,-1.465,9.644,13.489
0.123,-1.113,-0.078,-4.761,15.381,9.705
0.130,-1.130,-0.086,-7.996,20.874,5.310
0.148,-1.137,-0.092,-10.254,26.245,0.610
0.177,-1.129,-0.094,-11.658,30.823,-3.845
0.216,-1.115,-0.091,-11.536,34.058,-8.789
0.262,-1.084,-0.085,-10.315,35.461,-14.526
0.316,-1.062,-0.073,-8.057,35.156,-20.081
0.366,-1.028,-0.064,-5.127,32.898,-24.780
0.410,-0.994,-0.052,-1.709,28.625,-28.076
0.444,-0.965,-0.044,2.319,22.156,-29.297
0.467,-0.932,-0.038,6.287,14.404,-28.503
0.478,-0.905,-0.034,10.559,6.287,-25.879
0.476,-0.893,-0.032,14.282,-1.404,-22.095
0.467,-0.887,-0.028,17.822,-8.423,-17.578
0.450,-0.885,-0.024,20.996,-14.709,-12.695
0.433,-0.897,-0.021,23.987,-20.325,-7.874
0.411,-0.899,-0.010,25.818,-25.146,-3.601
0.402,-0.948,-0.010,28.076,-28.992,1.160
0.380,-0.974,0.007,28.198,-31.433,5.127
0.356,-0.982,0.015,27.039,-34.302,8.118
0.336,-1.002,0.014,25.513,-36.377,10.803
0.314,-1.043,0.006,23.132,-37.781,12.817
0.286,-1.067,-0.005,20.264,-38.025,13.916
0.272,-1.073,-0.016,17.456,-36.560,14.832
0.263,-1.069,-0.024,14.648,-33.813,15.198
0.250,-1.070,-0.031,12.390,-30.090,14.648
0.245,-1.065,-0.034,10.376,-24.719,13.367
0.247,-1.055,-0.033,8.240,-19.409,11.658
0.248,-1.056,-0.046,6.714,-14.160,9.827
0.253,-1.050,-0.061,5.676,-9.521,7.812
0.261,-1.018,-0.075,5.005,-5.676,5.981
0.270,-0.991,-0.091,5.249,-2.686,4.395
0.276,-0.972,-0.107,6.348,-0.610,3.296
0.278,-0.961,-0.120,7.935,0.916,2.380
0.283,-0.964,-0.130,10.193,2.197,1.465
0.287,-0.961,-0.133,12.390,3.479,0.427
0.293,-0.948,-0.140,13.672,4.272,-0.366
0.297,-0.935,-0.148,14.709,4.150,-0.854
0.305,-0.925,-0.151,15.808,3.540,-0.793
0.316,-0.916,-0.151,16.541,2.319,-0.244
0.318,-0.912,-0.154,17.273,0.061,0.305
0.318,-0.906,-0.161,17.639,-2.075,0.671
0.314,-0.900,-0.167,17.334,-4.700,0.610
0.302,-0.894,-0.185,17.029,-7.019,0.122

0.371,-1.870,-0.732,67.688,183.838,16.174
0.436,-2.102,-0.687,63.782,180.664,1.099
0.551,-1.990,-0.671,40.344,173.828,-16.174
0.640,-1.900,-0.656,23.621,153.992,-35.583
0.768,-1.982,-0.580,16.968,124.817,-53.101
0.937,-2.114,-0.444,9.644,89.294,-60.852
1.045,-2.198,-0.381,-3.723,47.729,-60.608
1.049,-2.198,-0.344,-20.203,9.827,-56.580
1.003,-2.190,-0.324,-36.072,-20.691,-56.458
0.977,-2.246,-0.346,-46.265,-53.406,-59.937
0.954,-2.300,-0.377,-54.077,-86.304,-64.270
0.901,-2.320,-0.415,-60.791,-116.272,-65.125
0.764,-2.299,-0.457,-69.641,-141.602,-61.584
0.581,-2.228,-0.522,-80.811,-161.255,-54.565
0.421,-2.130,-0.557,-93.689,-172.424,-45.898
0.273,-2.032,-0.518,-108.521,-172.485,-38.330
0.151,-1.953,-0.435,-122.925,-164.185,-30.273
0.011,-1.826,-0.392,-133.179,-151.550,-19.043
-0.075,-1.715,-0.382,-134.583,-132.446,-5.554
-0.084,-1.592,-0.348,-130.798,-108.765,8.179
-0.099,-1.478,-0.281,-122.131,-83.435,19.531
-0.141,-1.414,-0.229,-106.506,-58.167,28.320
-0.171,-1.385,-0.190,-85.693,-33.936,34.241
-0.169,-1.361,-0.165,-63.049,-11.841,36.499
-0.150,-1.321,-0.137,-41.687,7.019,35.583
-0.117,-1.291,-0.096,-22.827,23.193,31.433
-0.068,-1.292,-0.059,-6.836,34.790,25.024
-0.006,-1.294,-0.034,5.188,41.138,16.296
0.059,-1.273,-0.013,12.268,42.358,6.409
0.121,-1.243,-0.002,16.663,38.391,-3.174
0.179,-1.211,-0.004,18.555,30.090,-12.451
0.230,-1.180,-0.012,18.127,17.944,-21.057
0.264,-1.153,-0.016,16.602,3.235,-28.442
0.287,-1.127,-0.017,13.550,-12.512,-33.875
0.299,-1.095,-0.017,9.094,-29.114,-37.109
0.302,-1.056,-0.022,4.089,-45.410,-38.391
0.298,-1.004,-0.038,-1.892,-60.486,-38.330
0.285,-0.929,-0.052,-7.324,-73.608,-36.377
0.275,-0.864,-0.067,-10.620,-84.778,-32.715
0.267,-0.811,-0.085,-12.085,-93.872,-28.076
0.255,-0.754,-0.094,-12.878,-100.342,-23.132
0.233,-0.692,-0.102,-12.146,-104.614,-18.188
0.212,-0.644,-0.107,-10.193,-105.835,-13.489
0.198,-0.609,-0.108,-6.592,-104.553,-9.399
0.192,-0.567,-0.100,-2.930,-101.624,-6.165
0.187,-0.525,-0.085,0.549,-97.290,-3.967
0.181,-0.504,-0.079,4.761,-92.285,-3.052
0.179,-0.493,-0.073,9.399,-86.426,-2.563
0.181,-0.478,-0.061,13.550,-79.651,-2.319
0.189,-0.462,-0.050,17.944,-73.059,-2.319
0.195,-0.438,-0.036,22.034,-66.956,-2.136
0.200,-0.420,-0.026,25.391,-61.646,-1.587
0.204,-0.405,-0.020,28.564,-56.946,-0.366
0.203,-0.389,-0.018,31.067,-52.612,1.587
0.196,-0.375,-0.020,32.166,-48.584,3.967
0.194,-0.380,-0.021,32.959,-44.189,6.653
0.194,-0.408,-0.023,33.752,-39.673,9.399
0.185,-0.439,-0.020,33.569,-35.339,11.780
0.174,-0.458,-0.012,32.227,-30.884,14.099
0.172,-0.471,-0.002,30.518,-26.123,17.090
0.171,-0.498,0.006,27.832,-21.973,20.508
0.162,-0.544,0.010,25.085,-18.372,23.865
0.145,-0.590,0.010,21.362,-15.015,26.978
0.131,-0.630,0.007,16.235,-11.414,29.358
0.123,-0.678,0.003,10.803,-7.996,31.250
0.118,-0.740,0.000,4.578,-4.150,32.471
0.106,-0.802,-0.010,-1.831,-0.549,32.593
0.079,-0.861,-0.027,-8.728,3.540,31.860
0.059,-0.930,-0.044,-15.381,8.972,30.884
0.057,-1.004,-0.056,-21.301,15.625,28.748
0.058,-1.069,-0.065,-26.611,22.644,26.001
0.059,-1.120,-0.073,-30.945,29.602,22.827
0.074,-1.162,-0.081,-34.119,36.072,19.470
0.101,-1.193,-0.088,-35.889,41.748,15.381
0.135,-1.205,-0.090,-36.682,46.570,10.498
0.172,-1.187,-0.092,-36.560,49.805,4.456
0.204,-1.157,-0.093,-34.668,51.636,-2.014
0.242,-1.110,-0.090,-31.921,52.429,-8.545
0.288,-1.051,-0.084,-27.222,51.514,-15.320
0.335,-0.998,-0.078,-21.057,49.011,-21.729
0.363,-0.947,-0.074,-13.733,45.044,-26.489
0.388,-0.893,-0.065,-6.592,40.771,-28.992
0.410,-0.856,-0.057,1.160,35.706,-29.602
0.420,-0.844,-0.054,8.301,30.334,-28.198
0.427,-0.848,-0.043,15.259,25.024,-25.208
0.431,-0.860,-0.028,20.020,20.142,-20.813
0.421,-0.870,-0.021,23.132,15.198,-15.747
0.406,-0.891,-0.017,24.780,10.071,-10.315
0.391,-0.909,-0.010,25.513,5.920,-5.432
0.380,-0.933,-0.010,25.330,2.686,-0.793
0.368,-0.951,0.001,23.804,-0.122,3.418
0.352,-0.964,0.005,21.423,-3.296,7.141
0.340,-0.970,0.013,18.982,-6.409,10.803
0.330,-0.989,0.012,16.541,-9.888,14.221
0.320,-1.005,0.011,13.977,-13.367,16.846
0.308,-1.029,0.010,11.597,-17.029,18.616
0.300,-1.058,0.014,9.888,-20.813,19.592
0.291,-1.084,0.011,8.362,-24.536,19.043
0.276,-1.091,0.006,6.897,-27.344,17.395
0.260,-1.079,0.002,6.165,-28.870,14.587
0.252,-1.068,-0.005,5.981,-28.931,11.475
0.248,-1.051,-0.014,5.737,-27.466,8.606
0.247,-1.038,-0.020,5.371,-25.146,5.859
0.251,-1.022,-0.028,4.944,-22.156,3.784
0.257,-1.002,-0.035,4.333,-18.494,2.747
0.263,-0.992,-0.045,3.540,-14.832,2.625
0.269,-0.977,-0.054,2.014,-10.986,3.296
0.279,-0.960,-0.058,0.305,-7.751,4.639
0.288,-0.939,-0.064,-1.038,-5.249,6.226
0.293,-0.919,-0.063,-1.831,-3.418,8.301
0.296,-0.908,-0.065,-1.892,-2.197,10.803
0.296,-0.907,-0.067,-1.709,-2.197,13.367
0.291,-0.931,-0.077,-1.648,-2.747,15.625
0.286,-0.953,-0.089,-2.319,-3.540,17.212
0.286,-0.956,-0.101,-3.296,-4.822,18.311
0.284,-0.946,-0.112,-3.784,-6.409,18.738
0.283,-0.944,-0.119,-2.869,-8.606,18.921
0.283,-0.937,-0.121,-0.488,-10.559,18.372
0.279,-0.921,-0.119,2.380,-12.024,17.273

0.702,-2.152,0.137,-12.512,86.914,5.737
0.898,-2.339,0.165,-21.912,68.604,-7.385
1.050,-2.497,0.199,-33.630,36.987,-23.499
1.140,-2.649,0.181,-44.128,-7.080,-36.926
1.130,-2.801,0.100,-49.011,-56.641,-46.265
1.023,-2.797,-0.016,-52.551,-99.243,-50.049
0.838,-2.618,-0.125,-58.350,-126.831,-47.363
0.622,-2.469,-0.237,-62.500,-133.545,-39.490
0.449,-2.373,-0.332,-65.552,-119.873,-29.541
0.307,-2.237,-0.379,-70.984,-90.454,-18.311
0.204,-2.064,-0.361,-75.989,-51.453,-6.714
0.138,-1.920,-0.305,-77.637,-10.315,3.235
0.133,-1.823,-0.242,-71.777,28.503,11.108
0.189,-1.763,-0.170,-59.814,60.913,16.418
0.252,-1.713,-0.102,-45.227,81.055,19.653
0.287,-1.685,-0.036,-29.236,89.294,21.484
0.313,-1.683,0.025,-13.428,87.219,22.766
0.351,-1.693,0.075,0.366,76.538,23.376
0.392,-1.698,0.109,11.414,58.960,23.621
0.413,-1.699,0.125,19.226,36.560,23.743
0.403,-1.688,0.124,23.071,11.902,23.132
0.375,-1.667,0.119,22.583,-11.780,22.949
0.335,-1.637,0.105,18.250,-32.349,22.400
0.294,-1.592,0.089,11.353,-48.828,21.240
0.256,-1.538,0.066,3.540,-60.608,19.775
0.211,-1.475,0.043,-4.456,-68.054,18.066
0.177,-1.411,0.022,-11.047,-71.472,16.479
0.153,-1.346,0.001,-16.052,-71.472,14.771
0.134,-1.276,-0.017,-19.958,-69.275,12.756
0.123,-1.208,-0.032,-21.179,-64.819,10.620
0.124,-1.149,-0.044,-20.264,-58.899,8.301
0.124,-1.096,-0.048,-17.212,-52.429,6.165
0.124,-1.048,-0.050,-13.123,-45.654,3.662
0.127,-1.002,-0.046,-8.606,-38.757,1.099
0.136,-0.965,-0.042,-3.418,-32.471,-1.709
0.151,-0.927,-0.036,2.197,-26.917,-4.211
0.166,-0.895,-0.028,6.775,-22.095,-7.324
0.173,-0.861,-0.023,10.864,-18.188,-10.803
0.178,-0.834,-0.022,14.709,-14.587,-13.916
0.187,-0.812,-0.016,17.883,-11.047,-16.174
0.202,-0.795,0.000,19.531,-7.812,-17.578
0.220,-0.771,0.018,20.020,-5.188,-18.738
0.238,-0.742,0.034,18.738,-3.418,-19.409
0.253,-0.714,0.048,16.846,-2.808,-19.287
0.266,-0.692,0.057,15.015,-3.845,-18.738
0.273,-0.673,0.059,12.695,-5.737,-18.066
0.262,-0.655,0.049,10.437,-8.057,-17.090
0.247,-0.640,0.037,9.277,-9.399,-15.625
0.241,-0.626,0.031,7.874,-9.399,-12.878
0.237,-0.610,0.029,6.714,-8.606,-10.071
0.230,-0.599,0.022,5.798,-7.019,-7.568
0.223,-0.593,0.015,5.066,-5.005,-4.883
0.218,-0.587,0.010,4.456,-2.441,-3.113
0.218,-0.578,0.005,4.089,0.122,-1.709
0.217,-0.570,0.004,3.174,3.296,0.000
0.219,-0.564,0.007,2.747,6.165,1.282
0.225,-0.556,0.012,2.258,8.484,2.625
0.231,-0.545,0.019,1.953,10.315,3.906
0.238,-0.534,0.022,1.404,11.169,5.249
0.244,-0.534,0.021,0.732,11.047,6.409
0.246,-0.542,0.011,-0.305,10.315,7.446
0.246,-0.554,0.003,-0.366,9.460,8.423
0.255,-0.575,-0.000,-0.183,8.728,9.460
0.258,-0.602,-0.004,0.183,7.629,10.193
0.258,-0.630,-0.006,1.282,6.287,11.047
0.259,-0.661,-0.005,2.441,4.761,12.146
0.254,-0.696,-0.000,3.845,2.808,13.245
0.246,-0.729,0.004,5.554,0.671,14.282
0.233,-0.761,0.007,6.775,-0.793,14.771
0.219,-0.799,0.004,7.996,-1.587,14.771
0.208,-0.840,0.002,8.789,-1.770,13.855
0.198,-0.882,0.002,8.972,-1.099,12.085
0.195,-0.926,0.003,8.911,0.000,9.827
0.194,-0.967,0.003,8.545,1.587,6.897
0.196,-0.995,0.005,7.996,3.235,3.601
0.201,-1.007,0.006,7.568,4.761,0.366
0.207,-1.010,0.007,7.263,5.798,-2.625
0.213,-1.012,0.001,6.226,6.836,-4.944
0.214,-1.004,-0.003,5.615,7.874,-7.202
0.223,-0.989,-0.007,5.005,9.033,-8.667
0.238,-0.976,-0.007,4.211,10.254,-9.460
0.255,-0.970,-0.007,3.601,11.536,-9.949
0.264,-0.961,-0.008,3.540,12.695,-10.437
0.272,-0.950,-0.008,3.052,13.367,-10.925
0.284,-0.945,-0.007,3.235,13.794,-11.169
0.298,-0.949,-0.001,3.906,14.099,-11.658
0.310,-0.954,0.005,5.005,13.428,-12.268
0.321,-0.944,0.012,6.165,11.963,-12.634
0.330,-0.935,0.017,7.568,9.399,-12.878
0.336,-0.937,0.022,8.789,6.714,-12.634
0.337,-0.946,0.021,9.949,3.296,-12.146
0.338,-0.951,0.021,10.864,0.122,-11.536
0.341,-0.949,0.023,11.414,-2.625,-11.047
0.343,-0.951,0.021,12.146,-5.737,-10.498
0.341,-0.958,0.020,12.390,-8.728,-9.949
0.340,-0.965,0.019,12.634,-11.047,-9.155
0.341,-0.974,0.022,13.062,-13.306,-8.240
0.340,-0.982,0.025,13.611,-15.198,-7.080
0.339,-0.986,0.028,14.587,-16.785,-5.798
0.334,-0.990,0.029,15.625,-17.944,-4.578
0.333,-0.992,0.030,16.724,-18.311,-3.479
0.337,-0.999,0.032,17.578,-18.372,-2.747
0.337,-1.005,0.034,18.311,-17.944,-1.770
0.332,-1.006,0.033,18.738,-17.517,-1.038
0.329,-1.005,0.033,19.104,-16.663,-0.549
0.326,-1.001,0.031,19.104,-15.625,0.183
0.323,-1.000,0.027,18.555,-14.465,1.038
0.322,-0.991,0.024,17.395,-13.062,2.014
0.319,-0.987,0.018,15.869,-11.780,2.991
0.317,-0.992,0.011,13.794,-10.315,3.967
0.314,-0.999,-0.001,11.414,-9.094,4.883
0.308,-0.998,-0.020,8.728,-7.812,5.859
0.309,-0.992,-0.034,5.615,-5.981,7.080
0.312,-0.984,-0.043,3.174,-4.395,8.118
0.311,-0.973,-0.052,1.770,-3.052,9.094
0.308,-0.967,-0.060,1.099,-2.197,10.010
0.307,-0.971,-0.069,1.465,-1.648,10.742
0.303,-0.956,-0.073,2.319,-1.282,11.108
0.300,-0.935,-0.076,3.235,-0.977,11.047

0.359,-1.953,-0.236,-20.203,-49.622,-44.067
0.351,-1.972,-0.240,-31.616,-47.180,-41.992
0.354,-1.992,-0.213,-40.833,-43.457,-39.795
0.366,-1.979,-0.176,-46.997,-39.734,-36.926
0.371,-1.927,-0.137,-49.194,-37.537,-32.715
0.353,-1.850,-0.094,-46.448,-37.292,-26.184
0.334,-1.768,-0.055,-38.086,-38.635,-17.456
0.308,-1.690,-0.026,-25.757,-40.161,-7.812
0.256,-1.625,-0.001,-11.292,-39.978,1.160
0.197,-1.591,0.031,3.601,-36.316,9.277
0.164,-1.600,0.049,18.494,-28.992,15.320
0.152,-1.636,0.070,31.128,-18.799,18.555
0.150,-1.688,0.103,39.856,-8.362,19.348
0.158,-1.762,0.131,44.067,0.000,17.700
0.176,-1.833,0.139,43.274,6.226,14.465
0.184,-1.878,0.136,37.170,9.888,10.681
0.186,-1.893,0.130,26.855,10.864,7.080
0.198,-1.893,0.118,14.465,9.705,4.272
0.212,-1.875,0.106,1.404,5.981,2.991
0.217,-1.823,0.098,-11.719,-0.427,3.357
0.215,-1.751,0.087,-23.560,-8.240,5.310
0.223,-1.684,0.072,-32.898,-17.578,8.118
0.223,-1.608,0.048,-38.513,-28.076,11.902
0.189,-1.531,0.019,-41.138,-37.231,16.724
0.139,-1.469,-0.001,-39.673,-43.457,21.301
0.106,-1.435,-0.017,-35.339,-45.837,24.841
0.076,-1.414,-0.028,-29.602,-44.434,26.489
0.050,-1.397,-0.028,-23.193,-39.612,26.184
0.034,-1.377,-0.022,-16.479,-32.166,23.682
0.014,-1.356,-0.020,-10.864,-23.437,20.203
0.003,-1.337,-0.022,-5.981,-13.733,15.930
0.008,-1.317,-0.024,-2.441,-4.272,11.597
0.025,-1.290,-0.026,-0.427,4.883,6.958
0.040,-1.266,-0.028,-0.244,12.939,2.136
0.059,-1.245,-0.024,-1.038,20.325,-2.380
0.094,-1.220,-0.016,-3.052,26.489,-6.104
0.135,-1.186,-0.009,-5.249,30.334,-9.644
0.162,-1.146,0.001,-7.263,31.372,-11.780
0.177,-1.108,0.008,-8.423,29.968,-12.268
0.189,-1.062,0.014,-9.216,26.733,-11.475
0.198,-1.005,0.018,-9.644,22.217,-9.277
0.198,-0.955,0.018,-9.827,17.334,-6.287
0.191,-0.910,0.013,-9.827,11.902,-3.174
0.177,-0.870,0.003,-9.705,6.836,-0.427
0.153,-0.835,-0.008,-9.216,3.174,2.014
0.137,-0.803,-0.016,-8.118,1.465,3.357
0.132,-0.771,-0.020,-6.775,1.221,3.601
0.134,-0.737,-0.019,-5.432,1.953,3.113
0.140,-0.703,-0.015,-3.723,3.113,1.892
0.151,-0.675,-0.009,-1.526,3.967,0.305
0.172,-0.654,-0.001,1.343,4.333,-1.038
0.190,-0.639,0.007,4.272,3.723,-2.075
0.202,-0.627,0.014,7.080,2.258,-2.747
0.218,-0.612,0.021,9.583,0.000,-2.869
0.230,-0.590,0.024,11.902,-2.319,-2.563
0.238,-0.564,0.028,13.672,-4.944,-1.648
0.237,-0.537,0.032,15.198,-7.874,0.366
0.231,-0.524,0.035,16.785,-10.681,3.357
0.224,-0.519,0.037,17.944,-13.489,6.775
0.216,-0.509,0.035,18.555,-15.991,10.315
0.210,-0.500,0.036,18.250,-17.700,14.099
0.206,-0.501,0.035,18.005,-19.104,17.517
0.204,-0.516,0.032,17.761,-20.081,20.569
0.200,-0.535,0.030,17.456,-20.630,22.339
0.191,-0.547,0.030,16.663,-20.996,24.048
0.184,-0.558,0.030,16.296,-20.935,25.574
0.176,-0.578,0.028,16.113,-20.813,27.039
0.163,-0.602,0.029,15.869,-20.630,28.381
0.146,-0.636,0.029,15.259,-20.020,29.785
0.136,-0.666,0.032,14.587,-18.982,31.372
0.127,-0.697,0.036,13.550,-17.578,32.654
0.115,-0.735,0.038,12.451,-16.235,33.325
0.105,-0.782,0.038,10.681,-14.526,33.447
0.094,-0.832,0.035,8.545,-12.512,32.532
0.081,-0.873,0.030,6.287,-10.254,30.945
