aX,aY,aZ,gX,gY,gZ
1.036,-1.103,0.906,-213.684,168.091,-261.536
0.932,-1.505,1.089,-157.898,131.714,-237.366
0.824,-2.168,1.115,-99.182,105.042,-213.379
0.795,-2.818,1.025,-46.143,89.539,-192.749
0.839,-3.371,0.939,-9.460,95.520,-169.739
0.954,-3.795,0.781,-2.014,120.605,-139.648
1.165,-3.863,0.608,-31.311,144.897,-111.389
1.365,-3.338,0.375,-89.478,152.527,-97.473
1.304,-2.526,-0.050,-144.592,144.043,-95.215
1.086,-1.622,-0.317,-170.166,132.812,-92.468
0.890,-0.229,-0.072,-165.222,120.972,-78.796
0.810,0.777,0.381,-121.704,95.215,-49.988
0.850,0.038,0.067,-39.978,38.330,-20.752
0.857,-0.918,-0.434,23.987,-15.320,-6.714
0.704,-0.836,-0.471,40.100,-25.330,-9.094
0.649,-0.505,-0.260,44.495,-15.869,-12.390
0.747,-0.459,-0.149,63.477,-14.404,-3.296
0.805,-0.489,-0.061,81.177,-26.733,13.245
0.784,-0.526,0.038,90.149,-47.058,33.264
0.769,-0.567,0.057,92.834,-69.275,51.819
0.755,-0.573,0.028,91.797,-87.280,66.956
0.591,-0.530,-0.001,88.196,-95.032,76.721
0.471,-0.688,-0.116,83.618,-91.187,79.895
0.352,-0.657,-0.085,74.402,-74.829,70.313
0.244,-0.706,-0.142,70.984,-50.659,61.646
0.278,-0.897,-0.202,70.374,-27.466,49.744
0.322,-0.987,-0.202,62.622,-5.737,29.114
0.353,-0.954,-0.203,52.368,12.939,8.057
0.401,-0.952,-0.239,45.349,27.527,-8.667
0.440,-0.912,-0.260,39.368,37.537,-23.437
0.499,-0.831,-0.222,35.339,42.725,-34.668
0.643,-0.821,-0.219,34.790,40.466,-42.053
0.680,-0.834,-0.305,35.217,32.593,-46.326
0.606,-0.820,-0.187,33.875,29.724,-49.744
0.598,-0.725,-0.185,34.485,20.020,-49.500
0.568,-0.722,-0.197,42.725,12.695,-39.063
0.541,-0.715,-0.178,50.415,8.545,-25.269
0.570,-0.696,-0.097,56.458,4.822,-12.390
0.585,-0.664,-0.086,62.073,-3.662,-1.465
0.609,-0.812,-0.112,67.566,-13.550,9.766
0.581,-0.920,-0.134,63.660,-21.362,13.733
0.554,-0.946,-0.169,52.917,-25.085,14.099
0.540,-0.937,-0.201,40.710,-22.339,12.024
0.564,-0.875,-0.254,28.870,-17.334,6.348
0.566,-0.805,-0.281,21.240,-10.254,-0.366
0.585,-0.774,-0.341,18.738,-3.845,-6.409
0.594,-0.725,-0.360,19.287,4.211,-13.794
0.650,-0.717,-0.385,23.804,10.742,-19.348
0.686,-0.681,-0.411,31.067,12.390,-24.536
0.677,-0.672,-0.413,41.626,11.047,-26.611
0.679,-0.718,-0.420,54.016,7.446,-26.184
0.696,-0.771,-0.422,66.528,2.502,-24.780
0.708,-0.779,-0.416,78.552,-3.296,-21.606
0.722,-0.808,-0.447,90.088,-10.254,-15.564
0.743,-0.864,-0.441,98.511,-16.479,-9.521
0.746,-0.865,-0.406,102.051,-25.513,-5.188
0.750,-0.857,-0.415,103.943,-36.682,0.305
0.754,-0.897,-0.425,105.652,-44.434,6.165
0.701,-0.835,-0.433,103.699,-49.561,8.789
0.687,-0.808,-0.442,104.553,-50.049,14.832
0.695,-0.784,-0.423,106.445,-47.424,20.691
0.733,-0.740,-0.407,108.765,-46.326,24.719
0.773,-0.713,-0.383,113.586,-46.509,27.710
0.806,-0.702,-0.372,120.667,-50.415,30.151
0.820,-0.676,-0.379,128.479,-57.312,32.715
0.816,-0.664,-0.383,136.353,-65.674,37.048
0.798,-0.698,-0.402,143.372,-75.745,43.762
0.772,-0.766,-0.436,147.949,-85.388,51.575
0.750,-0.846,-0.468,148.621,-92.529,60.120
0.722,-0.892,-0.492,144.165,-96.863,67.749
0.704,-0.889,-0.508,135.986,-98.022,74.219
0.704,-0.842,-0.520,127.502,-96.863,79.102
0.730,-0.793,-0.521,121.033,-95.642,83.008
0.769,-0.736,-0.500,117.310,-96.130,86.182
0.792,-0.657,-0.477,115.723,-99.365,88.440
0.794,-0.584,-0.464,116.272,-105.042,89.111
0.776,-0.525,-0.460,117.554,-111.389,89.233
0.739,-0.486,-0.468,119.202,-117.493,88.623
0.691,-0.483,-0.489,119.873,-120.667,86.975
0.659,-0.507,-0.509,119.141,-119.141,84.045
0.663,-0.541,-0.515,116.516,-113.892,79.895
0.681,-0.545,-0.525,112.061,-107.117,73.669
0.706,-0.505,-0.525,106.689,-99.792,66.284
0.738,-0.431,-0.489,101.257,-93.079,60.608
0.778,-0.336,-0.438,96.130,-89.600,56.763
0.814,-0.285,-0.412,92.102,-91.248,54.810
0.813,-0.275,-0.407,89.172,-95.764,53.894
0.790,-0.254,-0.406,85.754,-98.816,52.734
0.775,-0.254,-0.421,81.848,-100.037,51.086
0.767,-0.279,-0.441,78.491,-98.938,48.401
0.751,-0.256,-0.445,74.646,-93.628,44.373
0.741,-0.213,-0.434,71.716,-85.266,39.734
0.749,-0.193,-0.426,70.190,-76.233,35.889
0.779,-0.180,-0.412,68.298,-67.444,32.471
0.793,-0.163,-0.402,65.796,-59.937,29.663
0.772,-0.152,-0.414,62.378,-53.284,27.161
0.751,-0.134,-0.420,58.167,-44.922,25.024
0.749,-0.126,-0.421,53.528,-34.729,23.926
0.779,-0.115,-0.417,48.340,-24.475,23.560
0.810,-0.099,-0.404,43.030,-16.174,24.597
0.834,-0.114,-0.402,38.452,-10.437,26.306
0.858,-0.125,-0.407,33.813,-5.981,27.039
0.873,-0.078,-0.384,29.541,-1.282,27.710
0.884,-0.028,-0.348,27.893,1.831,29.358
0.889,0.003,-0.319,28.748,3.113,31.067
0.897,0.026,-0.295,30.457,2.869,32.715
0.897,0.036,-0.277,32.776,0.488,33.325
0.881,0.046,-0.262,35.645,-2.075,32.532
0.866,0.045,-0.260,37.903,-4.761,30.457
0.853,0.025,-0.266,39.978,-6.531,27.588
0.841,0.010,-0.278,40.894,-6.409,23.499
0.834,0.011,-0.274,39.917,-3.601,19.470
0.830,0.010,-0.273,38.208,-0.427,16.052
0.835,0.013,-0.275,35.461,2.930,13.550
0.843,0.002,-0.285,32.227,6.592,11.719
0.858,-0.001,-0.291,28.259,10.071,10.193
0.871,0.009,-0.286,24.231,12.390,10.071
0.878,0.033,-0.274,20.508,12.756,11.292
0.883,0.048,-0.249,18.738,10.437,13.184

0.879,0.802,-1.059,-371.155,272.644,-194.153
1.109,0.854,-0.874,-340.332,247.437,-171.997
1.273,0.816,-0.477,-302.002,193.237,-138.062
1.216,0.479,0.033,-262.024,117.798,-97.473
0.996,-0.046,0.449,-236.572,43.396,-52.612
0.749,-0.569,0.660,-230.530,-19.409,-12.817
0.687,-0.991,0.790,-234.375,-62.744,11.475
0.654,-1.445,1.007,-236.389,-77.637,27.222
0.672,-2.029,1.210,-230.652,-69.458,26.428
0.860,-2.345,1.288,-221.863,-49.866,8.606
0.939,-2.243,1.280,-213.257,-28.625,-9.583
0.787,-2.057,1.269,-199.341,-8.118,-24.658
0.541,-1.959,1.196,-171.570,13.245,-34.973
0.309,-1.955,1.061,-131.653,39.246,-36.377
0.144,-2.067,0.926,-90.088,68.604,-31.494
0.005,-2.148,0.802,-53.284,92.896,-25.940
-0.033,-2.262,0.627,-20.447,107.788,-17.761
0.115,-2.398,0.533,3.662,114.868,-11.292
0.345,-2.414,0.464,10.437,106.628,-12.085
0.511,-2.234,0.334,3.723,80.139,-23.804
0.565,-1.856,0.128,-8.850,46.448,-47.058
0.495,-1.395,-0.081,-16.785,21.667,-72.144
0.454,-1.000,-0.178,-12.451,15.442,-91.248
0.488,-0.702,-0.221,1.709,24.231,-100.830
0.557,-0.500,-0.208,22.949,38.696,-99.854
0.630,-0.372,-0.166,47.974,51.392,-92.163
0.714,-0.318,-0.107,74.402,57.678,-78.369
0.803,-0.349,-0.023,99.976,53.772,-59.082
0.894,-0.487,0.095,120.911,38.513,-35.522
0.906,-0.672,0.228,131.042,13.855,-9.338
0.853,-0.832,0.256,129.028,-16.968,16.296
0.759,-0.950,0.284,118.103,-44.312,41.443
0.681,-1.102,0.259,97.534,-65.735,60.974
0.578,-1.017,0.185,69.336,-82.703,67.749
0.414,-0.875,0.121,45.532,-85.266,70.557
0.301,-0.812,-0.017,30.945,-80.688,69.336
0.204,-0.767,-0.090,24.109,-64.331,62.073
0.196,-0.779,-0.144,21.545,-43.518,51.819
0.220,-0.790,-0.137,19.409,-20.996,40.955
0.277,-0.813,-0.158,18.066,-3.784,29.175
0.327,-0.792,-0.170,18.250,8.118,14.954
0.370,-0.758,-0.198,20.874,15.442,1.404
0.454,-0.781,-0.224,26.123,20.264,-9.460
0.500,-0.814,-0.203,30.151,23.010,-19.348
0.562,-0.873,-0.208,32.898,20.569,-27.405
0.559,-0.840,-0.262,34.546,15.808,-32.166
0.560,-0.889,-0.303,39.001,15.747,-30.884
0.560,-0.906,-0.294,41.687,18.005,-29.663
0.550,-0.908,-0.287,45.959,18.555,-27.832
0.562,-0.920,-0.313,52.246,18.494,-24.841
0.564,-0.949,-0.331,58.350,20.264,-21.057
0.560,-0.962,-0.358,63.721,21.912,-19.592
0.552,-0.910,-0.371,69.519,22.705,-20.935
0.562,-0.892,-0.393,78.247,23.682,-21.912
0.590,-0.886,-0.424,90.454,24.170,-23.437
0.622,-0.895,-0.415,101.868,23.987,-24.292
0.635,-0.934,-0.361,110.046,21.729,-24.170
0.584,-0.994,-0.306,113.708,18.738,-21.118
0.530,-1.092,-0.286,111.328,18.433,-13.977
0.508,-1.184,-0.298,100.830,23.926,-4.700
0.549,-1.226,-0.323,85.144,32.715,6.042
0.612,-1.109,-0.316,67.139,39.368,14.832
0.673,-0.958,-0.314,54.321,40.771,23.437
0.716,-0.849,-0.317,50.598,36.987,32.898
0.727,-0.755,-0.314,52.551,26.794,40.161
0.714,-0.677,-0.339,58.838,10.681,45.227
0.673,-0.664,-0.381,68.115,-6.714,48.401
0.604,-0.722,-0.424,78.735,-21.973,50.598
0.537,-0.790,-0.457,88.074,-32.715,52.307
0.493,-0.824,-0.483,95.825,-38.757,52.246
0.476,-0.836,-0.504,102.600,-40.833,50.049
0.471,-0.802,-0.513,109.131,-40.161,45.959
0.483,-0.717,-0.519,114.807,-38.940,42.053
0.499,-0.660,-0.548,121.277,-37.781,39.124
0.522,-0.677,-0.584,129.395,-36.438,35.278
0.505,-0.634,-0.575,135.254,-34.363,30.579
0.520,-0.624,-0.590,139.404,-32.959,26.428
0.523,-0.643,-0.608,145.508,-30.823,23.499
0.527,-0.666,-0.622,149.414,-28.809,20.935
0.497,-0.635,-0.630,150.208,-26.917,16.418
0.475,-0.591,-0.628,152.527,-22.888,15.015
0.472,-0.506,-0.618,155.396,-18.677,16.113
0.502,-0.435,-0.606,158.508,-15.564,19.592
0.528,-0.361,-0.585,161.621,-15.198,24.048
0.545,-0.318,-0.562,163.025,-15.869,31.189
0.540,-0.369,-0.552,161.926,-15.442,42.725
0.552,-0.417,-0.545,156.555,-15.991,56.213
0.588,-0.411,-0.548,146.667,-18.982,70.801
0.611,-0.411,-0.572,135.681,-22.583,87.036
0.611,-0.403,-0.622,124.451,-25.818,104.004
0.648,-0.327,-0.671,114.197,-30.090,118.286
0.695,-0.240,-0.678,107.971,-38.879,128.357
0.720,-0.198,-0.660,108.032,-51.636,133.484
0.684,-0.211,-0.650,111.938,-67.017,132.629
0.598,-0.222,-0.653,115.051,-79.895,124.634
0.509,-0.206,-0.629,115.906,-86.853,110.291
0.436,-0.196,-0.624,113.159,-87.402,91.980
0.370,-0.197,-0.645,107.605,-80.811,72.693
0.341,-0.172,-0.633,98.022,-66.772,54.199
0.360,-0.163,-0.646,86.426,-50.232,37.842
0.384,-0.193,-0.682,73.547,-32.043,23.499
0.406,-0.166,-0.722,57.617,-11.414,12.329
0.456,-0.041,-0.731,42.175,7.385,7.080
0.532,0.059,-0.701,33.447,20.691,7.629
0.600,0.088,-0.661,29.846,26.550,11.414
0.613,0.075,-0.640,26.611,27.039,15.259
0.610,0.105,-0.616,22.278,25.513,16.724
0.618,0.110,-0.609,18.738,21.545,15.442
0.605,0.104,-0.653,15.137,17.334,10.742
0.598,0.107,-0.679,11.841,15.564,4.272
0.610,0.096,-0.696,8.606,15.564,-1.282
0.630,0.068,-0.729,4.333,15.930,-5.798
0.658,0.080,-0.743,-1.831,17.151,-10.315
0.700,0.106,-0.735,-7.874,17.395,-13.733
0.736,0.113,-0.747,-12.939,15.503,-14.587
0.774,0.130,-0.765,-17.639,10.925,-13.550
0.817,0.130,-0.771,-20.508,4.028,-10.681
0.838,0.130,-0.775,-22.766,-4.028,-6.470
0.852,0.149,-0.772,-24.658,-12.695,-2.441

0.514,1.398,-1.677,-491.699,-8.179,-87.097
0.503,1.884,-1.909,-430.542,16.418,-94.666
0.539,2.254,-2.030,-352.295,36.438,-96.191
0.537,2.495,-2.021,-254.944,48.157,-93.140
0.498,2.370,-1.747,-139.771,48.950,-81.116
0.383,1.646,-1.263,-22.888,42.053,-65.369
0.340,0.658,-0.432,49.255,34.546,-53.650
0.376,-0.137,0.183,41.077,25.269,-40.466
0.475,-0.576,0.453,-17.822,-0.122,-25.391
0.547,-0.610,0.464,-89.905,-34.607,-8.728
0.592,-0.427,0.554,-150.696,-60.913,7.751
0.642,-0.267,0.824,-190.674,-77.454,22.766
0.630,-0.196,1.084,-207.703,-99.609,26.550
0.531,-0.399,1.262,-195.007,-122.864,10.803
0.402,-0.567,1.353,-161.133,-128.052,-19.958
0.294,-0.784,1.488,-108.032,-109.497,-54.810
0.209,-1.375,1.733,-33.752,-70.129,-89.905
0.375,-1.964,1.804,42.236,-6.165,-127.502
0.780,-2.716,1.901,86.243,54.382,-161.621
0.974,-3.785,1.850,107.910,88.013,-180.542
0.991,-4.000,1.549,95.703,112.915,-192.383
1.078,-4.000,1.154,27.466,146.362,-209.961
1.210,-3.773,0.594,-68.848,169.617,-221.252
1.103,-3.030,0.031,-162.720,176.514,-219.360
0.913,-2.083,-0.320,-234.192,179.138,-205.750
0.869,-1.170,-0.486,-266.724,177.429,-179.932
0.967,-0.412,-0.528,-256.897,160.156,-145.447
1.037,0.068,-0.536,-208.984,119.507,-108.704
0.989,0.177,-0.592,-137.268,60.974,-72.998
0.811,0.111,-0.665,-60.791,0.977,-42.114
0.729,-0.235,-0.519,7.568,-42.297,-11.108
0.739,-0.394,-0.422,54.688,-72.021,13.489
0.553,-0.415,-0.164,82.764,-87.708,40.466
0.530,-0.658,-0.064,101.318,-93.811,72.876
0.537,-0.796,0.075,104.858,-90.637,91.858
0.534,-0.844,0.148,98.267,-84.595,99.915
0.544,-0.946,0.097,89.478,-80.444,102.173
0.496,-0.997,0.047,75.806,-74.341,95.947
0.407,-0.872,-0.019,60.059,-66.589,85.876
0.286,-0.893,-0.278,49.255,-53.101,77.454
0.244,-0.757,-0.212,39.917,-26.428,61.279
0.342,-0.707,-0.342,42.480,-10.864,44.250
0.404,-0.738,-0.359,52.307,3.296,22.766
0.416,-0.784,-0.433,61.829,16.052,3.174
0.474,-0.880,-0.328,72.144,31.250,-14.954
0.524,-0.884,-0.294,79.468,35.278,-34.241
0.570,-0.966,-0.269,88.562,37.415,-47.363
0.586,-1.001,-0.266,94.055,40.222,-58.411
0.624,-1.099,-0.279,98.694,42.358,-65.186
0.660,-1.135,-0.272,100.342,43.152,-71.472
0.678,-1.121,-0.295,98.877,41.382,-73.853
0.677,-1.087,-0.252,96.741,43.701,-73.669
0.638,-0.978,-0.200,95.215,43.701,-73.547
0.632,-0.925,-0.217,100.403,39.917,-66.406
0.721,-1.027,-0.261,106.018,36.926,-57.129
0.693,-0.952,-0.228,106.262,36.499,-53.467
0.665,-0.953,-0.237,109.985,34.302,-45.532
0.714,-1.019,-0.308,116.882,26.367,-37.476
0.717,-1.002,-0.338,121.277,17.822,-31.860
0.693,-0.919,-0.324,126.587,9.094,-22.827
0.675,-0.795,-0.376,134.216,-2.563,-10.925
0.673,-0.801,-0.433,147.766,-10.254,4.761
0.762,-0.996,-0.410,159.790,-16.968,15.503
0.682,-0.841,-0.429,161.926,-32.532,16.541
0.631,-0.894,-0.467,171.387,-43.030,28.748
0.627,-0.953,-0.478,178.284,-50.476,35.278
0.634,-0.927,-0.490,179.810,-59.998,38.879
0.596,-0.878,-0.479,183.838,-67.688,46.448
0.575,-0.875,-0.531,187.683,-75.256,54.077
0.578,-0.910,-0.579,190.613,-79.041,59.021
0.581,-0.869,-0.568,189.514,-79.956,57.434
0.564,-0.780,-0.548,188.721,-82.458,54.382
0.550,-0.759,-0.544,193.115,-84.473,54.016
0.518,-0.679,-0.577,199.036,-84.839,54.871
0.497,-0.745,-0.603,205.200,-79.834,57.739
0.506,-0.799,-0.586,204.834,-72.388,52.063
0.503,-0.780,-0.615,200.012,-66.040,43.457
0.486,-0.762,-0.592,196.350,-56.580,39.063
0.514,-0.688,-0.558,188.782,-49.744,33.875
0.564,-0.645,-0.555,181.396,-47.485,32.593
0.595,-0.637,-0.571,173.035,-48.035,31.982
0.592,-0.638,-0.596,163.635,-47.974,30.396
0.586,-0.568,-0.589,153.015,-45.349,27.771
0.609,-0.479,-0.575,143.616,-42.847,26.733
0.621,-0.434,-0.605,137.207,-41.748,27.405
0.622,-0.367,-0.611,131.958,-39.185,28.259
0.622,-0.269,-0.585,127.197,-33.691,30.762
0.620,-0.222,-0.558,124.084,-28.931,35.400
0.615,-0.269,-0.591,119.934,-26.672,39.368
0.605,-0.252,-0.612,112.366,-23.254,40.283
0.611,-0.212,-0.591,104.614,-18.616,41.382
0.615,-0.175,-0.595,97.046,-16.541,41.504
0.619,-0.137,-0.599,89.661,-15.137,40.039
0.615,-0.099,-0.601,82.764,-14.221,37.476
0.605,-0.075,-0.587,75.806,-14.587,33.875
0.584,-0.050,-0.594,68.237,-14.893,30.334
0.566,-0.003,-0.608,60.303,-14.709,27.405
0.559,0.038,-0.611,53.223,-13.550,25.269
0.548,0.068,-0.609,46.448,-11.414,23.682
0.548,0.084,-0.577,40.588,-9.155,21.973
0.538,0.090,-0.564,33.081,-6.348,19.775
0.539,0.095,-0.585,24.536,-3.052,16.113
0.552,0.098,-0.616,15.747,1.038,11.536
0.572,0.126,-0.624,7.202,6.592,7.812
0.594,0.164,-0.612,0.183,11.902,5.005
0.610,0.171,-0.602,-5.676,15.198,2.930
0.615,0.172,-0.620,-12.207,16.846,0.854
0.624,0.191,-0.645,-19.836,17.883,-0.793
0.632,0.219,-0.682,-28.748,19.592,-2.075
0.648,0.239,-0.723,-37.476,21.362,-2.502
0.670,0.255,-0.748,-45.105,23.132,-1.709
0.688,0.283,-0.772,-50.659,24.475,-0.549
0.706,0.303,-0.789,-53.345,25.085,1.099
0.720,0.320,-0.781,-54.016,24.475,3.723
0.722,0.327,-0.766,-54.016,22.461,5.371
0.715,0.322,-0.776,-54.565,20.203,5.737
0.709,0.330,-0.788,-56.152,18.616,4.822
0.709,0.335,-0.799,-56.274,17.212,4.272
0.711,0.324,-0.825,-54.932,15.991,3.845

1.100,0.439,-0.995,-320.984,-107.483,-118.958
0.962,0.297,-1.101,-339.844,-123.108,-125.916
0.881,0.102,-1.252,-356.323,-116.882,-132.080
0.834,0.178,-1.438,-370.361,-90.637,-139.221
0.750,0.600,-1.579,-378.662,-43.457,-138.184
0.674,1.083,-1.670,-375.122,19.775,-124.329
0.687,1.408,-1.722,-352.539,86.426,-99.854
0.814,1.606,-1.656,-312.012,140.625,-68.481
1.019,1.710,-1.496,-258.362,171.448,-35.828
1.177,1.642,-1.304,-196.106,176.147,-6.714
1.175,1.319,-1.003,-133.545,157.654,16.296
1.101,0.796,-0.522,-87.280,122.437,30.579
0.946,0.186,-0.005,-73.914,78.369,41.443
0.742,-0.374,0.365,-99.121,34.119,51.025
0.587,-0.753,0.497,-151.794,-1.038,57.312
0.498,-0.911,0.471,-208.191,-21.667,58.716
0.494,-0.854,0.479,-247.803,-26.917,53.711
0.577,-0.687,0.585,-264.771,-21.057,44.373
0.715,-0.487,0.870,-257.080,-14.404,34.851
0.802,-0.580,1.129,-230.286,-18.066,31.006
0.614,-0.773,1.394,-197.998,-29.541,24.841
0.421,-1.064,1.622,-163.879,-36.621,16.785
0.428,-1.424,1.989,-124.695,-35.156,5.371
0.512,-2.040,2.488,-86.304,-32.288,-6.653
0.665,-2.993,2.984,-66.040,-34.119,-21.484
0.613,-3.912,2.865,-80.872,-54.077,-47.058
0.293,-4.000,2.202,-126.160,-59.021,-86.731
0.049,-3.677,1.373,-190.186,-25.879,-133.850
0.065,-2.768,0.605,-242.981,32.715,-176.514
0.236,-1.882,0.077,-261.047,87.646,-205.444
0.478,-1.106,-0.287,-246.155,115.234,-214.050
0.696,-0.470,-0.538,-204.651,105.286,-203.064
0.863,-0.048,-0.662,-140.747,67.322,-181.213
0.959,0.109,-0.659,-63.538,23.010,-157.715
1.001,-0.026,-0.572,15.808,-6.409,-133.362
0.970,-0.285,-0.393,80.383,-18.982,-106.201
0.893,-0.491,-0.166,120.544,-21.423,-73.914
0.821,-0.659,-0.021,140.747,-22.827,-35.767
0.770,-0.810,0.062,147.400,-27.283,4.395
0.730,-0.916,0.166,144.409,-33.203,42.664
0.726,-0.968,0.270,137.451,-40.100,75.623
0.674,-0.965,0.287,131.104,-49.683,101.929
0.593,-1.045,0.281,124.695,-56.580,120.300
0.441,-0.953,0.214,115.662,-63.354,125.977
0.318,-0.903,0.148,111.938,-59.998,130.066
0.287,-0.912,0.112,109.680,-49.194,130.066
0.286,-0.926,0.116,106.140,-36.560,122.192
0.313,-0.962,0.105,101.746,-26.550,108.704
0.317,-0.924,0.016,96.863,-20.020,90.393
0.340,-0.955,-0.002,93.994,-10.559,70.313
0.352,-0.916,0.007,91.980,-1.770,45.898
0.390,-0.926,-0.013,92.651,3.174,25.452
0.382,-0.984,-0.029,92.834,10.254,7.385
0.376,-0.999,-0.042,88.989,18.433,-7.568
0.405,-0.992,-0.063,82.947,28.381,-18.738
0.472,-0.965,-0.079,77.698,40.344,-28.198
0.521,-0.888,-0.084,73.364,50.415,-36.865
0.592,-0.873,-0.109,73.242,56.213,-42.969
0.622,-0.857,-0.129,74.768,59.631,-46.997
0.661,-0.853,-0.148,77.759,63.110,-47.546
0.648,-0.777,-0.158,82.214,63.599,-45.410
0.688,-0.869,-0.267,89.172,60.974,-39.063
0.667,-0.914,-0.266,92.957,60.181,-33.752
0.669,-0.899,-0.242,95.642,50.598,-28.931
0.661,-0.833,-0.305,101.929,32.410,-21.362
0.670,-0.915,-0.401,113.892,17.212,-7.568
0.652,-0.976,-0.467,122.009,6.836,3.479
0.633,-0.993,-0.446,126.526,0.854,13.367
0.627,-0.904,-0.369,129.883,-6.775,21.790
0.628,-0.846,-0.333,136.108,-18.799,31.677
0.632,-0.850,-0.308,144.470,-29.419,41.748
0.645,-0.851,-0.280,148.865,-38.818,48.462
0.649,-0.861,-0.283,150.085,-47.974,51.819
0.626,-0.888,-0.290,150.696,-55.115,53.467
0.604,-0.921,-0.281,150.208,-58.289,55.664
0.597,-0.957,-0.278,147.522,-58.472,57.861
0.610,-0.953,-0.268,141.602,-57.983,58.472
0.609,-0.928,-0.257,131.958,-56.396,58.105
0.589,-0.898,-0.251,119.934,-54.321,57.800
0.568,-0.824,-0.260,105.713,-52.124,55.725
0.565,-0.751,-0.289,92.285,-49.988,52.246
0.572,-0.745,-0.343,83.374,-46.997,48.767
0.577,-0.734,-0.398,78.186,-41.321,44.189
0.572,-0.683,-0.444,76.477,-34.485,39.917
0.578,-0.649,-0.481,79.834,-26.550,36.011
0.594,-0.584,-0.498,86.548,-17.395,32.104
0.605,-0.521,-0.497,95.337,-7.935,29.175
0.618,-0.485,-0.480,105.347,0.854,28.442
0.629,-0.453,-0.464,114.136,6.836,29.480
0.645,-0.431,-0.449,120.239,9.338,31.738
0.650,-0.416,-0.445,124.939,8.606,35.583
0.635,-0.441,-0.458,129.150,5.493,40.588
0.625,-0.481,-0.490,133.301,2.075,45.105
0.630,-0.506,-0.510,138.245,-0.916,48.645
0.635,-0.480,-0.521,143.311,-4.517,50.415
0.639,-0.413,-0.536,148.437,-8.911,51.697
0.637,-0.341,-0.545,154.541,-13.855,54.138
0.621,-0.258,-0.540,161.316,-19.043,57.739
0.584,-0.181,-0.536,168.884,-24.475,62.927
0.556,-0.145,-0.523,177.063,-28.809,69.946
0.535,-0.162,-0.530,183.655,-32.104,78.613
0.527,-0.193,-0.518,188.110,-33.447,87.097
0.559,-0.224,-0.504,189.514,-33.264,93.628
0.576,-0.204,-0.499,188.843,-35.339,97.595
0.559,-0.199,-0.482,187.378,-37.964,101.074
0.582,-0.239,-0.479,182.617,-40.405,102.661
0.595,-0.290,-0.500,172.241,-43.030,99.182
0.581,-0.298,-0.540,156.433,-43.335,89.172
0.547,-0.265,-0.587,137.512,-39.246,73.242
0.498,-0.206,-0.646,117.798,-30.457,53.345
0.481,-0.104,-0.692,99.182,-15.625,33.081
0.484,0.010,-0.693,84.900,2.747,16.479
0.506,0.094,-0.667,74.829,22.034,4.456
0.538,0.138,-0.625,66.345,38.391,-3.418
0.574,0.161,-0.601,57.861,50.293,-8.301
0.619,0.176,-0.606,49.072,58.167,-11.353
0.656,0.160,-0.610,39.368,62.012,-12.878
0.671,0.162,-0.645,26.917,63.599,-14.587
0.685,0.187,-0.663,13.367,64.026,-17.334

0.659,0.963,-1.054,-70.740,-52.795,-11.414
0.671,0.971,-1.070,-94.971,-46.021,-9.521
0.675,0.930,-1.037,-129.700,-40.222,-10.010
0.693,0.871,-1.035,-174.377,-37.109,-13.428
0.737,0.792,-1.102,-222.656,-38.635,-16.907
0.788,0.701,-1.172,-266.663,-41.260,-18.250
0.831,0.588,-1.120,-303.345,-41.016,-17.944
0.826,0.443,-1.002,-335.693,-37.109,-15.503
0.832,0.337,-0.900,-363.098,-27.832,-12.634
0.812,0.372,-0.845,-385.071,-17.273,-11.047
0.739,0.452,-0.728,-399.170,-4.395,-7.568
0.652,0.489,-0.498,-405.884,15.747,-3.357
0.596,0.520,-0.387,-406.921,34.607,2.319
0.585,0.541,-0.344,-406.067,44.495,7.507
0.619,0.516,-0.334,-407.043,46.631,8.484
0.694,0.546,-0.482,-401.489,36.316,6.897
0.785,0.665,-0.749,-378.296,7.568,0.671
0.720,0.796,-0.917,-335.510,-21.912,-10.132
0.483,0.798,-0.861,-278.015,-32.043,-25.696
0.458,0.654,-0.468,-219.543,-20.447,-39.795
0.550,0.365,0.055,-173.340,-2.808,-44.800
0.670,-0.021,0.461,-142.517,7.751,-41.260
0.740,-0.339,0.850,-128.052,2.380,-35.278
0.748,-0.548,1.149,-126.648,-16.968,-27.893
0.737,-0.774,1.408,-127.258,-40.100,-19.287
0.690,-1.144,1.635,-124.268,-60.913,-16.296
0.627,-1.718,1.750,-113.464,-79.224,-27.283
0.550,-2.274,1.682,-94.421,-85.449,-55.969
0.468,-2.624,1.496,-74.707,-68.542,-94.604
0.462,-2.680,1.340,-66.040,-26.367,-128.906
0.613,-2.521,1.176,-65.247,29.358,-150.696
0.844,-2.330,0.937,-66.406,83.435,-161.255
1.010,-2.073,0.730,-70.129,121.155,-168.213
1.091,-1.795,0.531,-72.754,136.353,-169.922
1.055,-1.518,0.325,-71.289,131.531,-162.231
0.922,-1.225,0.113,-65.063,111.267,-148.254
0.812,-1.012,-0.018,-52.551,85.999,-125.366
0.788,-0.849,-0.084,-35.889,60.852,-93.689
0.799,-0.738,-0.126,-17.456,33.936,-57.251
0.791,-0.698,-0.151,1.465,6.897,-20.081
0.747,-0.645,-0.148,20.081,-17.395,15.686
0.691,-0.567,-0.147,36.743,-40.466,49.133
0.690,-0.567,-0.135,52.979,-60.608,78.125
0.618,-0.495,-0.093,68.176,-76.294,101.074
0.647,-0.614,-0.063,80.017,-86.060,116.699
0.568,-0.543,-0.000,84.961,-94.543,119.507
0.472,-0.622,-0.018,91.919,-92.773,123.474
0.481,-0.727,-0.014,95.947,-85.327,120.544
0.489,-0.778,-0.014,95.032,-75.806,109.619
0.435,-0.777,0.017,92.651,-64.392,94.299
0.382,-0.703,-0.026,88.501,-53.711,80.261
0.371,-0.691,-0.078,86.548,-39.063,69.580
0.387,-0.674,-0.091,85.083,-22.156,56.824
0.473,-0.598,-0.083,84.778,-9.644,42.297
0.483,-0.628,-0.136,86.853,0.122,31.189
0.507,-0.679,-0.110,89.172,10.559,19.348
0.549,-0.651,-0.113,90.393,15.442,5.798
0.608,-0.724,-0.116,96.069,20.203,-3.723
0.598,-0.779,-0.108,99.365,22.888,-13.733
0.578,-0.790,-0.109,100.342,20.874,-23.621
0.578,-0.853,-0.176,100.647,18.982,-31.738
0.576,-0.917,-0.201,99.365,21.240,-40.344
0.539,-0.854,-0.212,95.886,23.071,-51.270
0.556,-0.882,-0.290,96.497,25.879,-59.387
0.547,-0.928,-0.348,97.839,34.119,-67.993
0.522,-0.926,-0.394,98.389,46.387,-77.515
0.504,-0.909,-0.413,100.769,61.951,-84.900
0.529,-0.902,-0.421,104.980,77.026,-89.722
0.565,-0.884,-0.426,109.314,87.708,-92.712
0.607,-0.878,-0.422,114.929,93.201,-93.079
0.654,-0.872,-0.387,120.300,93.140,-90.576
0.720,-0.905,-0.314,123.840,85.938,-84.778
0.759,-0.989,-0.224,122.437,70.313,-76.843
0.766,-1.070,-0.163,112.488,49.988,-65.430
0.764,-1.118,-0.132,92.590,28.931,-49.194
0.762,-1.125,-0.126,67.383,7.751,-30.579
0.765,-1.089,-0.157,41.992,-12.085,-10.681
0.746,-0.987,-0.203,21.301,-31.311,7.996
0.689,-0.882,-0.258,10.193,-47.668,26.550
0.682,-0.911,-0.281,6.653,-59.143,42.847
0.666,-0.869,-0.396,2.563,-67.749,47.363
0.644,-0.809,-0.398,-1.587,-69.092,44.067
0.509,-0.662,-0.378,1.282,-65.186,40.039
0.446,-0.644,-0.438,13.184,-59.570,39.856
0.453,-0.616,-0.512,26.367,-50.720,37.415
0.426,-0.573,-0.556,38.147,-36.072,35.034
0.448,-0.612,-0.588,53.528,-19.287,34.180
0.479,-0.612,-0.607,68.787,-2.625,30.945
0.512,-0.578,-0.598,84.045,12.329,27.832
0.563,-0.548,-0.570,99.792,23.926,25.879
0.592,-0.527,-0.561,115.295,29.602,24.292
0.612,-0.517,-0.573,128.418,30.945,23.071
0.630,-0.531,-0.598,139.648,30.090,22.827
0.644,-0.535,-0.575,148.865,27.954,22.644
0.642,-0.513,-0.568,157.166,21.301,22.766
0.619,-0.558,-0.599,166.687,12.878,25.146
0.573,-0.636,-0.634,173.950,6.409,26.489
0.547,-0.662,-0.664,175.476,4.089,26.794
0.519,-0.636,-0.704,173.889,5.859,26.428
0.508,-0.611,-0.727,170.044,11.353,25.818
0.524,-0.549,-0.717,165.466,18.677,26.794
0.554,-0.497,-0.691,160.461,23.987,28.748
0.584,-0.459,-0.703,156.189,25.940,30.151
0.624,-0.407,-0.720,152.832,26.001,32.104
0.647,-0.362,-0.712,149.658,24.353,33.569
0.643,-0.326,-0.703,147.766,20.935,34.546
0.633,-0.307,-0.690,146.973,15.747,36.011
0.637,-0.278,-0.675,144.653,10.498,37.842
0.636,-0.272,-0.676,140.869,4.700,39.368
0.619,-0.282,-0.696,134.949,-0.671,39.856
0.600,-0.255,-0.703,126.465,-4.517,39.246
0.588,-0.191,-0.708,116.272,-6.836,38.574
0.587,-0.139,-0.716,108.398,-9.094,38.635
0.575,-0.107,-0.718,102.234,-11.108,39.063
0.559,-0.078,-0.737,96.802,-12.634,39.246
0.533,-0.075,-0.767,91.553,-12.756,38.025
0.510,-0.078,-0.806,86.853,-10.193,35.339
0.505,-0.058,-0.826,81.970,-5.249,31.616
0.526,-0.015,-0.840,77.209,1.282,27.405

0.786,-1.470,1.837,-244.934,-147.156,44.983
0.808,-1.907,2.164,-222.900,-150.391,28.381
0.798,-2.306,2.425,-209.961,-140.320,2.502
0.724,-2.625,2.464,-203.857,-116.394,-31.433
0.464,-2.873,2.188,-199.036,-72.632,-72.693
0.099,-3.065,1.774,-199.402,-2.197,-117.493
-0.084,-3.127,1.191,-213.135,85.205,-153.442
-0.046,-2.858,0.412,-234.192,157.043,-170.776
0.169,-2.335,-0.242,-248.291,188.354,-173.828
0.531,-1.629,-0.593,-243.835,176.636,-165.894
0.860,-0.912,-0.738,-210.388,130.859,-155.029
1.002,-0.327,-0.738,-150.879,72.327,-153.992
0.969,0.001,-0.638,-78.857,27.466,-160.217
0.873,0.127,-0.526,-6.592,5.859,-156.677
0.789,-0.024,-0.333,57.007,7.446,-132.812
0.853,-0.348,0.013,99.304,26.245,-93.628
0.993,-0.539,0.390,111.206,42.114,-48.950
1.137,-0.662,0.568,103.210,38.208,-3.296
1.069,-0.672,0.611,85.083,15.625,39.551
0.907,-0.671,0.595,61.890,-12.024,79.346
0.688,-0.591,0.458,39.063,-41.016,111.633
0.417,-0.547,0.318,25.879,-54.138,138.062
0.228,-0.556,0.173,21.484,-55.298,153.442
0.154,-0.596,0.099,22.095,-47.302,154.907
0.148,-0.595,0.037,24.963,-37.659,142.517
0.148,-0.607,-0.015,30.273,-28.198,120.911
0.153,-0.652,-0.044,37.598,-18.738,92.896
0.176,-0.734,-0.063,46.265,-9.338,60.608
0.291,-0.851,-0.037,53.040,3.601,26.672
0.378,-0.899,-0.009,56.396,17.456,-7.812
0.433,-0.896,-0.041,58.838,27.954,-38.635
0.460,-0.918,-0.110,60.608,39.734,-62.134
0.552,-0.882,-0.070,62.317,54.504,-79.224
0.600,-0.819,-0.051,68.909,62.439,-88.074
0.648,-0.824,-0.079,81.177,60.486,-87.524
0.690,-0.809,-0.134,95.032,52.307,-82.336
0.694,-0.815,-0.181,109.375,41.565,-74.280
0.722,-0.861,-0.202,122.803,31.128,-64.514
0.731,-0.873,-0.192,133.118,20.630,-57.068
0.697,-0.850,-0.193,143.066,10.620,-50.964
0.650,-0.843,-0.185,154.968,2.991,-45.410
0.611,-0.869,-0.175,167.297,-0.793,-40.283
0.592,-0.936,-0.166,178.589,0.122,-35.278
0.602,-1.055,-0.115,186.646,3.296,-30.884
0.603,-1.127,-0.112,189.697,0.977,-30.457
0.600,-1.183,-0.191,190.674,-2.686,-29.724
0.547,-1.199,-0.264,189.087,2.014,-26.672
0.541,-1.175,-0.259,184.692,10.498,-22.705
0.530,-0.981,-0.288,177.979,13.611,-19.165
0.544,-0.831,-0.335,177.551,17.456,-9.583
0.570,-0.710,-0.357,181.396,21.790,1.465
0.622,-0.694,-0.352,187.683,21.362,13.489
0.658,-0.673,-0.388,194.397,13.733,22.949
0.686,-0.713,-0.442,202.515,3.235,33.325
0.679,-0.763,-0.465,207.764,-7.202,41.321
0.670,-0.805,-0.514,210.449,-19.043,47.363
0.639,-0.872,-0.544,211.914,-28.625,53.467
0.649,-0.971,-0.584,210.632,-36.011,55.786
0.596,-0.931,-0.569,204.956,-41.687,52.124
0.601,-0.861,-0.556,198.364,-45.837,49.744
0.606,-0.809,-0.572,191.895,-47.424,48.218
0.591,-0.753,-0.598,184.448,-48.950,45.288
0.566,-0.712,-0.607,177.246,-48.523,42.969
0.542,-0.657,-0.624,169.617,-46.875,40.344
0.561,-0.619,-0.641,162.170,-43.335,39.063
0.574,-0.617,-0.655,155.273,-38.757,37.781
0.555,-0.647,-0.673,148.743,-33.386,34.973
0.540,-0.638,-0.678,142.517,-25.696,30.823
0.548,-0.584,-0.667,136.353,-16.663,26.367
0.578,-0.511,-0.657,131.409,-9.460,22.949
0.610,-0.443,-0.626,128.174,-5.676,21.912
0.628,-0.405,-0.601,126.282,-4.700,23.437
0.643,-0.364,-0.577,124.084,-6.897,26.978
0.647,-0.328,-0.569,121.704,-12.207,31.189
0.648,-0.333,-0.555,120.117,-19.653,36.194
0.624,-0.388,-0.572,116.699,-28.564,40.771
0.580,-0.406,-0.589,110.596,-35.583,42.725
0.562,-0.365,-0.573,102.295,-39.124,43.152
0.565,-0.303,-0.555,94.116,-42.114,43.701
0.580,-0.231,-0.543,87.769,-45.776,43.152
0.585,-0.195,-0.560,83.679,-50.476,42.969
0.591,-0.174,-0.596,81.970,-54.626,43.030
0.595,-0.124,-0.587,81.604,-57.800,44.250
0.594,-0.075,-0.561,81.604,-60.669,47.485
0.569,-0.076,-0.572,81.909,-64.209,50.781
0.517,-0.118,-0.626,80.872,-66.162,52.185
0.479,-0.136,-0.669,76.660,-61.646,50.354
0.453,-0.102,-0.691,71.167,-51.270,44.861
0.442,-0.049,-0.697,67.078,-37.170,37.720
0.457,-0.010,-0.697,64.941,-21.423,31.128
0.504,-0.009,-0.689,63.477,-6.348,25.513
0.543,0.016,-0.669,60.303,6.958,19.470
0.574,0.079,-0.626,56.213,19.714,13.733
0.609,0.117,-0.606,52.002,28.625,9.827
0.645,0.126,-0.595,47.852,32.776,7.324
0.678,0.128,-0.607,43.335,33.325,6.592
0.703,0.125,-0.627,38.696,31.799,7.324
0.719,0.138,-0.644,32.776,30.579,7.507
0.720,0.161,-0.652,25.146,29.480,7.263
0.718,0.178,-0.679,17.212,28.748,6.958
0.720,0.199,-0.694,10.620,27.954,6.165
0.723,0.237,-0.716,4.639,27.710,4.700
0.724,0.276,-0.736,0.916,27.222,2.930
0.733,0.317,-0.746,-0.122,26.489,2.502
0.723,0.339,-0.755,1.404,24.963,1.648
0.703,0.349,-0.760,3.418,24.902,0.000
0.685,0.366,-0.767,4.822,26.978,-1.648
0.676,0.383,-0.774,5.249,30.823,-1.953
0.674,0.383,-0.781,4.395,35.461,-1.709
0.680,0.383,-0.798,1.770,40.649,-1.282
0.700,0.396,-0.812,-1.160,45.776,-0.244
0.726,0.409,-0.803,-2.686,49.072,2.380
0.743,0.405,-0.793,-3.540,50.049,5.676
0.751,0.400,-0.784,-4.639,49.500,8.606
0.755,0.396,-0.776,-5.310,47.485,10.925
0.751,0.383,-0.782,-5.920,44.006,12.146
0.751,0.376,-0.788,-5.310,40.222,13.000
0.760,0.361,-0.786,-3.662,35.400,14.038
0.764,0.341,-0.793,-1.953,29.785,13.977

1.216,0.455,-1.068,-444.519,50.232,-88.196
1.129,0.670,-1.190,-456.238,64.575,-101.318
0.905,0.972,-1.367,-458.008,84.534,-106.750
0.763,1.300,-1.578,-449.341,111.816,-99.854
0.735,1.608,-1.697,-422.729,140.015,-77.026
0.824,1.797,-1.674,-374.817,160.706,-45.593
0.962,1.819,-1.498,-302.490,163.391,-16.296
1.091,1.588,-1.141,-214.294,139.771,7.446
1.046,1.127,-0.633,-133.545,85.754,28.870
0.809,0.516,-0.143,-80.078,16.602,50.171
0.518,-0.145,0.191,-66.711,-44.434,71.167
0.370,-0.662,0.420,-91.003,-81.726,85.632
0.420,-0.884,0.619,-138.550,-97.351,92.468
0.530,-0.865,0.799,-182.739,-102.844,93.018
0.611,-0.908,1.123,-211.853,-102.844,85.144
0.679,-0.945,1.584,-223.633,-98.450,63.416
0.873,-1.108,1.868,-218.933,-97.290,38.635
0.912,-1.204,2.077,-210.083,-101.257,9.094
0.804,-1.465,2.325,-197.998,-103.210,-18.127
0.700,-1.682,2.435,-185.486,-101.685,-44.800
0.641,-1.940,2.351,-165.771,-96.130,-67.200
0.566,-2.184,2.143,-141.663,-82.153,-89.844
0.453,-2.403,1.850,-123.169,-55.603,-113.403
0.359,-2.497,1.377,-116.455,-17.761,-133.728
0.465,-2.357,0.958,-122.253,22.400,-148.376
0.689,-2.017,0.571,-133.423,54.565,-154.785
0.836,-1.477,0.177,-137.573,65.735,-154.602
0.890,-0.944,-0.143,-127.380,61.707,-148.621
0.883,-0.498,-0.303,-103.333,52.917,-137.390
0.839,-0.197,-0.320,-66.467,44.556,-119.934
0.759,-0.139,-0.301,-22.339,36.255,-92.773
0.722,-0.229,-0.255,17.944,29.785,-58.350
0.774,-0.350,-0.146,49.133,24.719,-22.461
0.839,-0.454,0.039,68.970,18.005,11.475
0.844,-0.532,0.204,78.674,6.897,42.175
0.789,-0.611,0.330,80.994,-8.240,68.298
0.698,-0.674,0.402,77.087,-23.437,90.881
0.584,-0.708,0.433,69.153,-35.400,110.107
0.529,-0.747,0.383,59.692,-43.152,123.718
0.393,-0.662,0.340,51.392,-46.631,128.174
0.413,-0.748,0.148,47.852,-44.800,124.695
0.321,-0.606,0.183,47.546,-33.020,106.384
0.409,-0.671,0.077,55.359,-23.865,87.585
0.423,-0.646,0.089,63.049,-12.207,60.059
0.464,-0.612,0.078,70.313,-5.310,35.156
0.551,-0.694,0.055,80.017,-0.977,14.648
0.576,-0.662,0.084,86.060,5.127,-2.197
0.631,-0.727,0.080,93.079,10.254,-10.376
0.642,-0.751,0.071,99.182,16.113,-17.639
0.652,-0.745,0.052,106.873,21.301,-20.630
0.678,-0.739,0.027,117.615,25.879,-21.057
0.683,-0.753,-0.023,131.104,27.832,-21.240
0.672,-0.786,-0.075,145.691,29.175,-23.987
0.650,-0.758,-0.087,160.278,33.569,-29.175
0.607,-0.707,-0.065,176.758,38.452,-34.241
0.601,-0.723,-0.090,195.923,41.077,-38.208
0.584,-0.745,-0.136,214.661,43.457,-41.260
0.584,-0.774,-0.173,229.614,46.448,-42.664
0.599,-0.818,-0.208,241.882,48.706,-43.884
0.626,-0.894,-0.218,251.953,51.147,-44.678
0.622,-0.886,-0.217,257.385,52.063,-43.823
0.621,-0.893,-0.222,259.033,55.298,-33.813
0.705,-0.928,-0.202,255.432,61.401,-15.686
0.891,-1.008,-0.084,245.178,59.265,-0.061
0.966,-0.810,-0.116,232.117,36.255,12.878
1.087,-0.962,-0.107,224.854,12.573,41.870
1.087,-0.874,-0.109,209.778,-18.005,62.256
1.106,-0.906,-0.161,198.242,-51.453,88.318
1.062,-0.956,-0.162,189.392,-86.121,110.840
0.995,-1.003,-0.245,180.664,-122.925,124.451
0.896,-1.001,-0.316,172.546,-150.635,131.531
0.742,-0.968,-0.355,162.903,-166.687,131.775
0.622,-0.854,-0.398,153.870,-173.706,126.343
0.559,-0.680,-0.417,149.048,-170.593,121.643
0.506,-0.656,-0.519,149.719,-157.898,120.300
0.499,-0.658,-0.531,145.935,-133.423,109.497
0.455,-0.642,-0.531,139.709,-104.858,92.957
0.441,-0.623,-0.532,136.108,-73.975,77.759
0.521,-0.543,-0.497,131.287,-42.297,64.453
0.638,-0.495,-0.479,127.014,-17.883,54.016
0.716,-0.518,-0.507,124.695,-2.808,44.800
0.739,-0.498,-0.531,122.009,7.751,35.645
0.723,-0.397,-0.511,118.530,16.357,30.151
0.931,-0.401,-0.482,116.333,18.311,30.090
0.857,-0.252,-0.474,113.647,11.963,29.541
0.898,-0.255,-0.483,111.877,2.380,34.729
0.925,-0.308,-0.479,106.323,-8.667,36.438
0.904,-0.221,-0.536,97.351,-22.461,32.471
0.875,-0.208,-0.531,90.210,-31.860,33.081
0.845,-0.184,-0.513,81.909,-39.917,32.227
0.849,-0.196,-0.533,73.608,-46.204,33.142
0.818,-0.207,-0.519,62.439,-47.607,31.250
0.814,-0.229,-0.498,47.485,-44.800,27.893
0.830,-0.236,-0.451,27.649,-38.452,29.053
0.854,-0.187,-0.450,3.357,-33.020,36.743
0.895,-0.121,-0.485,-20.447,-31.677,48.279
0.911,-0.057,-0.500,-40.344,-32.715,60.425
0.876,-0.013,-0.500,-55.054,-34.973,71.106
0.825,0.054,-0.513,-65.674,-37.476,77.209
0.755,0.133,-0.519,-70.618,-36.987,77.087
0.674,0.195,-0.529,-68.054,-33.081,70.007
0.645,0.214,-0.550,-59.814,-26.489,57.190
0.651,0.194,-0.544,-49.011,-17.212,40.710
0.672,0.169,-0.521,-39.673,-7.324,23.193
0.699,0.161,-0.495,-33.325,-0.183,7.812
0.750,0.146,-0.482,-29.541,3.113,-3.174
0.816,0.121,-0.488,-28.809,2.319,-10.315
0.828,0.097,-0.515,-30.701,-0.549,-15.625
0.804,0.102,-0.544,-33.875,-2.563,-19.348
0.785,0.131,-0.556,-36.560,-3.113,-21.851
0.778,0.142,-0.561,-38.269,-2.197,-23.376
0.781,0.146,-0.570,-37.354,-0.366,-24.963
0.827,0.142,-0.570,-35.278,1.099,-26.794
0.884,0.127,-0.576,-31.921,0.732,-28.809
0.916,0.141,-0.573,-28.198,-0.854,-31.372
0.939,0.164,-0.570,-24.292,-3.418,-33.325
0.961,0.168,-0.563,-19.226,-6.897,-34.241
0.964,0.163,-0.561,-13.672,-9.949,-34.668
0.949,0.171,-0.572,-8.728,-11.169,-35.278

1.015,0.894,-0.875,-26.001,-30.457,27.100
0.986,0.913,-0.981,-48.035,-25.818,27.283
0.901,0.890,-1.054,-80.994,-17.700,25.146
0.828,0.865,-1.075,-120.483,-6.958,19.653
0.793,0.845,-1.065,-164.734,3.235,13.611
0.836,0.890,-0.942,-210.754,11.963,7.812
0.867,0.979,-0.811,-254.028,14.099,0.244
0.895,1.020,-0.642,-296.387,8.606,-6.714
0.902,0.973,-0.495,-340.820,-0.061,-13.000
0.760,0.911,-0.444,-386.780,-11.169,-16.479
0.529,0.858,-0.517,-430.786,-20.203,-17.761
0.344,0.888,-0.749,-462.463,-17.761,-19.470
0.215,1.019,-1.053,-471.863,-1.526,-21.240
0.149,1.199,-1.326,-453.552,25.391,-23.010
0.211,1.365,-1.457,-404.785,58.960,-30.273
0.432,1.427,-1.284,-329.224,87.219,-46.387
0.633,1.199,-0.885,-235.474,91.553,-70.984
0.611,0.517,-0.375,-140.076,78.857,-105.469
0.575,-0.459,0.335,-76.294,74.402,-144.348
0.825,-1.249,0.981,-70.313,76.660,-174.561
1.233,-1.544,1.467,-103.394,60.059,-179.993
1.428,-1.470,1.818,-142.517,14.038,-153.992
1.419,-1.457,2.242,-169.739,-42.236,-108.093
1.533,-1.563,2.621,-187.012,-90.515,-57.312
1.626,-1.678,2.829,-196.411,-134.094,-10.437
1.518,-1.882,2.865,-196.899,-172.302,22.156
1.230,-2.146,2.716,-191.101,-193.115,31.128
0.878,-2.289,2.359,-187.622,-180.603,17.029
0.562,-2.295,1.871,-188.477,-135.376,-13.245
0.273,-2.232,1.297,-193.237,-69.031,-53.345
0.104,-2.101,0.734,-199.951,3.296,-95.520
0.109,-1.793,0.246,-202.515,60.181,-131.409
0.227,-1.444,-0.122,-191.650,85.693,-154.114
0.413,-1.045,-0.331,-167.053,76.477,-162.598
0.605,-0.606,-0.365,-131.958,42.908,-162.842
0.724,-0.330,-0.306,-85.876,7.568,-163.391
0.838,-0.323,-0.228,-35.278,-10.071,-163.879
0.873,-0.432,-0.089,7.568,-9.277,-156.616
0.792,-0.492,0.025,34.668,7.812,-138.794
0.825,-0.461,0.126,49.255,31.189,-108.459
1.018,-0.382,0.267,57.251,45.776,-65.613
1.187,-0.311,0.406,62.073,41.321,-16.479
1.142,-0.261,0.489,63.477,15.381,32.043
1.049,-0.350,0.474,60.852,-19.653,76.965
0.824,-0.349,0.451,53.711,-47.974,112.732
0.703,-0.397,0.351,46.753,-61.584,139.648
0.503,-0.361,0.303,39.673,-63.782,152.893
0.489,-0.440,0.236,39.124,-58.533,160.034
0.425,-0.500,0.232,40.527,-50.781,155.884
0.428,-0.578,0.203,43.274,-45.959,145.752
0.449,-0.699,0.194,48.096,-41.931,129.639
0.444,-0.773,0.166,49.866,-37.537,108.704
0.467,-0.789,0.140,49.622,-28.687,84.351
0.512,-0.749,0.146,47.241,-14.099,59.265
0.598,-0.716,0.145,45.105,2.502,34.424
0.667,-0.660,0.156,43.579,19.104,9.888
0.730,-0.684,0.194,45.227,31.799,-9.644
0.775,-0.680,0.144,47.241,34.973,-24.719
0.806,-0.656,0.120,50.903,36.011,-32.410
0.821,-0.658,0.067,57.007,36.194,-35.156
0.814,-0.649,0.050,66.040,37.781,-37.231
0.794,-0.655,0.030,79.651,40.283,-38.025
0.778,-0.681,0.098,96.313,45.044,-37.842
0.782,-0.805,0.178,110.291,49.744,-34.790
0.805,-0.953,0.209,116.638,52.063,-29.541
0.862,-1.024,0.212,113.098,52.063,-23.926
0.879,-0.995,0.192,103.088,50.781,-18.921
0.891,-0.944,0.136,92.896,49.866,-14.099
0.914,-0.875,0.075,86.609,49.683,-10.742
0.923,-0.785,0.039,84.839,49.438,-7.874
0.917,-0.697,0.016,87.830,47.852,-4.150
0.904,-0.619,-0.016,92.896,43.152,2.075
0.899,-0.562,-0.025,99.304,34.912,11.719
0.907,-0.543,-0.017,106.445,22.583,22.827
0.900,-0.548,-0.017,113.342,6.653,32.471
0.871,-0.577,-0.057,120.239,-9.949,39.734
0.826,-0.617,-0.117,127.625,-23.071,44.495
0.806,-0.691,-0.164,133.911,-29.846,46.082
0.775,-0.775,-0.181,137.756,-31.189,44.678
0.714,-0.795,-0.180,136.536,-28.625,43.152
0.663,-0.754,-0.163,130.920,-22.461,43.701
0.668,-0.733,-0.143,123.962,-14.099,45.471
0.708,-0.710,-0.136,117.004,-6.042,45.715
0.740,-0.649,-0.151,110.901,-0.366,44.373
0.763,-0.572,-0.200,108.398,1.404,41.992
0.766,-0.503,-0.266,112.000,1.953,40.222
0.757,-0.459,-0.329,119.995,4.700,40.955
0.757,-0.468,-0.353,132.080,9.216,41.504
0.774,-0.466,-0.375,146.606,12.939,39.734
0.800,-0.438,-0.385,160.889,17.029,40.405
0.833,-0.395,-0.383,172.791,19.836,42.419
0.856,-0.371,-0.395,183.105,18.433,46.143
0.875,-0.420,-0.420,191.895,13.428,50.354
0.898,-0.511,-0.457,199.829,6.165,51.147
0.902,-0.565,-0.467,204.956,0.366,49.500
0.891,-0.527,-0.464,205.994,-4.395,48.035
0.868,-0.498,-0.460,205.811,-9.277,48.889
0.863,-0.524,-0.469,205.444,-15.320,50.964
0.872,-0.543,-0.487,202.454,-21.484,52.368
0.870,-0.492,-0.488,198.059,-25.391,53.589
0.846,-0.439,-0.477,191.833,-27.588,56.824
0.835,-0.379,-0.457,186.096,-28.625,60.791
0.844,-0.351,-0.443,180.786,-29.724,64.941
0.858,-0.341,-0.444,175.232,-31.860,67.444
0.850,-0.308,-0.429,169.495,-34.363,68.420
0.846,-0.282,-0.409,163.696,-37.781,68.604
0.849,-0.288,-0.406,156.677,-42.114,66.895
0.825,-0.262,-0.416,148.376,-46.021,61.401
0.784,-0.211,-0.440,140.137,-48.889,53.650
0.743,-0.171,-0.462,132.812,-48.523,45.471
0.721,-0.114,-0.478,126.709,-43.091,36.621
0.718,-0.063,-0.458,121.033,-34.729,29.114
0.717,-0.029,-0.437,114.319,-25.574,23.621
0.712,0.013,-0.404,106.567,-17.273,18.982
0.712,0.041,-0.374,98.267,-10.681,15.076
0.716,0.066,-0.364,89.600,-6.470,10.559
0.727,0.100,-0.357,82.031,-3.052,5.920
0.757,0.128,-0.361,77.026,-1.587,2.930
0.784,0.141,-0.363,74.097,-2.991,0.977

0.512,1.215,-2.375,-670.898,16.418,2.686
0.499,1.780,-2.424,-568.848,5.493,1.953
0.663,1.848,-1.781,-411.804,7.080,-2.563
0.999,1.558,-0.708,-227.295,-10.986,-0.854
0.963,-0.332,1.087,-57.251,-55.847,4.089
0.823,-1.575,1.583,-31.372,-98.450,-1.099
1.233,-2.083,2.065,-67.139,-137.695,-10.498
1.380,-2.088,2.571,-109.680,-171.021,-13.000
1.279,-2.259,3.061,-137.146,-195.862,-19.226
1.329,-2.525,3.317,-155.579,-196.167,-40.588
1.363,-2.661,3.243,-165.649,-174.988,-84.534
1.135,-2.703,2.870,-170.715,-136.108,-146.240
0.707,-2.703,2.164,-176.575,-72.632,-210.388
0.374,-2.418,1.286,-184.875,16.968,-266.907
0.342,-2.004,0.434,-184.448,111.633,-303.467
0.534,-1.517,-0.098,-169.861,184.143,-313.904
0.788,-1.033,-0.392,-140.930,203.674,-296.021
0.982,-0.540,-0.390,-100.891,168.152,-257.385
1.076,-0.104,-0.200,-55.176,105.713,-214.844
1.157,0.013,-0.047,-7.568,45.349,-175.537
1.268,-0.189,0.108,35.034,1.160,-137.512
1.137,-0.398,0.225,57.983,-21.240,-97.717
0.952,-0.476,0.250,62.439,-21.240,-47.852
0.907,-0.307,0.197,55.359,-14.587,12.146
1.028,-0.221,0.301,50.476,-10.132,78.613
1.140,-0.110,0.331,49.622,-26.245,136.414
1.031,-0.113,0.358,52.917,-61.829,184.509
0.798,-0.277,0.197,58.350,-99.670,220.581
0.532,-0.413,0.196,61.279,-118.469,238.708
0.246,-0.632,0.155,62.012,-119.568,243.835
0.230,-0.683,-0.009,59.387,-108.398,229.858
0.193,-0.572,0.171,56.519,-80.566,209.717
0.278,-0.795,-0.000,60.425,-64.819,187.744
0.310,-0.726,0.188,59.631,-51.392,143.799
0.354,-0.648,0.124,56.885,-48.584,111.389
0.382,-0.768,0.056,58.105,-42.114,82.703
0.392,-0.714,0.022,53.589,-28.015,48.645
0.438,-0.697,0.072,51.880,-6.592,16.418
0.525,-0.743,0.081,52.795,13.977,-11.536
0.592,-0.740,0.110,49.622,34.119,-33.569
0.683,-0.730,0.153,44.128,51.453,-49.255
0.769,-0.703,0.181,38.879,59.875,-58.716
0.833,-0.681,0.173,34.546,58.899,-59.998
0.836,-0.649,0.120,31.067,51.758,-56.946
0.847,-0.658,0.069,30.151,44.617,-50.049
0.863,-0.714,0.062,31.006,38.940,-42.114
0.853,-0.727,0.040,31.555,32.166,-34.119
0.842,-0.762,0.020,33.691,27.344,-24.658
0.844,-0.837,0.036,35.828,26.489,-16.418
0.839,-0.909,0.079,35.950,27.161,-10.986
0.821,-0.959,0.075,34.241,29.358,-7.324
0.833,-0.994,0.041,31.616,31.250,-4.272
0.851,-0.977,0.003,27.588,34.485,-0.916
0.871,-0.917,-0.034,23.499,37.170,3.967
0.902,-0.827,-0.099,21.118,37.598,10.010
0.914,-0.711,-0.147,20.935,35.522,17.456
0.910,-0.606,-0.168,22.705,30.884,26.001
0.904,-0.553,-0.167,28.320,24.841,34.424
0.876,-0.545,-0.168,37.415,18.372,41.931
0.849,-0.555,-0.172,47.546,13.245,48.828
0.825,-0.615,-0.162,57.678,10.559,53.406
0.800,-0.675,-0.142,66.528,10.681,54.321
0.782,-0.703,-0.134,72.021,13.062,53.223
0.767,-0.719,-0.146,73.120,15.076,51.819
0.753,-0.724,-0.182,72.083,16.602,49.622
0.751,-0.734,-0.216,72.754,20.142,46.021
0.775,-0.714,-0.238,76.599,26.733,40.161
0.806,-0.642,-0.256,83.191,33.752,32.227
0.820,-0.575,-0.282,93.628,39.307,24.292
0.813,-0.498,-0.327,107.666,43.335,17.822
0.794,-0.398,-0.366,124.084,46.143,14.038
0.777,-0.317,-0.388,141.113,48.035,13.855
0.766,-0.292,-0.408,158.630,48.767,16.846
0.763,-0.290,-0.440,176.575,48.096,20.081
0.754,-0.292,-0.475,193.726,46.204,22.583
0.746,-0.312,-0.515,210.815,45.044,22.827
0.743,-0.328,-0.535,226.990,46.021,21.179
0.738,-0.340,-0.540,239.624,47.729,18.677
0.732,-0.385,-0.567,250.366,49.133,14.587
0.709,-0.417,-0.607,259.827,52.063,8.606
0.695,-0.408,-0.634,266.602,58.044,2.991
0.720,-0.387,-0.631,271.851,64.697,1.343
0.771,-0.372,-0.605,276.062,68.359,5.005
0.841,-0.355,-0.575,278.442,66.101,11.780
0.891,-0.354,-0.544,279.846,57.007,19.348
0.917,-0.381,-0.498,278.687,43.396,26.367
0.917,-0.421,-0.469,273.437,25.940,31.189
0.871,-0.437,-0.474,263.428,6.836,32.837
0.794,-0.423,-0.492,249.573,-9.399,31.067
0.724,-0.431,-0.528,232.361,-19.592,26.306
0.661,-0.412,-0.579,212.952,-23.193,18.127
0.612,-0.298,-0.615,192.871,-19.897,10.010
0.599,-0.186,-0.630,176.086,-11.658,4.944
0.626,-0.163,-0.635,164.185,-1.343,0.366
0.647,-0.177,-0.631,153.320,11.292,-5.859
0.657,-0.112,-0.622,139.709,25.208,-12.207
0.695,-0.016,-0.587,127.014,37.292,-17.151
0.746,0.026,-0.560,117.065,44.495,-18.921
0.792,0.025,-0.543,108.765,45.776,-18.433
0.827,0.026,-0.526,99.792,42.236,-16.724
0.839,0.035,-0.532,90.454,34.058,-14.099
0.832,0.067,-0.548,81.787,23.132,-11.169
0.800,0.060,-0.557,74.402,12.207,-8.545
0.760,0.068,-0.593,66.040,2.014,-7.385
0.710,0.074,-0.638,58.472,-4.333,-6.958
0.677,0.083,-0.683,50.781,-7.202,-8.484
0.655,0.143,-0.687,41.809,-5.737,-11.475
0.651,0.213,-0.652,34.973,-3.174,-13.245
0.651,0.280,-0.625,31.494,-2.686,-13.855
0.657,0.290,-0.608,31.067,-4.395,-12.634
0.654,0.290,-0.595,31.250,-7.507,-10.559
0.649,0.307,-0.581,31.555,-10.925,-7.507
0.641,0.283,-0.572,32.104,-13.855,-3.418
0.641,0.229,-0.588,29.785,-15.625,0.244
0.644,0.207,-0.617,22.034,-15.015,3.113
0.630,0.215,-0.655,10.681,-11.658,7.507
0.632,0.233,-0.697,-0.427,-7.874,12.878
0.639,0.253,-0.717,-9.705,-3.723,17.822
0.633,0.280,-0.711,-16.663,1.343,20.996

0.860,1.105,-0.693,-48.096,-12.268,-29.846
0.829,1.199,-0.659,-76.233,-19.287,-40.344
0.819,1.223,-0.656,-112.793,-27.222,-51.025
0.808,1.217,-0.698,-157.166,-37.048,-58.655
0.780,1.220,-0.741,-208.984,-41.687,-60.852
0.703,1.222,-0.816,-261.841,-34.851,-56.519
0.601,1.150,-0.804,-312.378,-12.878,-46.021
0.497,1.008,-0.709,-364.380,27.893,-34.668
0.483,0.811,-0.583,-422.974,80.322,-23.071
0.537,0.707,-0.514,-488.831,125.000,-9.094
0.587,0.733,-0.724,-546.997,153.076,6.897
0.655,0.702,-1.036,-582.642,169.861,24.353
0.857,0.768,-1.310,-594.421,173.401,42.419
1.131,1.055,-1.592,-577.881,149.536,61.646
1.309,1.531,-1.755,-526.733,91.858,79.956
1.259,1.966,-1.649,-442.993,10.254,90.759
0.959,1.972,-1.339,-326.050,-69.702,91.736
0.483,1.241,-0.729,-191.772,-115.601,85.327
0.219,0.015,0.128,-97.839,-105.469,79.224
0.306,-0.690,0.508,-85.205,-74.524,75.562
0.646,-1.069,1.129,-101.379,-65.735,65.674
0.859,-1.452,1.639,-119.995,-78.308,52.917
0.892,-1.697,1.900,-128.052,-102.844,31.799
0.890,-1.872,2.011,-116.150,-124.878,-2.930
0.914,-2.046,2.046,-84.961,-131.897,-48.401
1.015,-2.223,2.092,-42.114,-117.371,-99.487
1.198,-2.477,1.958,-0.305,-83.191,-147.888
1.382,-2.863,1.773,23.315,-26.978,-190.125
1.350,-3.146,1.428,5.920,51.025,-225.220
1.162,-3.126,0.903,-48.462,133.911,-246.033
1.091,-2.709,0.353,-122.192,201.355,-243.713
1.020,-1.958,-0.153,-185.730,236.389,-217.163
0.991,-1.199,-0.443,-214.417,238.098,-177.673
1.078,-0.468,-0.560,-207.458,203.064,-135.132
1.200,0.168,-0.554,-166.809,133.911,-96.375
1.165,0.390,-0.602,-96.558,46.326,-65.735
0.935,0.125,-0.719,-12.451,-33.264,-39.856
0.653,-0.090,-0.746,60.303,-79.895,-16.724
0.479,-0.232,-0.608,113.953,-86.304,5.432
0.418,-0.237,-0.410,150.452,-65.063,31.433
0.565,-0.393,-0.250,178.650,-38.818,62.744
0.711,-0.455,0.015,192.322,-16.296,88.379
0.867,-0.555,0.164,194.641,-10.925,110.535
0.891,-0.625,0.253,188.660,-22.522,122.009
0.755,-0.586,0.334,178.772,-38.452,125.610
0.587,-0.580,0.238,170.471,-54.504,129.456
0.439,-0.639,0.085,163.330,-58.472,133.301
0.357,-0.653,-0.005,155.396,-50.598,131.958
0.286,-0.679,-0.193,151.245,-38.696,126.282
0.335,-0.815,-0.248,149.353,-19.226,110.413
0.358,-0.807,-0.243,140.259,-6.226,83.069
0.444,-0.733,-0.194,130.066,0.549,54.443
0.586,-0.711,-0.220,121.216,4.822,25.696
0.547,-0.615,-0.217,114.075,8.606,-0.366
0.345,-0.620,-0.381,111.023,13.184,-16.357
0.601,-0.912,-0.397,103.760,38.086,-29.663
0.566,-0.690,-0.214,83.496,63.538,-53.711
0.532,-0.600,-0.408,74.219,69.336,-64.880
0.646,-0.687,-0.494,72.937,90.027,-70.801
0.719,-0.713,-0.482,67.261,109.436,-81.543
0.707,-0.562,-0.525,67.810,119.873,-93.262
0.771,-0.600,-0.573,80.627,130.493,-98.511
0.804,-0.559,-0.543,92.407,135.132,-104.919
0.804,-0.558,-0.581,106.323,129.761,-106.079
0.815,-0.604,-0.638,122.314,118.347,-105.164
0.805,-0.621,-0.639,135.498,105.286,-100.525
0.789,-0.742,-0.653,145.874,88.379,-91.675
0.781,-0.795,-0.674,150.757,68.787,-85.449
0.795,-0.819,-0.661,154.419,51.575,-77.759
0.784,-0.782,-0.614,157.166,35.706,-68.848
0.765,-0.705,-0.586,158.020,16.846,-59.448
0.734,-0.673,-0.580,156.250,-3.723,-50.049
0.700,-0.691,-0.577,152.954,-23.926,-41.077
0.681,-0.693,-0.577,147.461,-43.213,-31.311
0.651,-0.680,-0.596,141.479,-60.913,-20.630
0.615,-0.694,-0.631,136.108,-75.562,-9.888
0.583,-0.728,-0.651,130.371,-84.412,-1.221
0.553,-0.741,-0.666,124.390,-86.792,5.554
0.533,-0.712,-0.703,119.507,-84.595,9.338
0.536,-0.580,-0.741,115.112,-78.796,9.460
0.554,-0.518,-0.753,113.403,-68.665,9.705
0.539,-0.450,-0.709,112.732,-57.495,6.714
0.525,-0.403,-0.699,113.098,-50.354,3.174
0.501,-0.423,-0.734,114.990,-44.800,0.610
0.498,-0.441,-0.767,115.479,-36.987,-1.282
0.501,-0.455,-0.785,114.075,-28.198,-1.404
0.500,-0.476,-0.802,111.267,-18.860,-0.854
0.504,-0.465,-0.801,106.934,-8.972,-0.549
0.506,-0.397,-0.780,101.379,0.488,0.488
0.524,-0.302,-0.761,95.886,7.996,2.319
0.556,-0.220,-0.730,92.041,11.414,5.066
0.582,-0.153,-0.701,90.149,10.681,8.118
0.573,-0.141,-0.688,89.661,5.676,10.498
0.551,-0.179,-0.690,90.027,-0.549,10.742
0.540,-0.205,-0.691,88.928,-4.517,7.446
0.533,-0.220,-0.704,85.571,-6.287,2.014
0.532,-0.229,-0.747,81.177,-6.775,-4.211
0.530,-0.242,-0.801,77.026,-4.578,-11.230
0.557,-0.189,-0.805,71.167,0.793,-16.235
0.613,-0.088,-0.762,66.528,6.531,-17.273
0.660,-0.009,-0.717,66.223,8.850,-15.015
0.695,0.009,-0.681,67.749,7.141,-11.169
0.723,0.024,-0.657,67.871,2.930,-7.935
0.752,0.078,-0.638,67.810,-2.380,-5.615
0.760,0.110,-0.633,69.092,-9.399,-2.869
0.736,0.107,-0.643,70.740,-16.724,0.366
0.715,0.098,-0.647,71.472,-21.423,3.662
0.691,0.080,-0.681,70.374,-24.048,5.920
0.664,0.089,-0.711,67.566,-24.658,6.958
0.650,0.128,-0.723,64.697,-22.888,8.362
0.634,0.152,-0.745,61.890,-20.203,10.498
0.612,0.163,-0.777,59.448,-17.029,11.475
0.613,0.202,-0.790,56.458,-12.085,11.902
0.625,0.251,-0.784,55.237,-7.202,12.207
0.622,0.270,-0.759,56.458,-3.723,11.963
0.619,0.279,-0.737,56.763,-0.061,10.803
0.629,0.293,-0.710,55.847,3.784,8.179
0.651,0.307,-0.705,54.260,6.348,5.066
0.669,0.331,-0.705,51.331,7.874,2.808

0.490,0.833,-1.376,-377.014,31.799,14.404
0.522,0.804,-1.477,-412.109,53.284,8.179
0.676,0.742,-1.457,-425.110,63.110,-5.737
0.838,0.558,-1.381,-424.988,55.237,-19.897
0.925,0.237,-1.242,-423.828,39.917,-33.264
0.921,-0.068,-1.126,-431.091,22.644,-45.288
0.799,-0.203,-1.081,-448.181,-0.183,-53.589
0.594,-0.076,-1.304,-466.309,-24.475,-58.411
0.380,0.320,-1.690,-462.463,-35.095,-59.998
0.230,0.881,-1.894,-440.369,-21.118,-55.481
0.290,1.437,-1.895,-406.311,10.803,-41.138
0.527,1.811,-1.915,-339.661,43.274,-15.686
0.771,1.963,-1.831,-244.812,60.913,12.634
0.883,1.796,-1.545,-140.076,56.946,36.011
0.789,1.162,-1.013,-44.312,33.203,49.133
0.598,0.349,-0.387,5.188,4.395,56.274
0.402,-0.337,0.008,-1.587,-20.386,64.026
0.314,-0.763,0.265,-49.316,-41.870,67.078
0.291,-0.846,0.378,-115.234,-52.795,67.627
0.305,-0.718,0.462,-170.471,-53.162,69.397
0.427,-0.613,0.686,-203.491,-48.035,70.190
0.621,-0.612,1.006,-213.623,-46.570,63.660
0.763,-0.656,1.359,-202.942,-58.899,49.072
0.784,-0.839,1.507,-176.819,-82.764,29.480
0.655,-0.917,1.545,-142.090,-99.365,1.038
0.507,-1.058,1.533,-94.727,-94.910,-30.151
0.437,-1.318,1.588,-36.255,-68.115,-60.364
0.436,-1.819,1.627,21.790,-27.588,-88.379
0.463,-2.411,1.597,67.261,14.709,-114.563
0.469,-2.915,1.407,86.731,56.152,-135.986
0.438,-3.185,1.145,72.815,98.206,-151.245
0.485,-3.040,0.825,27.649,135.620,-160.767
0.673,-2.672,0.401,-31.677,158.936,-160.645
0.865,-2.172,0.078,-96.069,164.368,-151.489
1.039,-1.555,-0.074,-147.156,149.109,-136.658
1.160,-0.884,-0.170,-171.326,112.976,-117.371
1.188,-0.406,-0.298,-161.438,62.683,-93.323
1.081,-0.166,-0.478,-125.244,8.606,-62.866
0.924,-0.050,-0.648,-73.975,-36.560,-29.846
0.823,0.041,-0.727,-16.846,-64.026,1.404
0.806,-0.016,-0.670,42.969,-72.205,32.227
0.753,-0.225,-0.488,99.487,-68.176,61.951
0.754,-0.520,-0.317,144.287,-63.293,88.745
0.730,-0.770,-0.199,173.889,-61.401,107.544
0.709,-1.047,-0.137,192.139,-59.326,121.216
0.685,-1.224,-0.036,196.228,-57.251,127.869
0.620,-1.262,-0.103,192.078,-59.326,128.296
0.647,-1.270,0.017,187.561,-63.904,123.596
0.542,-1.214,-0.040,185.425,-69.519,114.563
0.457,-1.151,-0.113,186.279,-72.876,102.844
0.340,-1.123,-0.267,190.063,-69.824,90.759
0.231,-1.074,-0.308,198.181,-50.415,75.745
0.218,-1.007,-0.416,207.825,-26.794,60.425
0.190,-0.912,-0.425,219.666,3.357,44.739
0.217,-0.869,-0.437,233.582,31.982,30.640
0.338,-0.884,-0.491,248.657,57.312,16.235
0.449,-0.975,-0.480,259.705,78.735,1.831
0.484,-1.040,-0.440,264.587,93.018,-13.062
0.482,-1.017,-0.435,264.893,99.854,-28.748
0.487,-0.963,-0.502,263.672,103.638,-42.725
0.530,-0.849,-0.630,262.390,110.352,-54.626
0.572,-0.692,-0.611,263.062,121.277,-61.340
0.576,-0.579,-0.524,265.259,122.803,-62.622
0.662,-0.432,-0.551,267.639,106.934,-61.829
0.751,-0.328,-0.609,269.897,89.172,-55.115
0.777,-0.329,-0.647,271.484,71.838,-42.908
0.769,-0.428,-0.715,270.935,50.598,-27.771
0.757,-0.560,-0.766,263.977,28.503,-12.634
0.738,-0.650,-0.795,248.169,7.629,0.122
0.732,-0.614,-0.825,225.952,-12.634,11.047
0.719,-0.465,-0.803,203.552,-30.579,22.278
0.698,-0.311,-0.759,187.988,-49.927,34.729
0.676,-0.197,-0.720,177.368,-68.970,44.739
0.593,-0.204,-0.737,168.884,-86.426,49.683
0.497,-0.312,-0.781,158.936,-96.313,47.546
0.427,-0.278,-0.770,144.043,-97.412,38.940
0.386,-0.193,-0.803,129.822,-90.637,31.677
0.363,-0.109,-0.813,118.103,-76.233,23.621
0.381,-0.049,-0.781,108.032,-58.289,13.733
0.399,0.002,-0.791,99.182,-43.030,3.296
0.418,0.089,-0.797,92.651,-27.405,-2.930
0.460,0.166,-0.737,90.393,-11.169,-3.052
0.501,0.152,-0.706,89.355,-0.610,0.488
0.511,0.105,-0.723,84.778,5.859,3.906
0.514,0.123,-0.720,75.623,12.878,6.042
0.522,0.160,-0.721,65.430,18.799,8.423
0.527,0.181,-0.723,55.969,21.606,10.803
0.555,0.201,-0.719,48.035,22.644,11.658
0.565,0.225,-0.715,41.016,20.874,11.414
0.566,0.252,-0.705,35.278,16.296,10.742
0.551,0.294,-0.681,29.968,10.986,9.460
0.536,0.322,-0.672,25.452,5.615,8.423
0.501,0.325,-0.689,21.729,0.549,6.104
0.479,0.324,-0.712,17.578,-1.770,3.418
0.482,0.337,-0.707,14.160,-2.380,1.099
0.510,0.356,-0.664,12.390,-2.319,-0.854
0.537,0.338,-0.648,11.719,-4.028,-2.686
0.556,0.309,-0.677,8.545,-7.751,-4.883
0.595,0.312,-0.667,2.930,-10.925,-7.263
0.634,0.334,-0.662,-3.479,-15.869,-8.301
0.651,0.353,-0.662,-10.132,-23.743,-8.301
0.648,0.372,-0.664,-16.785,-31.128,-7.202
0.624,0.393,-0.693,-23.743,-37.537,-5.127
0.595,0.420,-0.726,-31.555,-41.260,-2.197
0.576,0.444,-0.733,-37.720,-41.809,2.686
0.556,0.459,-0.734,-42.114,-40.222,8.118
0.534,0.434,-0.762,-44.800,-37.292,12.634
0.511,0.411,-0.780,-47.852,-32.104,15.137
0.512,0.418,-0.789,-50.354,-25.085,15.503
0.520,0.423,-0.810,-51.270,-17.700,14.282
0.530,0.419,-0.820,-50.476,-9.949,11.902
0.566,0.410,-0.827,-49.011,-3.113,9.705
0.597,0.406,-0.833,-47.546,1.831,7.874
0.635,0.403,-0.832,-45.837,4.028,5.859
0.671,0.403,-0.828,-43.579,2.747,4.700
0.697,0.403,-0.805,-40.710,-0.916,4.395
0.698,0.406,-0.782,-37.659,-6.897,4.272
0.688,0.399,-0.755,-34.973,-14.160,4.395
0.677,0.386,-0.724,-33.020,-21.606,4.883

0.557,1.248,-1.668,-462.646,100.891,-106.323
0.842,1.425,-1.667,-401.245,107.056,-103.210
1.097,1.527,-1.412,-317.932,77.148,-90.210
1.155,1.328,-0.695,-226.929,23.987,-74.219
1.098,0.503,0.146,-158.508,-31.311,-53.040
0.779,-0.270,0.506,-147.400,-84.167,-27.588
0.483,-0.826,0.539,-178.406,-113.892,-11.475
0.546,-1.083,0.585,-219.299,-104.553,-0.610
0.739,-1.059,0.895,-250.366,-76.233,14.038
0.824,-1.005,1.350,-267.151,-51.147,31.128
0.912,-1.035,1.731,-269.348,-38.757,43.762
0.823,-1.068,2.041,-260.864,-45.837,51.147
0.622,-1.340,2.228,-240.540,-63.965,58.594
0.321,-1.646,2.293,-214.966,-81.787,58.350
0.125,-2.097,2.192,-184.570,-89.783,53.894
0.088,-2.506,1.915,-157.471,-79.895,46.143
0.221,-2.705,1.594,-141.235,-54.871,33.875
0.474,-2.630,1.241,-139.160,-26.733,9.888
0.705,-2.348,0.819,-148.743,-6.287,-27.039
0.832,-1.953,0.364,-161.926,5.798,-71.228
0.799,-1.476,-0.148,-169.678,10.864,-112.244
0.717,-1.000,-0.523,-159.424,21.301,-144.470
0.755,-0.592,-0.679,-131.531,36.987,-161.804
0.858,-0.287,-0.706,-86.792,46.509,-159.119
0.996,-0.073,-0.626,-27.771,48.035,-140.442
1.087,-0.002,-0.422,34.424,41.931,-112.122
1.126,-0.147,-0.129,90.576,29.968,-76.172
1.116,-0.370,0.112,129.456,13.367,-36.438
1.073,-0.531,0.230,149.658,-3.784,3.601
0.975,-0.651,0.290,158.691,-23.804,41.565
0.907,-0.778,0.315,159.851,-44.373,76.111
0.755,-0.821,0.361,155.334,-61.768,103.088
0.621,-0.802,0.290,151.550,-73.486,119.202
0.577,-0.839,0.248,150.757,-73.059,125.061
0.584,-0.820,0.192,152.527,-66.284,119.934
0.610,-0.763,0.098,160.156,-59.143,108.093
0.577,-0.754,0.027,173.950,-46.448,96.680
0.491,-0.732,-0.004,191.040,-26.978,85.632
0.472,-0.712,-0.051,210.083,-4.150,75.317
0.499,-0.725,-0.055,231.506,20.630,62.744
0.495,-0.768,-0.077,253.418,42.542,48.340
0.494,-0.865,-0.162,276.428,61.157,31.799
0.513,-0.981,-0.245,296.631,80.078,14.954
0.533,-1.098,-0.222,310.364,101.624,-0.183
0.572,-1.181,-0.205,316.650,119.446,-15.381
0.632,-1.165,-0.195,319.031,130.859,-30.884
0.658,-1.081,-0.233,318.054,137.756,-44.495
0.712,-1.022,-0.322,317.749,143.677,-56.335
0.721,-0.997,-0.302,319.641,149.597,-64.636
0.753,-0.960,-0.344,323.181,143.311,-69.153
0.820,-0.901,-0.461,325.012,130.615,-68.787
0.847,-0.868,-0.514,323.242,123.901,-62.195
0.859,-0.852,-0.518,315.979,117.371,-52.734
0.868,-0.890,-0.544,305.664,104.980,-40.527
0.871,-0.876,-0.576,289.734,86.548,-27.710
0.869,-0.814,-0.605,267.883,66.162,-12.329
0.842,-0.758,-0.624,244.629,45.776,4.944
0.824,-0.721,-0.647,222.290,24.231,23.254
0.817,-0.640,-0.657,199.768,0.671,37.964
0.806,-0.536,-0.680,178.345,-22.766,48.340
0.768,-0.431,-0.674,161.804,-43.152,55.237
0.681,-0.396,-0.702,149.292,-59.448,59.204
0.577,-0.403,-0.735,139.404,-70.313,57.922
0.517,-0.357,-0.735,129.272,-71.777,51.758
0.489,-0.253,-0.728,120.239,-67.627,43.152
0.474,-0.135,-0.693,114.929,-60.242,34.790
0.456,-0.074,-0.688,113.525,-50.476,27.771
0.422,-0.075,-0.738,112.671,-38.452,21.606
0.407,-0.116,-0.810,110.962,-21.545,16.113
0.422,-0.106,-0.816,106.750,-0.488,12.085
0.474,-0.035,-0.770,100.647,20.142,10.132
0.545,0.057,-0.715,95.886,34.302,11.475
0.605,0.065,-0.693,93.567,39.246,15.503
0.615,0.043,-0.676,89.783,38.208,17.578
0.613,0.081,-0.671,83.191,33.508,16.541
0.595,0.125,-0.653,77.454,27.649,15.015
0.559,0.114,-0.666,72.632,20.569,12.146
0.534,0.125,-0.725,65.552,13.489,8.240
0.534,0.163,-0.769,58.167,9.583,6.165
0.538,0.183,-0.797,50.598,7.874,6.409
0.521,0.192,-0.838,42.480,6.531,6.409
0.506,0.211,-0.869,32.959,8.301,6.592
0.512,0.231,-0.881,23.987,11.780,7.507
0.533,0.270,-0.861,17.639,13.123,8.667
0.555,0.301,-0.822,15.869,11.780,9.705
0.571,0.307,-0.759,17.090,9.094,9.216
0.598,0.301,-0.709,19.775,5.005,6.104
0.609,0.291,-0.685,21.790,0.000,1.587
0.610,0.293,-0.668,22.156,-4.333,-2.075
0.601,0.298,-0.681,21.790,-8.728,-3.540
0.588,0.302,-0.693,20.325,-11.108,-3.052
0.582,0.316,-0.701,17.517,-10.437,-1.038
0.580,0.335,-0.707,14.221,-7.996,2.686
0.572,0.349,-0.703,10.986,-4.089,7.751
0.558,0.361,-0.684,7.874,-0.122,13.306
0.548,0.369,-0.654,4.272,3.235,17.578
0.552,0.363,-0.638,0.488,5.554,20.203
0.548,0.358,-0.666,-4.272,6.287,20.386
0.564,0.359,-0.681,-9.033,6.775,19.470
0.577,0.367,-0.690,-13.306,6.165,18.250
0.591,0.394,-0.695,-17.334,4.456,16.296
0.591,0.412,-0.693,-20.264,1.831,13.733
0.589,0.429,-0.705,-23.132,-0.854,11.353
0.598,0.437,-0.711,-24.292,-4.517,10.132
0.599,0.442,-0.721,-23.682,-8.972,9.277
0.593,0.458,-0.723,-22.705,-12.634,8.301
0.593,0.471,-0.716,-21.423,-15.503,6.836
0.574,0.481,-0.711,-19.531,-17.700,4.761
0.559,0.477,-0.705,-18.555,-17.944,2.625
0.552,0.468,-0.724,-18.188,-16.907,0.122
0.556,0.462,-0.749,-18.311,-14.160,-2.075
0.573,0.448,-0.770,-18.188,-10.498,-2.808
0.593,0.442,-0.783,-17.029,-6.348,-3.357
0.619,0.437,-0.768,-13.794,-1.892,-3.662
0.652,0.426,-0.744,-10.254,1.221,-4.517
0.670,0.399,-0.722,-6.958,3.113,-6.165
0.666,0.406,-0.705,-4.272,3.052,-7.812
0.644,0.398,-0.669,-0.305,0.977,-8.606
0.651,0.381,-0.678,2.502,-1.892,-9.766

0.855,0.904,-1.114,-322.571,-44.006,-44.678
0.757,1.107,-1.106,-302.734,-70.496,-40.527
0.659,1.129,-1.114,-275.940,-90.637,-31.555
0.580,1.016,-0.994,-245.972,-100.159,-18.005
0.524,0.762,-0.709,-217.590,-98.511,-2.869
0.616,0.409,-0.334,-196.960,-87.891,15.808
0.743,0.035,-0.005,-190.857,-78.186,38.635
0.874,-0.275,0.267,-198.364,-73.181,62.317
1.010,-0.436,0.518,-213.379,-80.811,83.923
1.079,-0.517,0.754,-229.492,-99.304,100.037
1.023,-0.588,1.031,-241.760,-115.112,109.070
0.897,-0.691,1.329,-248.779,-120.178,109.436
0.793,-0.865,1.690,-248.474,-114.624,99.121
0.690,-1.127,2.079,-238.647,-100.586,78.003
0.580,-1.544,2.398,-215.759,-82.764,47.363
0.505,-2.097,2.549,-181.946,-66.345,11.108
0.370,-2.692,2.432,-146.118,-55.786,-27.283
0.148,-3.219,2.066,-115.662,-40.649,-67.566
-0.061,-3.462,1.557,-101.379,-7.996,-109.192
-0.124,-3.411,0.940,-106.506,43.030,-147.461
0.140,-3.054,0.265,-128.296,102.112,-177.917
0.531,-2.395,-0.207,-154.907,148.437,-201.721
0.737,-1.595,-0.536,-166.321,171.082,-218.201
0.792,-0.846,-0.776,-152.039,173.340,-224.976
0.889,-0.240,-0.896,-111.023,162.476,-226.257
1.011,0.163,-0.876,-43.274,143.555,-224.243
1.089,0.302,-0.731,41.382,125.427,-215.454
1.133,0.184,-0.476,129.822,114.624,-200.623
1.164,-0.086,-0.131,206.665,104.980,-180.359
1.156,-0.385,0.134,265.442,88.562,-154.541
1.091,-0.753,0.285,308.167,63.660,-122.375
1.007,-1.154,0.475,331.238,33.203,-87.097
0.834,-1.385,0.520,335.327,-5.554,-52.734
0.639,-1.537,0.559,330.261,-37.292,-14.404
0.504,-1.578,0.532,313.721,-59.326,24.719
0.416,-1.545,0.534,289.612,-70.862,63.293
0.355,-1.386,0.483,259.155,-78.430,97.900
0.333,-1.258,0.388,232.178,-78.430,126.160
0.345,-1.105,0.209,211.975,-75.684,142.090
0.367,-0.960,0.055,204.529,-71.533,148.193
0.382,-0.831,-0.086,208.252,-63.660,145.996
0.402,-0.730,-0.236,221.924,-53.589,137.878
0.414,-0.721,-0.365,242.126,-40.100,125.793
0.417,-0.784,-0.434,264.832,-21.240,108.704
0.365,-0.823,-0.482,287.415,-0.671,85.938
0.292,-0.812,-0.524,307.251,22.400,61.646
0.327,-0.842,-0.543,320.801,50.354,40.283
0.386,-1.034,-0.492,324.707,75.989,18.127
0.459,-0.867,-0.448,314.514,86.548,-10.193
0.391,-0.508,-0.534,310.059,95.642,-16.296
0.510,-0.910,-0.531,311.401,108.948,-9.399
0.561,-0.899,-0.631,287.476,106.140,-25.696
0.534,-0.850,-0.700,264.954,101.440,-26.794
0.541,-0.666,-0.716,236.877,97.046,-28.625
0.668,-0.483,-0.708,209.839,89.355,-25.757
0.767,-0.359,-0.705,188.477,72.998,-20.386
0.785,-0.341,-0.718,172.852,49.011,-14.954
0.761,-0.297,-0.680,158.813,23.010,-10.498
0.740,-0.301,-0.670,145.813,-3.296,-4.395
0.716,-0.238,-0.692,132.568,-29.602,-2.014
0.655,-0.153,-0.674,122.681,-52.185,1.160
0.579,-0.107,-0.682,115.784,-71.472,5.249
0.494,-0.110,-0.681,109.680,-82.153,7.019
0.410,-0.114,-0.687,100.403,-84.290,4.944
0.371,-0.154,-0.752,87.769,-79.285,1.526
0.355,-0.057,-0.810,72.693,-65.796,-3.479
0.354,0.037,-0.846,62.256,-44.739,-3.906
0.352,-0.024,-0.856,55.847,-21.118,-0.977
0.323,-0.007,-0.818,46.570,-3.967,-4.822
0.392,0.199,-0.882,40.649,8.789,-7.202
0.469,0.127,-0.798,43.030,28.564,-2.625
0.427,0.196,-0.784,40.710,39.978,-1.648
0.446,0.091,-0.816,38.391,47.485,3.357
0.450,0.142,-0.797,27.893,55.603,-0.916
0.455,0.213,-0.807,20.020,59.448,-1.465
0.500,0.226,-0.789,16.357,60.547,2.502
0.556,0.224,-0.771,12.634,56.702,5.798
0.566,0.236,-0.776,8.606,47.241,7.263
0.554,0.227,-0.804,4.395,36.011,8.423
0.540,0.231,-0.829,-0.793,25.879,8.484
0.530,0.241,-0.850,-4.517,16.296,7.935
0.521,0.231,-0.858,-7.568,8.545,8.057
0.506,0.237,-0.875,-11.780,1.953,7.080
0.500,0.252,-0.899,-16.174,-4.272,6.287
0.502,0.262,-0.909,-19.592,-9.277,6.287
0.499,0.265,-0.934,-22.766,-13.428,7.385
0.495,0.272,-0.925,-24.536,-15.808,7.690
0.506,0.297,-0.900,-24.536,-16.907,7.507
0.508,0.300,-0.886,-22.400,-18.677,6.958
0.500,0.302,-0.870,-19.836,-19.531,5.737
0.495,0.295,-0.856,-16.479,-19.775,4.761
0.488,0.282,-0.854,-13.672,-19.958,3.357
0.487,0.271,-0.867,-11.902,-19.287,1.099
0.476,0.261,-0.917,-11.414,-17.212,-0.977
0.464,0.282,-0.940,-12.695,-11.169,-1.709
0.476,0.299,-0.921,-12.573,-3.174,-1.221
0.490,0.297,-0.907,-11.230,4.028,0.366
0.509,0.286,-0.896,-10.376,9.766,1.953
0.536,0.276,-0.871,-9.460,14.099,3.540
0.566,0.277,-0.840,-7.507,14.954,4.578
0.594,0.263,-0.819,-4.333,11.414,5.493
0.594,0.225,-0.814,-1.160,5.920,5.371
0.575,0.198,-0.817,0.061,1.404,3.296
0.554,0.181,-0.837,-0.244,-1.404,0.427
0.540,0.172,-0.858,-0.793,-2.258,-2.319
0.545,0.163,-0.870,-1.770,-0.793,-4.272
0.567,0.152,-0.890,-3.174,2.136,-6.226
0.592,0.147,-0.901,-4.761,4.883,-7.812
0.613,0.139,-0.891,-6.409,6.592,-8.362
0.632,0.129,-0.880,-7.812,6.348,-8.972
0.649,0.117,-0.890,-8.301,3.906,-10.193
0.663,0.107,-0.924,-7.690,0.122,-11.536
0.668,0.123,-0.933,-4.944,-3.113,-12.512
0.669,0.094,-0.935,1.404,-6.775,-12.512
0.671,0.091,-0.927,7.751,-10.193,-13.062
0.646,0.083,-0.885,13.123,-12.024,-13.977
0.657,0.081,-0.894,16.357,-14.526,-15.198
0.635,0.078,-0.875,18.555,-15.259,-15.320
0.630,0.050,-0.885,20.081,-15.747,-14.954

1.432,1.060,-1.168,-482.544,122.314,7.568
1.534,1.319,-1.011,-405.945,68.970,36.438
1.362,1.276,-0.637,-316.284,2.808,62.256
1.053,0.823,-0.210,-230.591,-58.960,83.862
0.661,0.211,0.127,-172.852,-99.304,100.586
0.366,-0.443,0.455,-153.625,-102.905,111.877
0.329,-0.959,0.775,-167.969,-83.069,116.455
0.358,-1.227,0.991,-196.899,-68.481,110.107
0.270,-1.459,1.195,-220.276,-60.120,91.370
0.246,-1.730,1.502,-234.314,-46.509,60.486
0.293,-1.792,1.576,-235.352,-40.588,23.926
0.360,-1.875,1.576,-220.703,-41.382,-7.446
0.317,-1.887,1.454,-198.669,-40.405,-42.603
0.343,-1.884,1.334,-169.678,-27.588,-74.280
0.434,-1.776,1.110,-136.902,-8.118,-100.159
0.521,-1.668,0.860,-96.802,18.250,-118.896
0.574,-1.615,0.606,-54.871,50.476,-134.827
0.571,-1.626,0.381,-20.752,83.557,-146.606
0.540,-1.625,0.239,-1.160,114.075,-149.658
0.551,-1.588,0.230,0.488,138.062,-141.235
0.688,-1.459,0.226,-10.376,146.057,-124.512
0.849,-1.224,0.134,-23.560,128.784,-103.149
0.925,-0.992,0.035,-30.701,94.177,-81.238
0.904,-0.840,-0.021,-30.640,53.833,-59.692
0.844,-0.735,-0.088,-23.010,16.174,-38.025
0.778,-0.631,-0.150,-9.827,-11.292,-17.029
0.710,-0.531,-0.198,8.057,-27.222,0.610
0.651,-0.491,-0.207,30.396,-33.203,15.625
0.630,-0.502,-0.162,54.932,-34.180,29.114
0.625,-0.559,-0.096,79.346,-34.546,40.833
0.599,-0.656,-0.025,100.281,-37.842,49.805
0.593,-0.774,0.006,114.990,-43.518,57.129
0.577,-0.837,0.131,122.742,-49.438,61.523
0.549,-0.967,0.080,125.916,-59.631,64.636
0.464,-1.023,0.068,123.230,-63.477,64.453
0.409,-1.062,0.054,116.455,-58.044,62.927
0.437,-0.996,0.026,109.009,-46.814,56.580
0.412,-0.845,0.030,103.638,-31.372,48.462
0.444,-0.804,-0.009,106.934,-16.479,43.274
0.479,-0.752,-0.046,112.793,-3.235,35.583
0.490,-0.760,-0.072,120.789,6.592,28.076
0.494,-0.823,-0.118,130.066,11.719,20.081
0.487,-0.877,-0.166,140.442,14.099,11.719
0.513,-0.912,-0.206,150.879,16.113,3.479
0.528,-0.908,-0.226,159.546,18.616,-4.822
0.506,-0.922,-0.247,165.771,22.888,-13.062
0.501,-0.930,-0.274,169.128,30.151,-22.644
0.510,-0.872,-0.274,169.434,38.269,-31.799
0.523,-0.759,-0.298,170.227,42.358,-38.818
0.545,-0.672,-0.354,173.950,45.044,-41.992
0.564,-0.631,-0.407,180.847,48.889,-41.077
0.604,-0.638,-0.476,189.453,52.429,-38.574
0.630,-0.682,-0.527,198.486,55.908,-35.400
0.642,-0.730,-0.578,204.895,58.960,-31.555
0.662,-0.792,-0.593,207.947,60.303,-25.146
0.696,-0.821,-0.586,205.505,58.655,-15.808
0.740,-0.762,-0.578,198.303,50.476,-5.249
0.775,-0.705,-0.587,189.880,35.706,6.531
0.774,-0.678,-0.612,183.838,16.174,20.752
0.735,-0.636,-0.657,178.406,-3.967,36.499
0.696,-0.589,-0.693,172.791,-20.935,52.429
0.675,-0.580,-0.694,166.687,-34.180,66.467
0.643,-0.569,-0.718,160.583,-47.607,76.599
0.608,-0.607,-0.769,156.006,-58.411,85.632
0.551,-0.630,-0.774,150.513,-63.354,91.614
0.507,-0.580,-0.787,143.311,-65.857,93.506
0.462,-0.522,-0.808,137.817,-63.843,93.323
0.421,-0.491,-0.819,134.644,-56.824,89.600
0.406,-0.468,-0.828,132.263,-46.387,82.336
0.399,-0.418,-0.812,129.578,-32.837,72.083
0.401,-0.365,-0.793,126.953,-18.188,59.692
0.413,-0.350,-0.784,124.084,-4.028,46.387
0.417,-0.347,-0.811,120.178,9.521,33.875
0.427,-0.298,-0.815,115.417,23.437,23.560
0.483,-0.234,-0.819,110.413,36.438,16.296
0.541,-0.189,-0.808,106.384,44.861,13.489
0.593,-0.154,-0.795,103.088,48.279,14.221
0.628,-0.119,-0.768,100.098,45.837,18.188
0.649,-0.063,-0.718,96.130,39.124,24.170
0.639,-0.031,-0.680,92.957,28.503,31.738
0.592,-0.042,-0.665,88.867,15.442,38.879
0.532,-0.071,-0.673,82.825,4.333,43.457
0.477,-0.112,-0.709,74.036,-2.930,45.898
0.455,-0.088,-0.717,63.110,-5.737,46.387
0.469,-0.020,-0.731,53.223,-6.836,45.776
0.499,0.043,-0.734,47.546,-10.010,46.021
0.540,0.086,-0.711,44.983,-15.137,48.828
0.559,0.124,-0.666,44.434,-23.804,52.551
0.549,0.190,-0.623,45.227,-35.339,56.519
0.517,0.228,-0.568,49.011,-49.072,61.462
0.453,0.205,-0.557,52.551,-62.134,66.467
0.342,0.145,-0.599,53.223,-69.946,68.909
0.228,0.125,-0.658,50.049,-66.528,68.420
0.185,0.140,-0.702,44.373,-52.185,66.650
0.180,0.156,-0.731,37.903,-32.959,63.660
0.199,0.174,-0.733,30.396,-10.681,59.570
0.228,0.202,-0.748,21.301,12.085,53.528
0.253,0.234,-0.757,12.573,35.522,45.593
0.295,0.286,-0.742,4.944,58.838,37.415
0.355,0.333,-0.707,-0.427,78.369,30.762
0.410,0.372,-0.686,-4.395,91.614,26.001
0.479,0.407,-0.679,-7.690,99.060,24.475
0.524,0.419,-0.685,-10.498,100.586,25.879
0.541,0.423,-0.707,-14.404,99.060,27.588
0.549,0.430,-0.713,-20.630,96.802,28.992
0.559,0.443,-0.726,-28.748,94.788,29.236
0.575,0.449,-0.765,-37.903,91.675,27.283
0.600,0.457,-0.807,-48.035,87.708,24.109
0.629,0.469,-0.822,-57.312,82.886,20.752
0.658,0.498,-0.847,-63.843,75.439,16.663
0.687,0.521,-0.858,-66.895,64.392,13.733
0.698,0.546,-0.862,-65.613,50.537,11.902
0.673,0.561,-0.858,-60.181,35.706,9.033
0.629,0.551,-0.859,-52.429,23.560,5.432
0.586,0.528,-0.858,-44.922,15.564,1.038
0.556,0.501,-0.871,-39.490,11.536,-4.089
0.538,0.484,-0.895,-37.109,10.498,-10.315
0.544,0.481,-0.917,-35.400,10.681,-16.235
0.550,0.480,-0.953,-32.898,11.414,-21.423

1.153,0.059,-1.286,-346.497,-71.167,-80.383
0.954,0.184,-1.321,-361.572,-54.138,-76.599
0.871,0.484,-1.327,-382.446,-25.879,-63.904
0.932,0.829,-1.368,-396.118,-2.319,-39.978
1.011,1.087,-1.501,-390.625,8.606,-6.287
1.077,1.220,-1.653,-363.159,4.822,31.433
1.128,1.277,-1.702,-315.063,-11.475,69.885
1.173,1.272,-1.557,-252.502,-38.086,103.394
1.249,1.156,-1.284,-185.730,-75.684,130.432
1.246,0.776,-0.823,-128.662,-122.498,158.081
1.069,0.267,-0.405,-98.633,-167.175,190.002
0.645,-0.336,-0.186,-103.333,-196.411,220.520
0.333,-0.980,-0.078,-132.446,-192.139,229.919
0.327,-1.291,0.104,-174.316,-159.729,210.937
0.470,-1.171,0.325,-207.520,-125.732,175.720
0.725,-0.980,0.499,-214.417,-108.154,141.724
0.741,-0.855,0.698,-205.383,-93.933,113.098
0.614,-0.688,0.959,-190.125,-85.327,79.590
0.584,-0.747,1.224,-159.241,-86.975,48.584
0.546,-0.907,1.415,-121.155,-90.698,20.264
0.394,-0.993,1.480,-79.651,-91.797,-10.132
0.267,-1.236,1.441,-30.090,-82.764,-40.466
0.198,-1.731,1.530,17.700,-57.373,-68.237
0.135,-2.358,1.708,49.744,-25.330,-96.802
0.092,-3.027,1.782,53.833,1.892,-127.808
0.062,-3.458,1.593,19.104,26.794,-157.776
0.036,-3.294,1.178,-48.096,62.805,-182.129
0.185,-2.639,0.579,-122.742,110.229,-199.036
0.419,-1.931,0.070,-173.523,152.222,-205.933
0.637,-1.219,-0.232,-193.542,181.152,-202.148
0.856,-0.558,-0.339,-185.913,188.293,-183.960
1.028,-0.014,-0.349,-151.367,166.138,-152.222
1.105,0.284,-0.366,-94.727,119.873,-109.619
1.073,0.312,-0.316,-27.161,64.758,-59.448
1.015,0.104,-0.195,38.147,16.724,-8.972
0.943,-0.221,-0.016,90.149,-17.334,37.903
0.841,-0.505,0.156,119.812,-36.987,80.872
0.725,-0.714,0.253,130.676,-48.279,117.249
0.616,-0.837,0.312,128.235,-54.321,145.264
0.544,-0.969,0.273,119.629,-56.030,163.696
0.494,-0.956,0.340,108.582,-53.040,169.373
0.463,-0.832,0.330,101.379,-51.880,169.128
0.487,-0.890,0.208,99.976,-48.401,162.231
0.374,-0.743,0.221,98.328,-38.940,143.860
0.337,-0.781,0.137,107.971,-28.381,131.592
0.362,-0.733,0.052,119.141,-14.221,112.915
0.364,-0.688,0.075,130.127,4.639,92.651
0.432,-0.730,0.043,142.761,17.944,72.632
0.396,-0.605,-0.010,153.687,26.489,50.598
0.368,-0.553,-0.082,169.373,33.081,35.583
0.378,-0.557,-0.158,189.148,43.091,19.470
0.372,-0.501,-0.256,210.205,52.856,0.488
0.413,-0.525,-0.311,235.657,67.139,-12.939
0.456,-0.622,-0.338,259.277,83.008,-27.283
0.486,-0.686,-0.364,275.574,97.839,-41.748
0.500,-0.689,-0.346,281.982,112.122,-51.453
0.536,-0.722,-0.315,281.311,122.498,-56.213
0.605,-0.768,-0.312,274.963,125.122,-61.890
0.668,-0.796,-0.352,265.137,121.643,-68.298
0.705,-0.787,-0.417,253.601,116.882,-74.768
0.724,-0.770,-0.480,241.760,112.854,-79.529
0.746,-0.774,-0.550,229.797,108.826,-80.933
0.743,-0.737,-0.622,217.285,104.980,-80.933
0.737,-0.698,-0.689,205.383,102.173,-79.041
0.732,-0.614,-0.706,192.505,102.417,-75.928
0.756,-0.547,-0.698,181.824,100.708,-68.054
0.790,-0.453,-0.677,172.913,93.262,-57.617
0.813,-0.351,-0.636,164.307,81.238,-44.678
0.787,-0.355,-0.655,155.579,64.758,-30.762
0.738,-0.420,-0.690,145.447,47.607,-19.043
0.711,-0.453,-0.717,131.958,32.532,-10.315
0.695,-0.466,-0.746,117.737,18.921,-4.333
0.669,-0.448,-0.760,103.516,9.399,-1.770
0.644,-0.361,-0.739,88.196,3.113,-0.610
0.620,-0.327,-0.736,75.378,-2.686,0.183
0.607,-0.315,-0.735,65.002,-7.263,-0.305
0.617,-0.271,-0.738,55.664,-11.169,-1.648
0.611,-0.241,-0.766,49.316,-17.212,-2.930
0.591,-0.164,-0.754,46.570,-22.278,-3.174
0.574,-0.127,-0.757,44.861,-25.818,-2.747
0.506,-0.176,-0.808,44.678,-27.100,-2.014
0.446,-0.170,-0.822,42.053,-21.301,-2.808
0.428,-0.178,-0.829,36.865,-11.047,-3.479
0.422,-0.172,-0.850,31.799,-0.305,-5.005
0.453,-0.157,-0.855,26.489,11.353,-7.385
0.479,-0.202,-0.913,21.301,20.691,-10.498
0.511,-0.167,-0.919,16.663,28.870,-14.282
0.567,-0.084,-0.883,13.367,34.912,-16.785
0.622,-0.003,-0.833,13.000,34.912,-16.968
0.640,0.040,-0.803,14.893,29.541,-14.709
0.633,0.050,-0.766,16.968,20.874,-10.437
0.630,0.054,-0.711,17.273,10.864,-4.944
0.624,0.050,-0.684,15.564,-0.427,-0.610
0.598,0.016,-0.691,11.719,-11.230,2.563
0.538,-0.038,-0.732,5.249,-19.836,1.953
0.476,-0.060,-0.792,-4.333,-22.583,-2.747
0.420,-0.061,-0.863,-14.832,-17.334,-9.766
0.411,-0.043,-0.917,-25.574,-5.493,-18.127
0.458,0.013,-0.931,-34.729,8.240,-26.123
0.531,0.066,-0.919,-40.894,20.447,-31.067
0.601,0.082,-0.911,-44.800,28.687,-32.227
0.651,0.093,-0.917,-47.607,32.593,-31.250
0.698,0.104,-0.916,-50.049,32.349,-28.748
0.717,0.102,-0.946,-51.392,27.710,-25.452
0.715,0.104,-0.975,-51.086,22.461,-21.545
0.698,0.110,-0.989,-49.866,19.348,-17.456
0.659,0.101,-1.012,-48.218,17.822,-13.855
0.633,0.106,-1.011,-46.936,18.738,-11.047
0.634,0.117,-0.999,-46.204,21.790,-8.423
0.643,0.106,-0.984,-45.471,24.841,-5.920
0.655,0.083,-0.971,-45.166,26.672,-4.578
0.679,0.076,-0.965,-45.776,26.123,-4.395
0.710,0.082,-0.958,-45.593,22.827,-4.089
0.736,0.079,-0.944,-44.189,16.541,-3.174
0.735,0.073,-0.939,-42.847,8.057,-1.160
0.731,0.073,-0.915,-42.053,-0.916,1.892
0.730,0.075,-0.897,-41.443,-10.559,5.005
0.715,0.065,-0.890,-39.856,-20.752,7.690
0.702,0.051,-0.880,-37.781,-29.541,10.620

-0.081,-3.152,0.296,70.190,59.021,141.663
-0.130,-3.684,0.150,55.786,84.595,105.103
-0.093,-3.995,-0.085,22.339,117.065,62.927
0.040,-3.918,-0.351,-32.959,149.292,26.917
0.147,-3.359,-0.595,-104.004,172.485,-4.822
0.186,-2.631,-0.785,-162.781,181.274,-25.574
0.214,-2.051,-0.956,-196.289,172.791,-36.072
0.304,-1.598,-1.070,-206.299,153.015,-42.175
0.514,-1.135,-0.994,-195.251,127.319,-48.401
0.713,-0.686,-0.837,-161.560,92.224,-54.993
0.754,-0.372,-0.719,-105.896,45.959,-59.387
0.613,-0.241,-0.647,-35.583,-0.671,-59.143
0.436,-0.335,-0.571,35.706,-36.621,-51.636
0.338,-0.395,-0.554,95.764,-61.279,-40.161
0.307,-0.592,-0.492,146.667,-70.679,-25.574
0.241,-0.759,-0.536,182.434,-69.763,-12.634
0.192,-0.937,-0.393,201.477,-54.993,-0.977
0.212,-0.980,-0.251,207.703,-41.626,7.629
0.258,-1.007,-0.261,208.374,-33.997,17.212
0.253,-1.091,-0.113,199.707,-26.428,26.733
0.263,-1.196,-0.104,181.519,-31.006,31.799
0.200,-1.251,-0.029,152.832,-37.842,34.546
0.128,-1.197,0.000,118.103,-48.035,35.400
0.105,-1.088,-0.053,86.548,-62.195,34.180
0.068,-0.877,-0.141,61.890,-77.515,32.410
0.048,-0.847,-0.296,49.500,-91.064,33.203
0.022,-0.813,-0.385,42.969,-101.501,25.024
0.010,-0.774,-0.444,38.513,-108.093,11.475
-0.076,-0.768,-0.467,37.781,-105.286,2.136
-0.136,-0.911,-0.567,40.833,-91.980,-3.113
-0.084,-1.115,-0.621,36.926,-68.176,-13.489
-0.070,-1.060,-0.611,23.499,-40.161,-28.931
0.039,-1.104,-0.586,10.437,-17.212,-32.166
0.179,-1.173,-0.507,-8.362,-3.174,-32.471
0.244,-0.984,-0.396,-33.752,-0.671,-36.499
0.213,-0.700,-0.344,-52.490,-7.690,-34.424
0.211,-0.571,-0.446,-57.556,-22.644,-27.954
0.182,-0.490,-0.557,-54.565,-38.086,-22.278
0.111,-0.378,-0.674,-47.668,-48.218,-17.029
0.055,-0.373,-0.748,-34.668,-50.049,-8.423
0.074,-0.492,-0.815,-17.212,-47.363,-1.343
0.092,-0.472,-0.806,-1.770,-41.687,2.014
0.120,-0.412,-0.776,13.489,-35.156,5.981
0.157,-0.365,-0.724,30.090,-30.273,9.216
0.186,-0.362,-0.706,48.645,-29.297,12.817
0.201,-0.406,-0.690,66.711,-30.396,16.907
0.182,-0.431,-0.690,81.360,-33.752,19.836
0.172,-0.444,-0.718,93.872,-38.513,22.705
0.167,-0.428,-0.750,104.248,-43.213,26.062
0.177,-0.450,-0.790,114.807,-48.828,29.846
0.182,-0.478,-0.814,123.047,-57.495,30.396
0.130,-0.481,-0.851,128.723,-68.115,29.541
0.058,-0.538,-0.891,134.033,-72.937,29.541
0.008,-0.596,-0.932,134.888,-71.350,27.100
-0.010,-0.652,-0.988,132.812,-65.369,23.499
0.023,-0.658,-1.031,129.395,-56.274,19.409
0.056,-0.636,-1.044,124.268,-48.340,14.709
0.106,-0.590,-1.016,119.690,-42.236,9.155
0.174,-0.521,-0.972,114.929,-39.307,4.333
0.227,-0.458,-0.952,111.328,-41.992,0.122
0.261,-0.362,-0.913,107.544,-48.035,-2.686
0.269,-0.294,-0.887,103.455,-55.054,-3.235
0.211,-0.342,-0.952,100.891,-61.646,-3.601
0.156,-0.378,-1.019,97.717,-63.354,-4.883
0.181,-0.283,-1.018,91.980,-58.655,-5.676
0.233,-0.170,-0.985,88.684,-53.345,-4.578
0.276,-0.122,-0.948,89.722,-49.438,-2.991
0.301,-0.117,-0.916,90.820,-47.302,-1.587
0.311,-0.147,-0.915,88.501,-46.448,-1.709
0.307,-0.175,-0.947,83.374,-46.021,-3.174
0.321,-0.149,-0.960,75.806,-44.067,-4.883
0.345,-0.109,-0.973,66.589,-41.809,-5.066
0.369,-0.104,-0.996,57.190,-39.917,-2.808
0.391,-0.080,-0.997,47.485,-38.391,0.977
0.414,-0.019,-0.969,37.476,-37.720,5.676
0.399,0.000,-0.953,28.625,-39.001,10.498
0.342,-0.019,-0.973,20.020,-38.818,14.038
0.283,-0.041,-0.994,9.583,-34.119,14.465
0.253,-0.047,-1.010,-1.343,-24.292,11.841
0.249,-0.035,-1.026,-11.353,-11.658,6.653
0.269,0.003,-1.016,-18.860,1.160,0.854
0.292,0.026,-1.000,-23.193,12.390,-3.235
0.331,0.046,-0.984,-24.719,21.179,-6.226
0.377,0.039,-0.969,-25.085,25.635,-7.629
0.416,0.032,-0.960,-24.841,25.757,-7.629
0.449,0.039,-0.940,-24.109,21.362,-6.165
0.478,0.028,-0.936,-22.827,12.939,-3.540
0.494,0.014,-0.941,-22.095,1.770,-0.427
0.514,0.026,-0.930,-22.034,-10.437,4.272
0.531,0.015,-0.946,-21.851,-24.841,10.071
0.537,-0.016,-0.956,-22.156,-39.612,18.372
0.547,-0.021,-0.963,-25.146,-53.345,28.503
0.559,-0.019,-0.971,-29.602,-67.810,37.781
0.552,-0.022,-0.989,-33.875,-82.336,44.861
0.515,-0.027,-1.007,-36.804,-94.543,48.462
0.480,-0.019,-1.024,-37.598,-101.624,48.401
0.454,-0.004,-1.025,-35.461,-104.858,45.593
0.415,0.000,-1.030,-31.128,-103.760,40.771
0.369,-0.002,-1.036,-25.940,-97.168,34.912
0.340,-0.008,-1.017,-21.240,-84.717,29.541
0.321,-0.007,-0.965,-17.761,-68.665,25.146
0.320,-0.046,-0.927,-15.076,-52.185,21.484
0.313,-0.102,-0.912,-15.686,-36.072,17.212
0.334,-0.137,-0.899,-20.508,-18.982,13.977
0.377,-0.160,-0.888,-26.917,-5.676,13.367
0.432,-0.160,-0.861,-33.325,3.418,14.771
0.485,-0.155,-0.845,-38.940,9.155,17.944
0.515,-0.158,-0.852,-43.213,9.583,21.729
0.546,-0.150,-0.843,-45.715,6.775,24.109
0.587,-0.126,-0.827,-46.570,0.610,24.963
0.595,-0.128,-0.822,-43.884,-9.216,23.621
0.568,-0.149,-0.819,-39.856,-19.531,19.714
0.541,-0.157,-0.803,-37.292,-27.832,15.198
0.518,-0.186,-0.801,-35.583,-33.447,10.681
0.498,-0.251,-0.839,-35.461,-35.278,5.676
0.501,-0.300,-0.866,-39.551,-31.006,0.793
0.532,-0.333,-0.919,-46.021,-23.560,-2.747
0.560,-0.314,-0.968,-52.979,-14.526,-3.540
0.599,-0.295,-0.976,-58.228,-6.226,-2.930

0.783,1.071,-0.744,-122.925,-224.976,113.342
0.666,1.196,-0.752,-110.352,-201.538,109.009
0.570,1.283,-0.793,-98.938,-170.349,105.652
0.551,1.317,-0.759,-91.675,-133.484,103.088
0.604,1.262,-0.667,-91.370,-97.290,100.952
0.670,1.152,-0.596,-98.511,-69.702,96.802
0.742,1.111,-0.550,-113.159,-54.199,91.919
0.771,1.088,-0.545,-130.798,-53.528,88.501
0.784,1.000,-0.528,-147.888,-63.416,88.074
0.765,0.916,-0.475,-162.842,-81.665,92.407
0.682,0.800,-0.407,-171.814,-107.056,99.487
0.580,0.613,-0.323,-171.387,-131.226,102.539
0.476,0.440,-0.226,-164.429,-150.269,99.731
0.399,0.297,-0.079,-152.893,-164.978,89.966
0.407,0.101,0.130,-135.010,-177.002,74.219
0.474,-0.126,0.317,-115.112,-193.176,62.561
0.473,-0.349,0.598,-98.755,-215.637,62.927
0.394,-0.612,0.912,-89.050,-240.784,73.425
0.298,-0.855,1.183,-84.656,-264.221,89.478
0.220,-1.004,1.450,-77.393,-281.738,103.638
0.229,-1.124,1.687,-58.044,-290.649,110.657
0.339,-1.266,1.993,-23.926,-290.466,107.971
0.375,-1.363,2.216,15.991,-289.734,90.820
0.341,-1.320,2.245,55.969,-287.964,53.406
0.328,-1.184,2.226,90.027,-264.465,2.502
0.355,-1.095,2.241,108.459,-210.815,-53.955
0.351,-1.099,2.153,101.563,-141.907,-115.540
0.425,-1.119,1.931,70.740,-64.331,-179.626
0.624,-1.194,1.550,22.644,18.494,-239.380
0.849,-1.193,1.090,-31.311,97.961,-284.363
1.053,-0.972,0.687,-79.407,163.635,-306.091
1.240,-0.658,0.392,-109.619,206.726,-302.063
1.391,-0.299,0.220,-115.601,224.915,-275.879
1.471,-0.077,0.006,-98.694,218.201,-230.347
1.430,0.214,-0.059,-66.040,194.092,-178.101
1.315,0.350,-0.001,-18.066,163.818,-117.493
1.194,0.194,0.066,36.011,131.775,-56.946
1.139,-0.035,0.212,82.642,100.830,-4.639
1.056,-0.179,0.351,114.624,68.909,39.490
0.981,-0.365,0.417,138.428,37.659,79.468
0.934,-0.532,0.479,153.748,6.409,107.788
0.831,-0.658,0.549,160.339,-21.362,124.268
0.673,-0.782,0.627,160.400,-39.612,128.113
0.484,-0.839,0.621,154.663,-44.739,117.859
0.328,-0.733,0.610,146.667,-32.715,97.107
0.267,-0.601,0.574,143.555,-6.958,73.730
0.298,-0.463,0.567,147.522,24.414,48.523
0.289,-0.351,0.487,156.982,54.077,23.560
0.311,-0.358,0.374,174.133,81.909,1.221
0.376,-0.310,0.289,196.716,107.727,-19.165
0.384,-0.286,0.187,221.985,127.747,-36.072
0.317,-0.268,0.060,248.718,147.339,-50.354
0.557,-0.283,0.100,276.367,168.640,-59.753
0.725,-0.340,0.060,301.453,174.500,-64.453
0.817,-0.408,0.073,321.167,171.570,-66.528
0.821,-0.451,0.057,332.520,160.950,-62.073
0.974,-0.637,0.071,338.501,145.630,-48.462
0.951,-1.013,0.022,333.496,124.207,-43.457
1.005,-0.674,0.153,310.852,104.126,-59.692
0.973,-0.761,0.160,289.307,83.984,-48.889
1.004,-0.641,0.088,264.160,60.181,-45.044
0.914,-0.497,0.031,242.065,45.593,-33.875
0.906,-0.421,-0.009,221.924,36.682,-18.860
0.921,-0.390,-0.049,202.637,30.396,-8.484
0.922,-0.418,-0.087,185.425,24.048,-1.038
0.929,-0.497,-0.128,169.922,20.081,4.150
0.927,-0.512,-0.150,154.724,18.738,6.042
0.929,-0.493,-0.152,139.832,18.738,7.019
0.932,-0.500,-0.141,125.549,18.799,7.690
0.930,-0.545,-0.150,112.183,18.555,8.057
0.938,-0.576,-0.167,97.534,18.738,7.507
0.954,-0.525,-0.179,82.275,20.386,5.249
0.966,-0.445,-0.187,69.275,21.667,1.343
0.977,-0.377,-0.200,60.181,23.437,-3.052
0.975,-0.327,-0.209,54.016,26.489,-7.141
0.986,-0.298,-0.220,49.683,29.785,-10.254
0.979,-0.203,-0.217,46.631,32.837,-11.292
0.955,-0.197,-0.226,46.753,35.583,-8.362
0.950,-0.188,-0.228,47.058,39.246,-6.714
0.960,-0.192,-0.220,47.668,44.067,-4.883
0.971,-0.192,-0.214,47.791,48.279,-3.540
0.975,-0.190,-0.224,47.180,52.246,-3.113
0.979,-0.203,-0.233,44.495,56.458,-2.930
1.000,-0.180,-0.247,39.856,59.937,-3.174
1.019,-0.136,-0.264,35.339,61.157,-3.418
1.052,-0.068,-0.275,31.860,59.998,-3.357
1.071,-0.031,-0.299,30.945,54.749,-0.977
1.087,-0.017,-0.318,31.921,48.096,3.784
1.078,-0.002,-0.308,33.203,42.297,8.179
1.040,-0.001,-0.292,33.569,36.865,11.719
1.010,-0.048,-0.288,31.799,32.532,13.062
1.007,-0.094,-0.297,27.100,29.724,10.986
1.021,-0.089,-0.308,20.203,28.015,6.165
1.036,-0.081,-0.317,13.550,25.330,-0.122
1.051,-0.066,-0.320,7.202,22.156,-6.287
1.057,-0.031,-0.322,1.526,19.409,-12.878
1.048,0.027,-0.340,-3.174,16.541,-18.005
1.049,0.063,-0.343,-5.310,14.771,-20.020
1.060,0.069,-0.333,-7.568,12.817,-19.470
1.060,0.078,-0.333,-10.437,10.803,-18.066
1.059,0.081,-0.332,-14.038,9.155,-15.686
1.059,0.078,-0.324,-17.578,7.324,-13.184
1.055,0.080,-0.323,-21.790,5.066,-11.353
1.038,0.088,-0.325,-25.940,3.418,-8.972
1.017,0.082,-0.338,-29.175,2.197,-7.080
0.994,0.073,-0.350,-31.799,2.808,-6.165
0.964,0.077,-0.359,-33.875,6.226,-5.615
0.942,0.091,-0.365,-34.790,11.292,-4.822
0.919,0.097,-0.372,-34.180,17.578,-3.540
0.898,0.099,-0.377,-32.349,25.391,-1.892
0.894,0.088,-0.380,-29.114,34.302,0.427
0.920,0.064,-0.385,-26.245,43.884,3.418
0.942,0.055,-0.393,-23.987,52.979,6.653
0.938,0.044,-0.396,-20.142,59.509,10.864
0.930,0.025,-0.406,-15.930,64.819,15.503
0.919,0.006,-0.412,-12.512,70.435,18.738
0.913,-0.020,-0.418,-10.437,76.355,19.714
0.915,-0.046,-0.426,-10.803,81.543,18.860
0.932,-0.059,-0.429,-12.817,83.679,16.846

0.783,0.741,-1.144,-284.607,144.592,0.793
0.765,0.766,-1.093,-273.987,158.142,-16.785
0.842,0.707,-0.892,-259.094,161.804,-40.588
0.870,0.604,-0.675,-247.009,145.508,-63.843
0.736,0.485,-0.491,-238.403,121.216,-81.909
0.522,0.325,-0.369,-233.337,101.440,-89.111
0.463,-0.133,-0.188,-230.774,87.769,-88.623
0.350,-0.138,0.206,-234.009,71.655,-96.436
0.258,-0.433,0.423,-215.942,60.486,-78.796
0.401,-0.674,0.869,-202.332,46.997,-65.918
0.497,-0.900,1.295,-188.843,31.860,-55.969
0.494,-1.229,1.463,-171.692,1.892,-52.795
0.351,-1.431,1.557,-154.175,-22.888,-64.819
0.234,-1.568,1.659,-128.052,-27.710,-83.740
0.180,-1.746,1.679,-89.600,-20.691,-106.079
0.116,-2.043,1.575,-40.710,-5.432,-128.845
0.142,-2.437,1.356,10.071,18.433,-154.419
0.220,-2.883,1.062,47.058,54.565,-179.871
0.240,-3.193,0.803,53.772,97.046,-201.294
0.353,-3.140,0.644,24.902,137.695,-213.867
0.522,-2.657,0.419,-23.682,161.682,-215.881
0.639,-1.992,0.090,-67.322,166.809,-205.872
0.741,-1.365,-0.161,-90.332,159.363,-182.556
0.835,-0.753,-0.250,-88.684,136.536,-153.992
0.860,-0.260,-0.271,-62.927,100.525,-119.263
0.785,-0.101,-0.301,-17.700,58.899,-80.383
0.687,-0.283,-0.309,33.997,21.057,-40.710
0.579,-0.486,-0.228,79.163,-8.789,-5.432
0.505,-0.643,-0.082,111.755,-31.799,25.696
0.481,-0.820,0.030,134.277,-53.833,52.795
0.481,-1.011,0.071,147.522,-78.430,74.463
0.435,-1.138,0.130,150.330,-101.318,89.233
0.351,-1.162,0.173,144.226,-117.310,97.717
0.282,-1.097,0.187,135.437,-123.901,101.563
0.267,-0.996,0.173,130.066,-120.483,102.478
0.243,-0.929,0.125,129.272,-111.023,101.807
0.213,-0.900,0.074,132.324,-97.839,100.586
0.227,-0.856,0.038,138.000,-83.130,98.572
0.262,-0.826,0.004,147.034,-70.923,95.154
0.269,-0.846,-0.025,160.034,-63.538,90.027
0.232,-0.876,-0.077,174.194,-59.570,82.642
0.199,-0.911,-0.138,186.096,-55.420,73.486
0.252,-1.033,-0.193,192.932,-48.279,63.477
0.152,-1.004,-0.219,191.528,-39.734,48.523
0.125,-0.989,-0.225,188.904,-28.503,34.607
0.129,-0.939,-0.284,187.622,-14.587,18.799
0.193,-0.991,-0.379,187.195,4.883,1.526
0.180,-0.831,-0.426,179.077,29.907,-22.644
0.155,-0.748,-0.484,176.697,61.523,-37.170
0.237,-0.801,-0.521,174.255,94.788,-51.025
0.343,-0.729,-0.528,164.856,119.629,-70.374
0.433,-0.660,-0.608,157.471,135.803,-81.299
0.518,-0.697,-0.683,153.564,147.095,-85.876
0.569,-0.630,-0.723,146.912,149.780,-89.050
0.639,-0.581,-0.749,144.104,144.531,-83.496
0.681,-0.571,-0.710,145.813,132.446,-72.876
0.732,-0.657,-0.678,147.156,108.398,-61.035
0.771,-0.665,-0.647,146.301,76.904,-50.537
0.762,-0.575,-0.635,142.334,43.762,-38.147
0.694,-0.496,-0.682,140.686,12.512,-22.522
0.645,-0.444,-0.719,139.954,-9.766,-6.348
0.621,-0.465,-0.693,136.536,-24.963,7.385
0.572,-0.499,-0.617,129.578,-39.856,15.076
0.535,-0.389,-0.709,122.009,-57.312,21.057
0.536,-0.615,-0.857,117.859,-58.533,33.020
0.396,-0.603,-0.859,101.074,-47.058,30.151
0.328,-0.562,-0.920,84.717,-37.292,28.870
0.354,-0.578,-1.013,73.853,-21.362,28.137
0.332,-0.445,-0.942,62.866,0.488,26.001
0.346,-0.353,-0.874,57.983,13.977,27.771
0.419,-0.301,-0.882,55.725,17.944,27.588
0.443,-0.222,-0.856,54.443,20.386,25.879
0.442,-0.176,-0.808,55.603,19.836,25.146
0.495,-0.218,-0.798,57.251,13.733,21.240
0.437,-0.021,-0.779,56.946,5.981,15.381
0.387,-0.099,-0.835,62.195,3.906,18.860
0.303,-0.223,-0.847,60.547,7.385,16.174
0.290,-0.208,-0.861,52.917,11.353,8.484
0.266,-0.119,-0.911,45.349,20.203,2.502
0.256,-0.111,-0.905,40.222,34.851,-0.916
0.306,-0.092,-0.871,32.166,47.424,-5.615
0.344,-0.067,-0.849,23.987,56.213,-12.146
0.358,-0.037,-0.860,15.808,61.646,-19.104
0.406,-0.040,-0.882,8.057,65.125,-24.353
0.468,-0.017,-0.893,0.000,65.491,-29.541
0.513,0.021,-0.914,-6.409,60.486,-32.166
0.560,0.052,-0.926,-10.010,53.467,-30.457
0.590,0.058,-0.925,-11.841,44.434,-25.513
0.596,0.062,-0.915,-12.878,33.203,-20.386
0.583,0.061,-0.931,-14.526,20.386,-14.954
0.550,0.057,-0.953,-16.846,9.766,-9.460
0.506,0.054,-0.991,-20.203,2.502,-5.005
0.474,0.042,-1.027,-22.766,-0.854,-1.221
0.470,0.057,-1.021,-25.391,-0.183,2.441
0.475,0.074,-1.010,-27.588,0.916,5.127
0.451,0.074,-1.009,-28.503,1.953,6.531
0.425,0.080,-1.017,-28.137,3.662,7.080
0.414,0.082,-1.037,-27.161,6.470,7.324
0.396,0.073,-1.050,-25.391,11.230,6.897
0.383,0.079,-1.042,-23.682,17.700,5.676
0.392,0.083,-1.022,-21.912,24.597,4.089
0.403,0.060,-1.019,-19.409,30.396,2.197
0.423,0.035,-1.009,-17.822,35.461,-0.122
0.472,0.020,-0.991,-17.700,39.063,-2.869
0.514,0.011,-0.999,-17.212,38.452,-4.761
0.546,-0.026,-1.000,-16.418,35.767,-4.639
0.567,-0.026,-0.978,-17.090,30.212,-3.845
0.567,-0.049,-0.984,-17.212,21.606,-1.831
0.566,-0.093,-1.048,-17.334,13.184,0.977
0.512,-0.142,-1.034,-19.287,8.362,3.418
0.529,-0.146,-1.075,-22.034,3.235,4.578
0.514,-0.149,-1.032,-22.949,-0.183,7.385
0.504,-0.175,-1.060,-22.400,-3.723,12.146
0.495,-0.177,-1.028,-22.156,-7.324,16.663
0.532,-0.250,-1.036,-21.057,-13.306,22.461
0.547,-0.270,-1.075,-22.583,-22.095,24.963
0.504,-0.236,-1.086,-23.926,-29.236,26.794
0.463,-0.247,-1.061,-21.118,-33.997,30.579
0.461,-0.298,-1.073,-17.578,-40.833,32.898

0.653,0.849,-1.351,-242.432,260.132,-202.637
0.833,0.792,-1.292,-204.712,256.470,-208.740
0.895,0.741,-1.123,-162.659,229.248,-200.928
0.835,0.667,-0.851,-121.094,188.171,-178.223
0.614,0.499,-0.611,-80.322,142.883,-141.907
0.368,0.079,-0.517,-40.649,102.966,-99.060
0.211,-0.422,-0.502,-7.874,73.425,-56.152
0.180,-0.882,-0.428,16.907,59.082,-12.146
0.281,-1.247,-0.244,31.433,59.692,31.982
0.478,-1.509,0.017,35.278,63.721,72.266
0.698,-1.737,0.334,26.123,60.120,105.774
0.854,-1.921,0.651,3.418,45.776,132.690
0.938,-2.008,0.919,-27.283,18.127,152.161
0.894,-2.130,1.000,-54.932,-23.621,162.292
0.720,-2.426,0.864,-78.308,-65.491,159.790
0.493,-2.665,0.665,-101.379,-85.632,141.052
0.299,-2.687,0.464,-119.690,-76.111,114.136
0.175,-2.562,0.271,-129.578,-44.617,80.688
0.157,-2.362,0.063,-131.897,-1.892,47.363
0.161,-2.194,-0.232,-127.625,42.664,22.705
0.148,-2.040,-0.409,-125.671,87.952,1.953
0.170,-1.666,-0.435,-129.761,119.995,-17.883
0.280,-1.302,-0.459,-123.901,131.958,-31.189
0.438,-0.996,-0.460,-108.582,127.014,-36.865
0.545,-0.661,-0.378,-87.524,108.398,-35.828
0.590,-0.401,-0.248,-57.068,79.163,-30.762
0.624,-0.457,-0.192,-20.203,40.710,-20.203
0.628,-0.743,-0.285,11.169,-0.366,-8.606
0.596,-0.905,-0.414,28.015,-29.724,-3.784
0.514,-0.867,-0.499,34.302,-41.321,-3.601
0.483,-0.771,-0.548,37.964,-38.269,-3.357
0.455,-0.699,-0.519,45.959,-29.846,-4.150
0.464,-0.620,-0.517,61.096,-20.935,-5.737
0.502,-0.688,-0.434,82.397,-13.062,-3.479
0.531,-0.788,-0.494,102.539,-16.113,-3.296
0.525,-0.800,-0.427,117.798,-22.156,-6.409
0.489,-0.788,-0.432,133.240,-31.372,-6.348
0.474,-0.898,-0.488,149.597,-41.260,-4.944
0.472,-1.036,-0.551,159.790,-48.706,-7.812
0.449,-1.169,-0.576,162.292,-53.162,-12.268
0.386,-1.240,-0.564,158.020,-53.040,-17.517
0.331,-1.290,-0.539,150.513,-47.058,-21.606
0.305,-1.290,-0.506,141.113,-36.682,-25.391
0.297,-1.246,-0.482,132.324,-26.611,-28.442
0.267,-1.206,-0.497,127.441,-19.531,-29.785
0.253,-1.195,-0.545,126.892,-11.536,-29.907
0.240,-1.156,-0.632,128.845,-1.160,-28.564
0.245,-1.092,-0.724,132.080,13.916,-24.902
0.309,-1.032,-0.694,137.268,32.715,-23.437
0.377,-0.924,-0.707,143.860,42.725,-25.635
0.409,-0.849,-0.724,156.128,48.096,-25.452
0.417,-0.787,-0.713,167.297,50.171,-25.269
0.411,-0.753,-0.722,177.246,46.631,-23.865
0.398,-0.739,-0.761,184.082,40.771,-19.409
0.378,-0.711,-0.783,186.768,34.180,-13.123
0.361,-0.696,-0.808,185.608,26.123,-6.714
0.337,-0.663,-0.837,181.580,16.907,-2.075
0.343,-0.660,-0.889,177.185,8.484,3.296
0.347,-0.603,-0.883,172.180,-0.854,6.104
0.349,-0.541,-0.879,168.396,-10.742,8.667
0.353,-0.494,-0.871,167.969,-20.569,10.254
0.352,-0.448,-0.815,168.335,-29.602,9.644
0.344,-0.420,-0.802,168.640,-41.809,6.165
0.312,-0.331,-0.765,167.603,-53.345,-0.549
0.279,-0.260,-0.771,167.297,-60.059,-3.723
0.225,-0.287,-0.812,165.161,-61.035,-5.127
0.199,-0.299,-0.857,156.982,-57.190,-7.690
0.209,-0.315,-0.933,145.325,-48.950,-7.385
0.194,-0.330,-0.974,131.226,-33.997,-5.615
0.164,-0.294,-0.994,115.356,-18.616,-5.432
0.198,-0.218,-0.992,102.783,-3.662,-3.357
0.280,-0.130,-0.918,94.666,10.864,0.000
0.326,-0.087,-0.837,90.210,19.287,2.380
0.332,-0.054,-0.801,86.365,20.569,2.808
0.303,-0.032,-0.765,82.825,20.142,1.892
0.286,-0.022,-0.769,78.003,19.165,0.977
0.289,-0.038,-0.797,72.205,16.541,1.038
0.298,-0.067,-0.820,64.270,13.245,0.549
0.291,-0.054,-0.827,54.688,10.315,-1.587
0.297,-0.030,-0.840,44.617,7.874,-2.808
0.295,-0.003,-0.884,34.485,4.761,-4.150
0.278,0.056,-0.902,25.696,3.296,-5.615
0.273,0.118,-0.883,20.264,4.761,-5.127
0.282,0.167,-0.871,18.066,4.578,-4.272
0.297,0.187,-0.868,18.738,3.296,-2.625
0.289,0.207,-0.852,19.836,2.502,-1.404
0.280,0.203,-0.858,20.630,2.197,-0.366
0.266,0.209,-0.847,20.508,2.747,-0.610
0.273,0.232,-0.829,19.348,3.296,-2.136
0.260,0.241,-0.829,18.677,4.211,-3.784
0.242,0.239,-0.846,17.212,5.920,-5.981
0.245,0.241,-0.859,14.404,9.460,-7.446
0.269,0.235,-0.866,10.193,13.855,-7.751
0.291,0.236,-0.875,5.066,17.395,-6.897
0.324,0.260,-0.857,-0.549,19.348,-4.700
0.359,0.288,-0.827,-4.272,17.944,-2.380
0.377,0.312,-0.821,-5.737,12.878,0.061
0.340,0.314,-0.856,-7.019,5.554,1.770
0.289,0.316,-0.888,-8.362,1.648,2.502
0.259,0.326,-0.910,-9.705,3.052,2.502
0.260,0.325,-0.919,-11.169,7.996,1.648
0.286,0.321,-0.924,-12.085,13.672,0.122
0.328,0.321,-0.929,-12.573,17.944,-1.526
0.367,0.325,-0.922,-12.146,19.104,-2.808
0.405,0.329,-0.909,-10.986,18.127,-3.418
0.422,0.317,-0.908,-9.521,14.771,-3.845
0.423,0.304,-0.899,-8.972,10.376,-3.418
0.415,0.304,-0.902,-10.132,5.188,-2.808
0.402,0.286,-0.928,-11.902,0.732,-1.587
0.377,0.252,-0.968,-14.648,-0.671,-0.305
0.361,0.233,-0.990,-18.982,1.038,0.671
0.361,0.226,-1.014,-24.475,5.249,1.343
0.373,0.228,-1.043,-30.090,10.315,1.953
0.401,0.243,-1.050,-32.898,13.977,3.845
0.439,0.263,-1.035,-31.433,14.648,7.202
0.460,0.259,-1.021,-26.855,11.963,10.376
0.448,0.237,-1.021,-20.142,6.653,11.536
0.423,0.204,-1.019,-13.367,2.502,10.315
0.399,0.184,-1.033,-7.935,0.305,7.324

0.540,1.260,-1.786,-303.345,53.711,-78.247
0.609,1.689,-1.778,-256.775,49.438,-71.716
0.608,1.966,-1.706,-193.604,26.367,-53.833
0.563,1.786,-1.392,-113.525,2.563,-26.917
0.486,1.106,-0.872,-45.410,-15.015,6.042
0.383,0.363,-0.390,-23.743,-23.560,41.504
0.340,-0.147,-0.138,-51.575,-24.353,76.111
0.406,-0.375,-0.065,-104.309,-25.940,106.018
0.397,-0.264,0.025,-156.982,-30.396,129.700
0.545,-0.547,0.076,-192.200,-36.316,151.001
0.499,-0.358,0.300,-222.473,-50.476,147.156
0.425,-0.499,0.309,-229.004,-73.364,134.155
0.160,-0.411,0.621,-218.994,-83.252,107.605
0.079,-0.801,0.786,-187.805,-89.172,86.243
0.116,-1.224,0.839,-158.752,-88.440,59.509
0.127,-1.271,1.016,-142.944,-63.354,28.381
0.173,-1.256,1.092,-119.812,-23.560,16.907
0.449,-1.449,1.289,-78.186,11.536,17.822
0.756,-1.843,1.415,-38.818,37.720,11.292
0.921,-2.223,1.408,-2.686,60.852,3.906
1.013,-2.536,1.276,21.851,74.341,-13.733
0.984,-2.775,1.046,27.893,86.060,-37.354
0.909,-2.966,0.685,10.315,100.891,-57.129
0.886,-2.915,0.311,-32.654,112.732,-67.871
0.914,-2.512,-0.048,-92.224,108.459,-70.496
1.003,-1.925,-0.302,-143.005,85.815,-69.031
1.052,-1.327,-0.465,-171.997,50.354,-68.237
0.992,-0.852,-0.592,-174.255,12.451,-71.777
0.898,-0.504,-0.676,-154.114,-17.944,-79.163
0.756,-0.295,-0.650,-117.676,-36.621,-83.679
0.607,-0.120,-0.694,-72.998,-47.485,-79.346
0.527,-0.173,-0.646,-21.057,-42.175,-62.744
0.558,-0.193,-0.650,24.963,-30.212,-49.744
0.572,-0.212,-0.549,64.331,-13.123,-34.302
0.640,-0.419,-0.447,102.295,2.014,-15.198
0.703,-0.560,-0.316,126.709,9.949,-2.991
0.748,-0.734,-0.214,143.433,8.545,6.836
0.728,-0.912,-0.132,152.527,1.038,14.465
0.656,-1.047,-0.078,153.076,-8.850,21.423
0.593,-1.137,-0.042,145.691,-18.372,27.405
0.520,-1.209,-0.039,132.019,-25.330,30.640
0.443,-1.255,-0.065,114.502,-26.184,30.090
0.363,-1.263,-0.120,96.924,-19.714,24.658
0.295,-1.277,-0.215,84.106,-6.409,14.038
0.247,-1.318,-0.286,77.454,14.221,-1.953
0.222,-1.374,-0.342,75.256,39.673,-19.775
0.238,-1.370,-0.360,75.439,66.650,-38.696
0.323,-1.298,-0.348,77.271,90.881,-59.387
0.425,-1.215,-0.329,83.069,107.422,-79.285
0.494,-1.148,-0.351,92.163,114.502,-95.764
0.528,-1.192,-0.415,101.868,116.699,-110.413
0.517,-1.188,-0.370,108.093,116.882,-126.831
0.483,-1.113,-0.400,116.943,108.521,-140.198
0.463,-1.079,-0.437,132.874,100.586,-145.264
0.450,-1.030,-0.461,150.330,92.346,-144.348
0.439,-0.928,-0.490,168.091,80.627,-138.428
0.452,-0.824,-0.511,187.317,66.345,-125.793
0.468,-0.708,-0.510,207.275,50.049,-106.689
0.493,-0.610,-0.519,225.769,29.663,-81.482
0.514,-0.561,-0.553,242.310,4.700,-52.490
0.523,-0.583,-0.598,257.935,-23.254,-21.423
0.530,-0.658,-0.625,270.935,-52.002,9.583
0.512,-0.741,-0.635,278.259,-80.383,39.307
0.489,-0.787,-0.646,279.785,-106.689,63.782
0.455,-0.819,-0.671,278.015,-130.920,81.848
0.396,-0.820,-0.696,274.597,-151.123,93.262
0.305,-0.802,-0.731,269.470,-164.978,98.389
0.186,-0.821,-0.791,263.428,-170.288,96.558
0.087,-0.799,-0.793,253.784,-164.856,86.060
0.039,-0.734,-0.767,240.234,-153.503,66.223
0.089,-0.697,-0.814,225.220,-138.672,39.246
-0.064,-0.264,-0.828,209.961,-114.624,13.306
-0.093,-0.464,-1.000,207.275,-74.646,10.559
-0.090,-0.391,-0.912,190.247,-23.376,-8.179
0.059,-0.249,-0.847,170.654,12.756,-21.362
0.174,-0.130,-0.767,158.691,41.748,-22.827
0.273,-0.073,-0.682,144.226,60.730,-22.705
0.333,-0.035,-0.638,127.808,69.641,-22.156
0.351,0.006,-0.623,109.314,70.984,-21.545
0.384,0.005,-0.664,89.111,66.284,-19.958
0.397,0.031,-0.722,65.613,57.922,-20.081
0.423,0.061,-0.744,40.527,50.537,-18.677
0.453,0.111,-0.775,14.893,41.931,-17.456
0.465,0.133,-0.868,-10.864,31.189,-16.052
0.470,0.162,-0.912,-37.354,22.949,-13.245
0.497,0.249,-0.870,-61.584,15.808,-10.010
0.533,0.324,-0.797,-78.430,4.578,-6.165
0.560,0.358,-0.753,-88.806,-10.986,-3.357
0.559,0.333,-0.742,-96.863,-27.893,-0.977
0.521,0.305,-0.767,-106.201,-43.884,-0.671
0.494,0.294,-0.797,-116.516,-56.702,-0.977
0.483,0.273,-0.829,-126.160,-64.270,-0.854
0.452,0.233,-0.882,-135.925,-67.993,-1.709
0.423,0.211,-0.940,-146.545,-66.650,-3.418
0.423,0.236,-1.000,-155.823,-60.059,-5.127
0.435,0.270,-1.049,-159.973,-51.208,-5.249
0.453,0.301,-1.068,-157.471,-41.382,-3.113
0.473,0.321,-1.059,-150.452,-31.372,0.671
0.482,0.321,-1.043,-139.893,-22.278,5.615
0.487,0.311,-1.015,-127.808,-13.123,10.376
0.490,0.295,-0.985,-115.417,-5.066,14.404
0.490,0.270,-0.962,-102.539,1.038,16.785
0.474,0.215,-0.963,-89.111,5.920,17.639
0.456,0.157,-0.968,-77.820,11.230,17.334
0.456,0.100,-0.974,-67.993,16.907,15.381
0.469,0.015,-1.003,-59.509,21.790,12.268
0.477,-0.082,-1.052,-54.626,26.794,7.874
0.495,-0.137,-1.100,-54.260,32.715,3.357
0.521,-0.146,-1.132,-55.054,38.818,0.244
0.552,-0.154,-1.152,-55.237,43.701,-0.488
0.572,-0.142,-1.150,-53.406,45.837,0.793
0.617,-0.177,-1.163,-49.622,45.593,3.845
0.582,-0.187,-1.133,-44.800,43.945,6.104
0.553,-0.134,-1.131,-37.537,40.039,9.277
0.518,-0.224,-1.089,-26.184,35.583,14.771
0.496,-0.256,-1.141,-19.592,28.748,15.076
0.475,-0.229,-1.115,-13.367,29.602,14.526
0.429,-0.337,-1.072,-6.409,33.447,14.832
0.425,-0.346,-1.066,-5.188,30.640,9.705

0.622,-2.030,1.311,-327.332,-5.432,-73.120
0.761,-2.282,1.561,-314.087,-9.949,-92.957
0.859,-2.435,1.655,-303.345,-5.676,-109.314
0.964,-2.304,1.687,-289.490,-2.991,-114.197
1.012,-2.138,1.700,-270.874,-4.272,-111.511
1.021,-2.068,1.510,-249.695,-6.348,-106.995
0.952,-1.841,1.111,-228.333,-8.423,-105.957
0.808,-1.575,0.656,-201.965,-5.554,-106.567
0.713,-1.307,0.310,-169.312,1.892,-100.525
0.755,-1.030,0.111,-133.728,7.812,-87.524
0.849,-0.823,-0.014,-93.811,6.531,-70.190
0.869,-0.693,-0.062,-51.697,-0.610,-51.941
0.804,-0.623,-0.047,-12.939,-4.578,-37.170
0.750,-0.606,-0.059,19.714,-0.916,-23.315
0.696,-0.584,-0.024,45.105,7.690,-7.935
0.641,-0.558,0.047,64.575,17.090,8.240
0.641,-0.554,0.118,79.834,20.020,25.696
0.586,-0.573,0.236,91.064,15.076,41.077
0.526,-0.647,0.232,99.915,3.784,52.246
0.413,-0.637,0.224,104.736,-2.502,58.228
0.372,-0.721,0.285,107.666,-1.831,59.570
0.341,-0.711,0.295,105.591,-0.122,51.086
0.309,-0.682,0.313,103.638,7.629,39.917
0.311,-0.658,0.219,104.675,14.038,28.198
0.326,-0.607,0.173,108.154,21.301,16.418
0.361,-0.530,0.091,114.807,24.048,6.531
0.401,-0.510,0.034,128.235,23.865,-0.366
0.415,-0.504,-0.014,145.447,20.935,-6.409
0.396,-0.558,-0.019,167.419,19.104,-11.841
0.363,-0.699,-0.035,191.528,20.447,-16.785
0.354,-0.870,-0.054,212.708,26.123,-20.264
0.344,-0.995,-0.013,224.243,32.776,-23.376
0.327,-1.028,-0.047,229.065,36.072,-27.710
0.341,-1.100,-0.082,233.459,43.518,-29.724
0.313,-1.102,-0.096,236.084,52.002,-33.386
0.315,-1.113,-0.148,240.295,59.387,-37.048
0.319,-1.073,-0.217,244.934,65.979,-41.931
0.360,-1.077,-0.269,249.390,71.655,-46.570
0.358,-0.987,-0.342,251.404,71.777,-54.443
0.360,-0.902,-0.442,254.883,72.266,-56.152
0.323,-0.807,-0.472,260.376,74.768,-51.514
0.412,-0.862,-0.580,267.334,72.388,-43.579
0.394,-0.881,-0.628,272.278,72.205,-37.048
0.496,-1.026,-0.641,275.879,73.547,-27.222
0.551,-1.068,-0.604,270.874,70.618,-23.926
0.614,-1.079,-0.597,263.794,59.998,-22.278
0.614,-0.992,-0.576,255.310,46.265,-18.860
0.609,-0.875,-0.572,247.253,27.832,-11.597
0.626,-0.826,-0.615,240.234,5.371,-2.502
0.599,-0.831,-0.662,234.070,-16.541,8.423
0.552,-0.783,-0.694,224.670,-36.255,20.142
0.521,-0.713,-0.714,213.806,-53.650,31.372
0.455,-0.700,-0.751,203.003,-68.665,39.917
0.387,-0.749,-0.827,191.772,-77.881,44.556
0.334,-0.777,-0.892,177.490,-76.904,42.847
0.290,-0.745,-0.905,161.560,-67.627,35.583
0.242,-0.672,-0.929,146.362,-55.481,24.658
0.229,-0.581,-0.934,134.644,-37.903,12.024
0.264,-0.494,-0.932,125.610,-19.043,0.122
0.328,-0.423,-0.926,119.568,-3.418,-8.484
0.382,-0.350,-0.902,115.112,10.010,-14.404
0.421,-0.290,-0.887,111.145,19.165,-16.541
0.475,-0.226,-0.876,107.300,23.071,-15.442
0.514,-0.213,-0.854,104.614,21.240,-11.414
0.510,-0.233,-0.855,99.792,15.625,-6.653
0.480,-0.197,-0.854,91.309,9.338,-3.601
0.467,-0.142,-0.833,81.543,4.272,-1.953
0.464,-0.117,-0.855,71.838,-0.977,-1.160
0.452,-0.074,-0.876,62.378,-4.883,-1.953
0.452,-0.012,-0.881,54.932,-6.714,-3.052
0.466,0.047,-0.880,49.255,-8.362,-3.723
0.480,0.085,-0.858,45.471,-9.277,-3.723
0.479,0.081,-0.852,41.382,-10.559,-4.272
0.473,0.068,-0.875,35.217,-11.414,-6.042
0.481,0.075,-0.910,26.611,-10.681,-7.874
0.498,0.116,-0.904,18.005,-9.644,-8.545
0.516,0.187,-0.876,10.254,-8.789,-7.935
0.522,0.249,-0.837,5.554,-9.399,-5.920
0.526,0.259,-0.797,3.601,-11.963,-2.380
0.507,0.228,-0.803,1.160,-15.564,0.793
0.479,0.206,-0.800,-3.784,-16.479,2.380
0.462,0.205,-0.807,-10.620,-14.343,3.235
0.442,0.213,-0.825,-17.578,-10.803,3.662
0.438,0.235,-0.833,-24.353,-4.822,3.845
0.448,0.260,-0.828,-30.151,1.648,3.906
0.465,0.284,-0.821,-35.156,7.812,4.333
0.482,0.306,-0.823,-39.307,12.024,4.822
0.499,0.327,-0.820,-41.687,14.160,5.859
0.517,0.333,-0.822,-42.786,14.099,7.080
0.528,0.338,-0.838,-42.969,12.207,7.141
0.538,0.347,-0.833,-42.053,9.827,5.737
0.557,0.374,-0.806,-40.100,7.141,4.028
0.579,0.380,-0.776,-36.865,3.662,0.916
0.586,0.360,-0.756,-33.081,-0.854,-2.808
0.586,0.337,-0.745,-30.090,-5.493,-6.226
0.590,0.315,-0.748,-28.137,-9.949,-10.071
0.599,0.292,-0.749,-26.917,-14.160,-13.367
0.596,0.262,-0.776,-27.649,-17.395,-16.418
0.586,0.235,-0.813,-29.053,-18.677,-19.653
0.590,0.210,-0.851,-30.334,-18.066,-21.118
0.626,0.182,-0.893,-30.884,-16.541,-20.020
0.670,0.158,-0.925,-30.396,-15.320,-17.151
0.694,0.117,-0.942,-27.588,-13.672,-13.916
0.675,0.098,-0.927,-24.231,-12.573,-11.658
0.706,0.093,-0.928,-19.104,-17.029,-8.179
0.743,-0.010,-0.944,-13.062,-21.729,-4.333
0.713,-0.012,-0.939,-10.864,-25.879,-5.127
0.690,-0.090,-0.983,-6.775,-28.809,-3.601
0.677,-0.131,-1.020,-5.737,-30.945,-5.615
0.668,-0.130,-1.042,-5.737,-31.006,-5.737
0.686,-0.147,-1.024,-4.761,-30.945,-4.089
0.695,-0.124,-1.000,-3.479,-31.799,-2.197
0.677,-0.135,-0.992,-1.038,-33.997,1.465
0.634,-0.148,-0.995,0.854,-36.316,5.005
0.594,-0.163,-0.986,3.052,-36.865,9.094
0.563,-0.187,-0.982,4.333,-36.316,12.329
0.529,-0.196,-0.973,4.944,-34.119,14.282
0.498,-0.192,-0.957,4.700,-30.212,15.503
0.473,-0.181,-0.945,3.845,-25.940,15.808

1.002,0.738,-1.464,-336.243,84.778,-79.590
1.101,1.083,-1.541,-307.190,111.511,-66.040
1.197,1.274,-1.593,-262.329,129.211,-47.241
1.273,1.269,-1.554,-210.449,130.005,-23.010
1.267,1.070,-1.390,-161.011,112.732,2.808
1.126,0.661,-1.212,-124.634,80.078,27.405
0.949,0.163,-0.996,-111.694,43.213,47.852
0.722,-0.262,-0.757,-126.465,11.169,62.805
0.513,-0.485,-0.614,-160.278,-9.705,72.815
0.384,-0.415,-0.530,-197.937,-19.531,79.285
0.358,-0.225,-0.355,-223.511,-25.208,82.642
0.366,-0.150,-0.086,-230.652,-32.959,84.106
0.363,-0.202,0.199,-224.243,-48.462,82.153
0.285,-0.271,0.530,-211.060,-69.641,78.552
0.271,-0.568,0.919,-198.059,-87.646,74.646
0.232,-0.809,1.515,-197.327,-102.295,63.049
0.227,-1.285,1.998,-203.674,-118.958,54.260
0.291,-1.632,2.381,-222.107,-130.310,44.250
0.321,-1.807,2.621,-246.521,-138.428,29.785
0.329,-1.868,2.759,-264.648,-136.902,6.897
0.282,-1.851,2.704,-274.231,-125.793,-26.794
0.200,-1.796,2.411,-270.935,-101.563,-68.542
0.095,-1.711,1.944,-254.944,-63.721,-111.206
0.012,-1.651,1.351,-229.797,-18.860,-145.325
0.032,-1.566,0.777,-197.021,20.264,-162.231
0.146,-1.378,0.282,-158.508,44.006,-160.278
0.306,-1.144,-0.084,-114.258,50.293,-146.179
0.604,-0.960,-0.142,-64.758,47.424,-131.165
0.958,-0.936,-0.035,-16.174,34.363,-122.070
0.944,-1.077,-0.015,26.794,10.010,-121.826
0.672,-1.175,-0.043,52.246,2.808,-125.122
0.640,-1.092,-0.045,59.448,23.132,-119.690
0.772,-0.910,0.024,63.171,49.683,-100.525
0.905,-0.731,0.138,71.167,61.951,-70.129
0.984,-0.574,0.239,83.435,53.162,-34.912
0.942,-0.500,0.275,101.563,28.442,-0.305
0.815,-0.538,0.276,123.047,-0.977,32.471
0.678,-0.650,0.295,143.372,-25.635,62.012
0.539,-0.791,0.321,158.630,-41.016,85.938
0.423,-0.899,0.328,167.358,-43.884,101.013
0.385,-0.948,0.326,172.913,-35.339,106.995
0.432,-1.003,0.352,179.993,-23.193,106.750
0.522,-1.109,0.405,188.477,-14.893,103.638
0.521,-1.237,0.399,196.289,-16.602,95.459
0.431,-1.281,0.370,198.669,-22.217,81.421
0.335,-1.327,0.363,197.571,-23.743,66.162
0.262,-1.304,0.313,195.740,-22.095,51.636
0.246,-1.237,0.254,194.946,-15.808,40.283
0.212,-1.153,0.175,195.679,-7.324,30.701
0.153,-1.055,0.073,202.026,3.601,23.376
0.193,-0.945,-0.001,214.722,19.531,16.602
0.253,-0.967,-0.039,232.910,39.001,11.963
0.308,-0.880,-0.084,249.329,56.396,3.113
0.293,-0.857,-0.116,266.357,71.228,-4.517
0.309,-0.953,-0.156,286.682,85.632,-8.606
0.338,-0.994,-0.194,301.697,95.093,-16.113
0.366,-0.997,-0.245,312.195,100.342,-22.278
0.358,-0.975,-0.312,318.909,103.271,-24.841
0.369,-1.008,-0.377,322.144,105.347,-22.888
0.433,-1.051,-0.405,320.129,104.675,-21.545
0.471,-1.026,-0.427,313.171,98.145,-20.203
0.495,-1.043,-0.495,303.101,88.928,-13.794
0.499,-1.050,-0.514,288.574,80.444,-5.249
0.514,-1.044,-0.507,269.470,68.237,3.357
0.506,-0.981,-0.533,248.230,49.561,11.169
0.503,-0.906,-0.578,227.356,30.762,20.813
0.491,-0.852,-0.585,206.482,15.320,31.189
0.483,-0.797,-0.586,184.753,0.854,39.429
0.471,-0.736,-0.605,163.208,-12.817,43.640
0.444,-0.678,-0.635,143.188,-25.085,43.518
0.406,-0.594,-0.657,124.756,-33.997,40.222
0.376,-0.510,-0.664,108.582,-38.940,34.973
0.347,-0.468,-0.730,95.276,-40.710,28.503
0.313,-0.429,-0.781,83.557,-35.522,22.766
0.315,-0.347,-0.741,70.923,-23.560,16.724
0.321,-0.265,-0.724,58.899,-12.390,10.864
0.320,-0.260,-0.804,49.255,-3.052,6.042
0.340,-0.225,-0.853,40.100,8.362,2.075
0.397,-0.153,-0.835,31.189,20.996,1.465
0.435,-0.103,-0.813,22.400,30.579,2.930
0.443,-0.069,-0.782,13.611,37.048,3.967
0.432,-0.034,-0.751,3.906,41.016,4.456
0.431,-0.016,-0.785,-5.310,41.992,3.906
0.440,-0.013,-0.844,-12.207,40.710,3.479
0.475,-0.009,-0.874,-16.235,38.940,5.188
0.503,-0.001,-0.871,-19.531,35.889,7.202
0.504,0.001,-0.856,-22.278,30.884,7.446
0.489,-0.011,-0.849,-26.611,25.024,7.324
0.473,-0.035,-0.895,-31.982,19.165,5.493
0.454,-0.057,-0.991,-37.354,14.771,1.831
0.465,-0.032,-1.051,-41.443,14.465,-1.160
0.489,0.019,-1.068,-43.884,16.846,-2.136
0.500,0.036,-1.069,-42.969,20.264,-1.465
0.509,0.036,-1.056,-41.199,24.048,-0.854
0.525,0.046,-1.028,-39.307,26.855,-1.221
0.537,0.063,-1.008,-36.011,27.039,-2.441
0.547,0.076,-1.004,-30.518,25.696,-2.808
0.568,0.076,-0.983,-24.414,23.132,-1.648
0.569,0.079,-0.963,-18.860,19.165,-0.305
0.557,0.066,-0.950,-14.099,15.015,0.916
0.539,0.040,-0.949,-11.414,11.963,1.526
0.530,0.012,-0.949,-9.949,10.132,1.709
0.523,0.002,-0.965,-10.193,9.094,2.136
0.527,0.006,-0.976,-11.108,8.972,3.357
0.525,-0.003,-0.992,-11.414,9.155,5.615
0.519,0.001,-0.996,-11.719,9.766,7.996
0.511,-0.002,-0.987,-10.620,9.888,10.437
0.498,-0.022,-0.984,-8.484,8.911,12.634
0.470,-0.037,-0.993,-6.409,8.423,14.038
0.458,-0.078,-1.011,-4.272,9.705,15.198
0.440,-0.109,-0.991,-3.174,11.841,13.306
0.418,-0.082,-1.003,-1.709,12.207,10.620
0.431,-0.160,-1.004,2.380,13.000,10.193
0.467,-0.180,-1.003,2.563,11.902,5.432
0.457,-0.166,-0.964,2.686,9.644,1.587
0.489,-0.208,-0.992,3.845,3.540,-0.732
0.513,-0.216,-1.010,4.028,-2.380,-3.906
0.513,-0.211,-0.992,4.944,-8.484,-6.042
0.526,-0.195,-0.989,6.775,-17.090,-6.226

0.812,0.758,-1.468,-264.221,105.713,6.042
0.948,1.044,-1.400,-210.693,102.356,10.498
0.943,1.330,-1.256,-153.503,79.590,20.447
0.752,1.478,-1.079,-102.417,40.894,39.795
0.547,1.312,-0.868,-58.105,1.282,66.467
0.348,0.864,-0.685,-33.264,-28.748,95.398
0.158,0.342,-0.526,-37.781,-40.039,118.896
0.081,-0.039,-0.422,-66.223,-33.264,137.573
0.143,-0.371,-0.203,-101.868,-15.808,152.161
0.241,-0.664,0.025,-135.132,-1.038,157.532
0.330,-0.829,0.116,-159.546,1.648,148.682
0.474,-0.847,0.118,-169.067,-4.395,126.160
0.593,-0.697,0.196,-163.269,-14.099,97.534
0.661,-0.644,0.360,-144.897,-25.635,73.242
0.661,-0.695,0.580,-123.840,-35.645,51.270
0.771,-0.814,0.797,-100.647,-39.734,35.034
0.890,-0.980,1.135,-78.979,-41.992,25.635
1.028,-1.238,1.440,-59.875,-46.265,21.790
1.165,-1.494,1.605,-47.668,-52.124,21.240
1.235,-1.715,1.705,-42.664,-53.467,18.066
1.268,-1.942,1.764,-44.861,-49.255,7.019
1.204,-2.124,1.638,-55.176,-40.710,-13.184
0.943,-2.181,1.291,-71.899,-24.780,-42.725
0.571,-2.080,0.902,-92.346,4.700,-75.989
0.249,-1.861,0.507,-111.877,46.326,-103.271
0.126,-1.595,0.206,-124.939,88.074,-117.432
0.214,-1.288,0.011,-129.395,108.154,-117.310
0.415,-0.954,-0.132,-120.605,95.764,-107.300
0.636,-0.675,-0.245,-95.642,58.594,-95.093
0.772,-0.521,-0.282,-60.059,15.015,-86.426
0.770,-0.468,-0.297,-21.545,-19.958,-82.214
0.709,-0.454,-0.257,13.611,-38.574,-78.735
0.619,-0.451,-0.201,40.649,-39.856,-73.120
0.558,-0.479,-0.149,61.768,-28.015,-64.087
0.604,-0.505,-0.063,78.003,-10.925,-50.293
0.707,-0.545,0.056,90.576,3.174,-33.691
0.794,-0.584,0.189,100.220,8.606,-18.982
0.824,-0.641,0.238,106.812,2.136,-8.240
0.808,-0.649,0.239,111.694,-11.841,-1.282
0.734,-0.647,0.175,118.591,-26.001,6.104
0.652,-0.716,0.167,126.709,-34.912,9.399
0.575,-0.657,0.077,132.324,-48.157,5.859
0.502,-0.678,0.074,144.775,-51.575,7.446
0.493,-0.727,-0.003,160.767,-55.908,7.385
0.474,-0.784,-0.040,179.016,-57.617,4.150
0.399,-0.849,-0.103,197.510,-56.458,0.122
0.334,-0.985,-0.125,214.783,-49.927,-2.014
0.311,-1.106,-0.173,225.098,-40.039,-3.174
0.273,-1.194,-0.184,227.173,-20.630,-5.066
0.238,-1.127,-0.187,222.168,2.441,-11.719
0.260,-1.034,-0.177,217.590,27.405,-15.869
0.319,-0.961,-0.192,214.294,47.241,-17.334
0.362,-0.948,-0.215,211.304,59.937,-18.921
0.357,-0.936,-0.268,206.299,65.491,-22.583
0.333,-0.837,-0.323,197.144,66.223,-26.367
0.343,-0.705,-0.403,185.791,64.697,-25.757
0.358,-0.656,-0.498,176.147,61.279,-21.973
0.384,-0.696,-0.575,166.931,57.678,-19.226
0.435,-0.792,-0.614,158.264,54.993,-19.409
0.492,-0.854,-0.635,149.658,50.415,-25.513
0.531,-0.854,-0.677,141.907,43.396,-34.424
0.547,-0.834,-0.719,136.353,36.377,-42.786
0.559,-0.801,-0.725,132.568,31.067,-49.622
0.588,-0.792,-0.730,131.897,25.818,-52.734
0.584,-0.727,-0.723,133.240,21.545,-52.002
0.593,-0.674,-0.738,136.780,17.395,-45.410
0.591,-0.541,-0.720,137.024,12.268,-37.109
0.591,-0.487,-0.692,138.184,5.676,-24.658
0.582,-0.519,-0.720,140.442,-2.930,-10.986
0.536,-0.599,-0.768,142.029,-11.047,0.916
0.505,-0.652,-0.814,141.846,-16.174,10.986
0.475,-0.642,-0.846,138.794,-19.165,16.602
0.429,-0.643,-0.873,135.315,-18.616,18.555
0.399,-0.662,-0.903,130.981,-14.221,17.883
0.391,-0.664,-0.928,124.695,-6.836,14.221
0.383,-0.649,-1.006,117.004,2.502,8.606
0.394,-0.608,-1.082,110.474,14.160,3.296
0.460,-0.494,-1.054,105.469,26.428,1.526
0.537,-0.369,-1.006,103.027,34.424,4.211
0.579,-0.325,-1.020,103.882,36.072,9.766
0.601,-0.279,-0.998,104.248,35.156,16.663
0.606,-0.207,-0.932,103.638,32.288,24.841
0.593,-0.157,-0.885,102.905,25.879,32.959
0.560,-0.131,-0.862,101.379,17.639,39.856
0.515,-0.098,-0.845,97.839,10.864,45.776
0.453,-0.063,-0.835,93.872,6.409,49.500
0.381,-0.037,-0.826,88.806,6.592,51.453
0.316,-0.004,-0.828,81.970,11.658,51.575
0.272,0.045,-0.813,73.608,20.447,50.781
0.250,0.120,-0.780,64.636,31.433,50.049
0.232,0.196,-0.732,54.382,42.297,48.950
0.229,0.263,-0.681,42.847,51.819,47.668
0.235,0.320,-0.655,30.151,58.289,46.021
0.242,0.361,-0.653,16.052,61.890,43.884
0.283,0.405,-0.661,2.380,63.049,41.138
0.335,0.450,-0.673,-10.315,59.753,39.063
0.388,0.476,-0.688,-21.667,51.758,37.781
0.428,0.466,-0.717,-30.212,39.368,36.499
0.444,0.433,-0.771,-38.269,24.597,34.485
0.448,0.404,-0.810,-46.753,9.460,31.799
0.456,0.405,-0.837,-54.688,-4.883,28.442
0.466,0.410,-0.860,-60.669,-19.958,24.353
0.453,0.398,-0.910,-64.636,-34.546,19.226
0.423,0.372,-0.980,-66.711,-46.387,12.695
0.393,0.343,-1.052,-66.895,-52.246,5.981
0.379,0.323,-1.116,-66.162,-51.819,0.427
0.382,0.310,-1.158,-63.049,-46.387,-2.625
0.394,0.296,-1.169,-58.167,-37.598,-3.418
0.412,0.266,-1.171,-51.636,-27.405,-3.540
0.428,0.230,-1.165,-43.274,-16.724,-3.235
0.443,0.195,-1.138,-33.875,-6.409,-2.319
0.463,0.128,-1.089,-24.109,1.343,-0.427
0.485,0.070,-1.052,-15.869,5.127,0.183
0.499,0.025,-1.050,-10.986,5.676,0.000
0.490,-0.024,-1.082,-7.751,5.615,-0.854
0.473,-0.069,-1.108,-5.981,6.714,-2.441
0.458,-0.093,-1.108,-5.737,9.216,-3.479
0.454,-0.089,-1.090,-6.531,12.085,-4.517
0.456,-0.079,-1.068,-6.958,13.489,-5.310

0.537,0.978,-1.540,-400.330,7.141,-25.818
0.504,1.151,-1.571,-353.699,6.653,-5.676
0.453,1.210,-1.486,-297.485,0.427,15.564
0.434,1.095,-1.217,-230.652,-5.798,36.560
0.339,0.644,-0.784,-165.283,-7.812,58.289
0.173,-0.037,-0.439,-118.225,0.916,76.843
0.221,-0.562,-0.146,-103.516,19.714,87.952
0.449,-0.848,0.038,-113.525,33.997,93.811
0.650,-0.933,0.149,-130.554,33.569,95.154
0.800,-0.901,0.269,-144.653,21.362,97.534
0.798,-0.878,0.449,-152.222,2.747,102.112
0.756,-0.942,0.748,-151.550,-17.883,103.516
0.680,-1.100,1.036,-146.790,-39.307,100.037
0.593,-1.288,1.221,-138.794,-55.847,90.820
0.533,-1.521,1.235,-128.235,-60.242,78.369
0.501,-1.606,1.283,-119.019,-48.706,56.274
0.536,-1.691,1.269,-104.675,-29.602,25.574
0.593,-1.789,1.247,-85.266,-5.188,-11.719
0.639,-1.976,1.204,-67.078,21.973,-52.612
0.621,-2.193,1.142,-58.594,55.115,-88.745
0.647,-2.286,1.018,-66.284,86.914,-113.525
0.715,-2.168,0.819,-85.876,105.164,-127.441
0.737,-1.877,0.565,-109.070,105.591,-131.714
0.677,-1.476,0.245,-125.793,92.285,-125.000
0.648,-1.070,-0.005,-128.601,69.763,-110.413
0.689,-0.726,-0.173,-115.906,41.931,-93.689
0.721,-0.495,-0.273,-88.745,15.381,-77.087
0.688,-0.358,-0.323,-52.795,-5.798,-61.646
0.641,-0.290,-0.365,-14.221,-18.494,-47.546
0.653,-0.337,-0.294,22.156,-21.301,-33.630
0.696,-0.337,-0.254,53.162,-21.667,-22.644
0.700,-0.344,-0.130,80.872,-20.508,-10.071
0.761,-0.517,-0.059,107.483,-24.658,3.662
0.759,-0.656,0.048,123.169,-30.090,14.038
0.749,-0.773,0.135,129.517,-34.424,24.048
0.737,-0.813,0.205,128.418,-38.452,33.020
0.693,-0.797,0.206,124.573,-43.884,40.527
0.650,-0.745,0.190,121.033,-49.133,44.189
0.629,-0.699,0.116,121.277,-56.519,44.922
0.593,-0.695,0.034,126.526,-63.477,42.419
0.562,-0.680,-0.039,137.207,-68.970,36.804
0.449,-0.717,-0.130,155.334,-71.228,31.860
0.459,-0.889,-0.239,178.101,-63.721,26.794
0.420,-1.085,-0.105,199.524,-47.729,17.090
0.344,-1.206,-0.135,217.712,-46.997,6.287
0.334,-1.422,-0.159,231.689,-43.457,4.211
0.268,-1.556,-0.132,233.582,-30.212,1.526
0.247,-1.653,-0.071,224.365,-15.259,-3.357
0.224,-1.630,-0.031,208.679,-1.038,-10.559
0.185,-1.512,-0.103,190.979,12.573,-19.714
0.197,-1.412,-0.168,174.805,32.288,-29.053
0.221,-1.278,-0.206,161.011,53.101,-42.419
0.273,-1.093,-0.306,152.893,66.528,-56.091
0.327,-0.934,-0.394,153.137,79.102,-65.186
0.376,-0.845,-0.498,159.546,89.722,-71.716
0.445,-0.806,-0.524,170.837,96.375,-76.782
0.483,-0.736,-0.538,183.350,93.018,-81.604
0.509,-0.730,-0.604,198.059,83.435,-83.252
0.512,-0.804,-0.648,211.243,75.806,-83.069
0.528,-0.847,-0.634,217.041,68.787,-82.092
0.540,-0.839,-0.626,216.858,57.983,-79.651
0.548,-0.826,-0.640,214.905,44.800,-74.951
0.564,-0.787,-0.651,209.839,31.250,-67.078
0.572,-0.727,-0.676,202.026,16.174,-57.190
0.572,-0.614,-0.697,193.848,1.465,-45.471
0.562,-0.527,-0.702,188.171,-12.573,-31.494
0.547,-0.500,-0.703,185.120,-25.696,-16.785
0.523,-0.488,-0.690,182.739,-38.025,-3.235
0.513,-0.528,-0.689,178.528,-49.927,8.545
0.501,-0.601,-0.722,171.021,-62.012,14.465
0.421,-0.573,-0.792,158.264,-69.153,14.343
0.382,-0.639,-0.867,146.423,-66.711,13.611
0.291,-0.467,-0.859,132.263,-60.120,7.019
0.292,-0.426,-0.916,124.756,-50.171,5.371
0.311,-0.342,-0.881,116.516,-31.982,2.075
0.351,-0.203,-0.815,108.337,-15.747,-0.122
0.395,-0.124,-0.790,104.675,-5.432,1.099
0.437,-0.101,-0.773,101.501,2.075,2.319
0.438,-0.087,-0.764,96.802,6.592,4.395
0.440,-0.043,-0.744,90.942,10.132,7.812
0.447,0.028,-0.738,84.106,12.146,12.329
0.446,0.053,-0.749,79.895,12.390,18.738
0.440,0.025,-0.759,74.707,13.489,23.743
0.429,0.021,-0.778,65.796,14.832,24.841
0.420,0.067,-0.784,56.091,15.808,24.170
0.436,0.117,-0.784,48.157,16.296,23.132
0.457,0.159,-0.770,41.504,15.991,21.606
0.456,0.190,-0.776,35.645,14.771,20.386
0.449,0.213,-0.780,29.663,13.184,19.775
0.463,0.245,-0.783,24.231,10.620,19.470
0.476,0.261,-0.796,19.775,6.897,19.836
0.486,0.274,-0.821,15.747,2.808,19.897
0.487,0.289,-0.831,11.597,-0.793,20.386
0.466,0.295,-0.861,8.179,-4.333,21.301
0.447,0.293,-0.894,5.310,-5.981,22.522
0.437,0.298,-0.912,2.136,-5.493,24.048
0.429,0.320,-0.909,-0.488,-3.662,25.513
0.426,0.320,-0.909,-1.953,-1.221,27.527
0.420,0.299,-0.918,-3.906,1.404,28.870
0.409,0.290,-0.928,-6.104,4.761,28.809
0.409,0.282,-0.920,-7.568,8.667,28.564
0.412,0.276,-0.899,-7.996,12.390,27.954
0.414,0.261,-0.893,-6.775,14.771,27.222
0.417,0.230,-0.900,-5.615,16.235,26.672
0.414,0.197,-0.924,-5.127,17.456,25.635
0.413,0.156,-0.954,-5.310,19.714,24.353
0.423,0.124,-0.988,-6.592,22.766,22.461
0.444,0.114,-1.005,-9.155,26.062,20.386
0.470,0.118,-1.018,-11.292,28.015,19.592
0.495,0.112,-1.038,-12.939,27.710,21.057
0.505,0.087,-1.047,-14.587,26.184,23.315
0.487,0.085,-1.040,-17.029,24.048,24.658
0.455,0.062,-1.041,-19.226,21.851,26.123
