aX,aY,aZ,gX,gY,gZ
0.536,1.241,-1.012,-102.417,514.160,-196.777
0.624,1.287,-1.062,-124.939,556.702,-221.313
0.750,1.392,-1.041,-146.606,582.031,-243.652
0.880,1.383,-0.955,-165.649,585.876,-264.648
0.957,1.256,-0.820,-181.152,570.923,-285.156
1.269,1.085,-0.650,-194.336,541.687,-298.218
1.563,0.987,-0.529,-207.642,482.056,-288.574
1.455,0.951,-0.505,-208.801,405.518,-264.526
0.984,0.896,-0.491,-196.350,348.083,-243.896
0.645,0.751,-0.537,-172.485,330.627,-237.610
0.775,0.411,-0.583,-146.790,342.712,-244.690
-0.069,1.299,1.991,-135.376,368.835,-259.705
-3.782,2.526,3.628,-89.355,617.493,-327.820
0.324,0.066,1.717,-133.850,802.795,-412.048
3.235,-1.811,-0.679,-155.518,571.167,-382.446
1.796,-2.123,-1.839,-193.848,452.820,-347.046
0.986,-0.759,-1.034,-233.765,399.658,-352.295
1.050,-0.139,-0.050,-185.425,334.900,-332.703
0.945,-1.459,0.013,-42.847,267.151,-277.893
0.867,-3.134,0.195,50.293,217.834,-206.726
0.922,-4.000,0.278,87.891,147.583,-127.991
1.114,-4.000,0.126,75.928,60.181,-66.101
1.486,-4.000,-0.210,22.827,-16.846,-33.752
1.988,-3.470,-0.769,-23.010,-75.623,-39.063
2.270,-2.847,-1.103,-46.021,-103.088,-65.857
2.057,-2.108,-1.224,-48.950,-104.248,-84.839
1.488,-1.675,-0.770,-33.691,-78.796,-71.411
0.865,-1.082,-0.028,-6.104,-47.729,-29.907
0.502,-0.835,0.054,43.152,-35.889,24.841
0.595,-1.154,-0.065,83.130,-41.199,83.801
0.418,-1.180,-0.167,95.032,-46.082,125.427
0.046,-1.006,-0.180,97.473,-42.969,151.428
-0.021,-1.275,-0.258,89.355,-34.424,157.471
-0.065,-1.259,-0.129,56.030,-22.766,123.962
-0.125,-0.873,-0.027,17.639,-23.621,78.857
-0.127,-0.770,-0.165,-3.052,-34.363,46.387
-0.161,-0.736,-0.281,-21.240,-37.598,7.568
-0.121,-0.652,-0.313,-33.386,-28.564,-29.968
0.071,-0.628,-0.397,-36.987,-14.771,-58.105
0.345,-0.592,-0.390,-39.673,8.362,-74.890
0.462,-0.475,-0.305,-43.152,29.175,-79.529
0.583,-0.503,-0.409,-42.969,30.762,-74.951
0.631,-0.547,-0.448,-42.542,35.461,-64.819
0.644,-0.599,-0.462,-41.199,40.100,-48.523
0.698,-0.716,-0.535,-40.344,39.490,-27.954
0.673,-0.755,-0.603,-41.260,37.292,-10.437
0.568,-0.653,-0.616,-41.016,34.302,1.343
0.503,-0.550,-0.587,-33.875,29.907,11.414
0.443,-0.597,-0.641,-19.287,24.353,17.822
0.482,-0.791,-0.575,-7.629,25.452,12.512
0.421,-0.620,-0.429,-6.836,20.996,-5.493
0.367,-0.592,-0.442,3.052,9.827,-13.550
0.380,-0.723,-0.474,13.611,5.127,-18.677
0.442,-0.820,-0.459,18.127,6.470,-25.330
0.490,-0.838,-0.447,16.602,7.690,-32.471
0.502,-0.848,-0.468,11.597,8.301,-36.011
0.547,-0.865,-0.481,5.493,10.254,-36.316
0.581,-0.858,-0.510,-1.099,12.390,-34.790
0.592,-0.834,-0.557,-6.042,13.428,-31.067
0.610,-0.798,-0.585,-9.705,13.672,-26.794
0.630,-0.784,-0.620,-10.803,11.658,-22.461
0.588,-0.770,-0.684,-8.606,6.531,-19.104
0.519,-0.748,-0.727,-3.845,5.676,-16.785
0.525,-0.704,-0.724,2.686,11.230,-15.625
0.564,-0.697,-0.717,10.071,17.273,-15.320
0.552,-0.709,-0.708,18.250,21.851,-16.602
0.552,-0.730,-0.686,26.062,25.818,-17.578
0.586,-0.751,-0.651,33.447,27.771,-18.066
0.635,-0.769,-0.610,39.429,24.475,-17.517
0.668,-0.785,-0.595,43.274,14.771,-16.418
0.630,-0.788,-0.625,45.593,1.892,-15.442
0.586,-0.779,-0.645,47.485,-6.226,-14.160
0.571,-0.763,-0.655,50.598,-9.399,-12.634
0.549,-0.738,-0.652,54.565,-9.277,-11.108
0.517,-0.709,-0.635,59.448,-6.042,-8.972
0.485,-0.687,-0.611,64.941,-0.427,-5.249
0.500,-0.704,-0.582,69.336,6.287,-0.488
0.554,-0.712,-0.559,70.313,10.620,4.883
0.567,-0.714,-0.553,69.946,10.254,9.094
0.532,-0.722,-0.554,68.176,7.507,11.536
0.526,-0.745,-0.569,65.186,4.639,12.207
0.507,-0.771,-0.584,61.462,2.014,11.658
0.481,-0.777,-0.567,55.847,1.343,9.766
0.470,-0.761,-0.547,49.377,2.014,7.507
0.466,-0.747,-0.555,44.189,2.869,5.371
0.466,-0.715,-0.550,40.161,3.357,3.784
0.471,-0.679,-0.542,37.537,2.686,3.784
0.474,-0.676,-0.553,36.072,0.305,4.578
0.490,-0.694,-0.567,35.156,-2.441,5.859
0.500,-0.713,-0.574,33.630,-6.470,6.226
0.490,-0.709,-0.610,31.555,-11.292,5.371
0.474,-0.658,-0.636,30.823,-14.832,3.906
0.493,-0.592,-0.644,33.264,-16.968,3.052
0.501,-0.530,-0.654,40.283,-20.630,3.174
0.479,-0.528,-0.681,49.683,-24.475,4.822
0.446,-0.581,-0.704,59.326,-25.757,7.935
0.454,-0.637,-0.694,67.261,-23.254,12.085
0.504,-0.693,-0.683,72.632,-21.484,16.541
0.557,-0.749,-0.676,75.928,-22.949,20.203
0.596,-0.747,-0.665,77.026,-28.076,22.583
0.631,-0.668,-0.645,77.881,-36.804,23.743
0.667,-0.583,-0.643,80.505,-48.950,25.085
0.694,-0.565,-0.651,85.327,-63.477,27.710
0.680,-0.579,-0.662,89.661,-77.637,31.311
0.630,-0.610,-0.695,92.712,-88.684,35.339
0.588,-0.666,-0.734,94.116,-92.834,40.283
0.578,-0.713,-0.747,91.797,-90.393,45.532
0.590,-0.730,-0.736,87.158,-86.060,49.805
0.622,-0.706,-0.720,81.726,-82.214,52.795
0.636,-0.646,-0.705,76.965,-80.139,54.565
0.632,-0.577,-0.692,74.524,-79.529,54.749
0.655,-0.497,-0.668,75.928,-80.139,54.565
0.680,-0.416,-0.646,79.834,-84.290,55.359
0.704,-0.391,-0.635,86.853,-92.163,55.908
0.733,-0.386,-0.632,94.299,-101.807,56.702
0.742,-0.380,-0.642,100.708,-112.915,58.350
0.729,-0.383,-0.650,106.628,-123.291,60.974
0.712,-0.377,-0.661,112.183,-130.005,63.660
0.703,-0.341,-0.680,117.737,-133.789,65.979

0.813,1.444,-0.489,-30.762,17.151,19.897
0.656,1.538,-0.543,-72.144,19.348,28.015
0.453,1.607,-0.607,-127.686,28.503,36.987
0.186,1.716,-0.686,-192.566,46.509,44.983
-0.094,1.800,-0.747,-253.540,80.017,50.232
-0.270,1.868,-0.691,-304.993,133.423,50.171
-0.196,1.830,-0.525,-347.412,194.580,40.955
0.074,1.801,-0.331,-386.536,240.845,22.949
0.236,1.765,-0.228,-421.570,264.160,-1.343
0.215,1.579,-0.297,-444.458,273.010,-35.217
0.232,1.319,-0.469,-454.407,277.161,-83.618
0.339,1.115,-0.582,-452.087,280.029,-140.869
0.363,0.984,-0.701,-438.354,284.241,-200.134
1.284,3.061,3.870,-409.729,297.485,-256.531
2.163,4.000,4.000,-287.292,313.660,-253.967
-0.485,-1.529,-1.023,-124.146,195.862,-377.380
-1.221,-4.000,-2.239,-169.922,338.257,-383.118
-0.080,-2.371,-0.323,-386.597,440.002,-266.663
0.980,-0.606,0.262,-401.550,433.777,-263.794
1.224,-1.579,0.193,-279.907,411.987,-258.301
0.746,-2.536,-0.229,-212.402,322.998,-200.134
0.324,-3.598,-0.370,-140.686,218.018,-133.545
0.304,-4.000,-0.589,-52.734,130.493,-130.798
0.521,-4.000,-0.855,4.944,81.421,-153.564
1.076,-4.000,-0.925,35.217,66.101,-165.955
1.859,-3.997,-1.025,52.307,53.528,-170.715
2.496,-3.693,-1.221,46.082,34.058,-149.231
2.630,-2.963,-1.105,6.775,7.568,-90.881
1.740,-1.809,-0.685,-32.593,-42.480,-18.860
0.737,-0.936,-0.492,-13.977,-93.323,46.448
0.450,-0.742,-0.550,28.015,-126.282,113.647
0.276,-0.866,-0.591,65.735,-124.878,176.453
0.040,-1.130,-0.542,78.552,-99.731,203.613
-0.222,-0.893,-0.205,54.077,-66.406,179.810
-0.412,-0.376,0.013,31.677,-37.170,144.104
-0.235,-0.229,0.004,30.457,-15.320,110.474
-0.009,-0.377,-0.012,27.222,3.174,68.115
-0.116,-0.549,-0.064,12.268,7.690,11.536
-0.197,-0.660,-0.145,-4.456,6.165,-40.039
0.006,-0.617,-0.240,-18.677,8.667,-77.332
0.308,-0.530,-0.294,-27.405,12.451,-101.440
0.489,-0.466,-0.386,-29.907,17.029,-114.563
0.536,-0.433,-0.475,-28.992,24.719,-116.516
0.540,-0.418,-0.525,-24.292,34.607,-104.858
0.577,-0.493,-0.577,-16.418,41.809,-81.848
0.639,-0.610,-0.651,-9.644,45.776,-54.199
0.649,-0.675,-0.680,-5.981,49.438,-26.184
0.693,-0.737,-0.709,-5.188,48.523,0.671
0.650,-0.724,-0.701,-5.920,41.504,21.851
0.564,-0.663,-0.643,-6.165,29.846,35.583
0.483,-0.630,-0.584,-4.578,15.381,42.480
0.399,-0.614,-0.514,-1.282,2.380,42.664
0.291,-0.595,-0.476,2.808,-6.226,36.743
0.227,-0.615,-0.428,7.385,-8.301,27.039
0.237,-0.666,-0.420,11.963,-7.507,15.442
0.279,-0.717,-0.422,15.015,-5.859,4.517
0.307,-0.745,-0.454,16.602,-5.615,-4.822
0.327,-0.812,-0.531,16.907,-5.127,-13.367
0.338,-0.862,-0.582,14.038,-1.831,-22.156
0.402,-0.875,-0.653,8.423,1.465,-28.198
0.472,-0.894,-0.741,1.160,7.935,-30.090
0.426,-0.786,-0.714,-7.996,18.188,-29.724
0.465,-0.738,-0.766,-12.573,22.339,-23.376
0.503,-0.708,-0.759,-14.465,24.231,-17.273
0.501,-0.601,-0.734,-14.526,20.813,-12.329
0.527,-0.563,-0.752,-8.911,10.803,-6.348
0.534,-0.579,-0.774,-1.282,0.732,-2.686
0.478,-0.575,-0.789,5.615,-7.690,-1.099
0.444,-0.574,-0.804,11.719,-11.841,-0.610
0.428,-0.583,-0.788,16.174,-11.047,-2.380
0.398,-0.591,-0.731,18.738,-9.216,-5.615
0.344,-0.511,-0.746,22.888,-7.996,-7.019
0.568,-0.735,-0.767,28.320,-3.235,-6.348
0.459,-0.660,-0.840,25.818,-2.869,-13.062
0.500,-0.667,-0.722,27.283,6.470,-11.414
0.430,-0.601,-0.743,28.503,4.761,-10.071
0.508,-0.794,-0.751,32.043,1.404,-4.822
0.568,-0.785,-0.749,26.489,1.343,-7.812
0.498,-0.686,-0.704,21.912,0.305,-9.583
0.556,-0.727,-0.743,23.315,-4.089,-6.409
0.564,-0.790,-0.805,23.132,-9.460,-6.226
0.485,-0.715,-0.730,21.240,-10.315,-8.484
0.464,-0.665,-0.769,27.527,-15.747,-6.714
0.464,-0.636,-0.756,37.781,-19.226,-3.052
0.500,-0.678,-0.777,49.500,-22.583,1.770
0.560,-0.748,-0.819,57.312,-26.550,2.747
0.499,-0.699,-0.734,61.279,-30.823,1.526
0.510,-0.757,-0.850,67.749,-42.542,2.136
0.494,-0.726,-0.874,71.106,-44.312,-0.366
0.449,-0.702,-0.897,76.660,-40.771,0.122
0.446,-0.726,-0.874,85.205,-34.729,1.953
0.492,-0.805,-0.892,90.515,-29.785,1.648
0.491,-0.758,-0.822,91.248,-24.353,-0.916
0.512,-0.782,-0.819,92.651,-23.315,0.671
0.566,-0.790,-0.835,94.238,-24.536,2.197
0.564,-0.745,-0.753,94.238,-28.381,3.418
0.586,-0.806,-0.875,96.436,-43.274,3.967
0.560,-0.694,-0.835,96.802,-47.546,1.404
0.515,-0.570,-0.739,102.600,-48.279,4.333
0.533,-0.559,-0.681,114.685,-53.833,12.634
0.600,-0.730,-0.747,124.878,-61.951,21.362
0.631,-0.886,-0.717,121.948,-63.232,24.719
0.630,-0.904,-0.602,107.178,-61.768,30.701
0.674,-0.852,-0.615,90.698,-63.843,49.377
0.697,-0.715,-0.771,79.285,-72.998,72.327
0.676,-0.496,-0.867,76.782,-84.534,88.684
0.716,-0.340,-0.878,84.778,-96.375,98.633
0.757,-0.303,-0.855,99.487,-108.398,103.455
0.764,-0.274,-0.815,113.525,-122.925,100.037
0.720,-0.254,-0.784,126.099,-140.503,92.590
0.622,-0.300,-0.814,136.658,-156.189,84.106
0.513,-0.358,-0.832,141.418,-163.391,73.181
0.476,-0.441,-0.852,140.076,-160.461,61.890
0.498,-0.447,-0.859,133.606,-148.499,52.673
0.540,-0.323,-0.859,125.244,-133.362,49.194
0.624,-0.204,-0.826,120.117,-121.521,51.086
0.711,-0.138,-0.804,119.202,-115.479,57.251
0.757,-0.076,-0.758,120.483,-116.272,63.049
0.794,-0.085,-0.714,121.399,-120.911,67.810

1.260,1.280,0.733,-140.564,430.542,-415.222
2.299,-0.975,-0.608,17.883,406.677,-449.951
1.113,-2.442,-0.146,1.892,300.781,-289.551
-0.275,-2.860,0.327,0.549,256.897,-178.406
0.071,-3.269,0.570,9.094,260.193,-91.797
1.333,-3.961,0.620,18.738,233.643,23.743
1.937,-4.000,0.471,7.996,129.456,123.718
1.786,-4.000,0.058,-21.790,-4.089,172.241
1.434,-4.000,-0.580,-79.224,-113.831,170.593
1.050,-4.000,-1.210,-152.344,-175.720,144.897
0.605,-3.090,-1.571,-209.656,-180.115,118.896
0.037,-2.185,-1.681,-230.469,-136.902,102.356
-0.126,-1.637,-1.511,-221.252,-68.420,88.379
-0.076,-0.793,-0.879,-208.923,-14.587,75.317
-0.146,0.514,-0.110,-161.804,12.878,65.918
0.058,0.495,-0.170,-53.162,3.601,58.838
0.240,-0.204,-0.562,39.612,-44.128,57.678
0.361,-1.123,-1.057,91.370,-60.120,52.368
0.048,-1.194,-0.901,89.417,-33.081,7.751
0.077,-0.775,-0.627,65.918,-8.911,-31.128
0.229,-0.583,-0.365,58.899,-3.540,-39.307
0.394,-0.803,-0.476,57.861,-22.644,-39.185
0.365,-0.816,-0.545,42.908,-36.438,-46.448
0.334,-0.649,-0.465,24.231,-29.724,-52.002
0.370,-0.410,-0.391,18.311,-19.653,-51.758
0.474,-0.403,-0.421,26.123,-10.071,-43.091
0.528,-0.454,-0.416,34.729,2.563,-33.997
0.531,-0.470,-0.365,39.551,13.123,-23.804
0.578,-0.546,-0.358,44.922,14.832,-11.169
0.583,-0.626,-0.414,47.791,9.094,1.709
0.517,-0.805,-0.493,46.204,1.770,15.564
0.459,-0.882,-0.544,36.987,-2.075,23.315
0.390,-0.809,-0.501,27.039,-2.991,27.344
0.344,-0.801,-0.485,20.996,-6.409,31.189
0.312,-0.854,-0.484,16.296,-11.536,30.701
0.244,-0.836,-0.443,8.301,-15.564,24.109
0.191,-0.784,-0.437,0.549,-16.296,16.541
0.172,-0.726,-0.408,-4.761,-11.841,8.667
0.200,-0.714,-0.391,-6.958,-6.775,1.709
0.226,-0.741,-0.413,-6.714,-4.456,-4.211
0.263,-0.794,-0.462,-7.629,-3.296,-10.071
0.293,-0.832,-0.542,-10.803,-1.831,-15.381
0.307,-0.831,-0.589,-16.174,1.465,-19.104
0.319,-0.786,-0.620,-22.095,3.662,-20.874
0.377,-0.762,-0.676,-24.658,4.089,-20.508
0.437,-0.751,-0.728,-25.940,5.127,-20.020
0.455,-0.700,-0.736,-25.330,6.470,-20.142
0.469,-0.649,-0.744,-22.095,5.920,-19.104
0.492,-0.647,-0.760,-15.442,2.319,-17.090
0.507,-0.677,-0.776,-8.118,-1.709,-15.320
0.512,-0.711,-0.796,-0.977,-5.188,-14.282
0.487,-0.682,-0.793,5.127,-7.507,-14.526
0.579,-0.732,-0.795,13.062,-7.751,-14.282
0.466,-0.668,-0.746,20.386,-8.240,-15.503
0.480,-0.623,-0.722,28.809,-8.789,-13.123
0.519,-0.794,-0.749,39.185,-9.094,-7.690
0.482,-0.680,-0.696,43.152,-8.423,-7.080
0.501,-0.682,-0.668,48.767,-4.150,-2.502
0.484,-0.772,-0.655,53.894,-4.700,2.258
0.581,-0.936,-0.712,53.894,-9.583,2.808
0.586,-0.787,-0.633,44.617,-11.902,-2.197
0.588,-0.803,-0.667,42.603,-17.639,0.000
0.539,-0.706,-0.622,42.480,-27.832,3.357
0.567,-0.787,-0.775,46.753,-41.809,10.193
0.467,-0.759,-0.731,47.913,-41.443,13.428
0.378,-0.679,-0.647,49.744,-34.546,19.409
0.475,-1.025,-0.905,53.955,-32.959,22.278
0.370,-0.816,-0.738,42.664,-13.489,14.526
0.315,-0.691,-0.664,40.283,0.122,18.127
0.389,-0.708,-0.755,50.232,6.409,23.987
0.508,-0.876,-0.849,56.030,11.780,25.940
0.502,-0.814,-0.758,48.645,15.015,17.334
0.487,-0.709,-0.725,44.983,6.165,10.864
0.558,-0.720,-0.772,49.622,-6.348,9.827
0.609,-0.741,-0.796,53.162,-19.775,8.667
0.579,-0.684,-0.788,57.556,-33.936,7.385
0.536,-0.624,-0.795,65.796,-47.241,8.240
0.518,-0.646,-0.809,76.843,-55.725,10.681
0.504,-0.671,-0.814,87.769,-59.143,13.123
0.500,-0.647,-0.811,97.107,-58.228,15.015
0.508,-0.634,-0.819,106.201,-53.772,17.761
0.515,-0.624,-0.792,114.868,-46.753,21.423
0.524,-0.636,-0.770,121.826,-41.260,25.513
0.540,-0.691,-0.770,125.916,-37.354,29.236
0.556,-0.717,-0.757,125.610,-34.607,32.776
0.573,-0.691,-0.734,121.643,-36.743,36.621
0.592,-0.679,-0.726,116.333,-44.250,40.283
0.583,-0.685,-0.747,111.145,-55.603,42.603
0.553,-0.650,-0.775,106.445,-66.650,43.518
0.548,-0.628,-0.820,102.966,-75.500,42.419
0.545,-0.607,-0.882,100.220,-81.055,38.208
0.514,-0.576,-0.918,100.342,-81.238,33.081
0.502,-0.530,-0.921,104.431,-74.890,29.785
0.524,-0.463,-0.885,110.901,-65.308,28.259
0.527,-0.383,-0.825,117.737,-55.664,28.992
0.527,-0.339,-0.775,124.756,-47.180,30.029
0.543,-0.292,-0.738,129.456,-40.283,32.043
0.559,-0.232,-0.705,130.554,-37.415,35.095
0.576,-0.210,-0.693,129.395,-37.964,38.757
0.585,-0.204,-0.696,127.563,-41.931,43.030
0.583,-0.193,-0.702,125.427,-49.194,46.448
0.589,-0.162,-0.703,123.840,-56.580,47.241
0.593,-0.131,-0.710,125.000,-62.866,46.021
0.594,-0.133,-0.714,129.517,-68.359,42.603
0.583,-0.107,-0.712,135.071,-72.205,38.391
0.570,-0.072,-0.706,140.442,-73.853,34.607
0.568,-0.099,-0.711,144.043,-72.998,31.433
0.574,-0.118,-0.715,143.677,-68.665,30.029
0.611,-0.119,-0.686,138.062,-62.134,32.043
0.659,-0.122,-0.659,128.418,-57.739,37.903
0.692,-0.083,-0.675,116.638,-57.556,46.387
0.731,-0.035,-0.649,106.506,-61.829,55.420
0.775,-0.007,-0.608,98.511,-69.519,63.721
0.774,0.013,-0.595,92.285,-81.360,68.848
0.737,0.047,-0.606,87.830,-93.628,68.848
0.691,0.082,-0.626,87.341,-103.821,65.735
0.657,0.050,-0.620,90.088,-108.704,60.608
0.627,0.055,-0.597,91.125,-109.070,53.833
0.618,0.044,-0.588,90.637,-106.812,46.753

0.509,1.229,-0.842,-113.953,45.166,-17.090
0.443,1.203,-0.887,-145.996,68.848,-13.672
0.360,1.253,-0.878,-185.669,93.140,-11.536
0.318,1.320,-0.801,-226.257,115.540,-10.010
0.302,1.357,-0.699,-262.146,131.592,-9.216
0.303,1.308,-0.583,-292.236,139.404,-10.864
0.316,1.286,-0.511,-317.139,144.165,-16.968
0.285,1.402,-0.472,-332.275,151.978,-25.208
0.219,1.563,-0.411,-332.092,164.001,-35.828
0.185,1.669,-0.356,-315.186,179.932,-51.941
0.218,1.680,-0.353,-288.879,197.083,-70.740
0.244,1.567,-0.399,-264.465,211.304,-89.539
0.265,1.345,-0.451,-247.498,225.098,-112.671
0.326,1.039,-0.467,-236.877,238.708,-136.658
0.468,0.731,-0.420,-233.154,250.366,-153.198
0.568,0.799,0.030,-233.704,251.343,-161.438
-0.498,4.000,3.936,-213.806,281.616,-181.519
0.187,2.388,1.900,-74.707,413.513,-278.381
2.043,-2.052,-0.431,-2.502,336.670,-288.696
1.103,-4.000,-1.048,-104.675,265.442,-165.527
-0.013,-2.477,-0.861,-248.535,267.212,-183.411
0.238,-0.638,-0.364,-290.283,289.917,-223.083
1.009,-1.097,-0.216,-197.876,319.641,-184.692
1.486,-2.307,-0.189,-101.746,287.231,-134.277
1.549,-3.303,-0.271,-37.109,203.979,-110.413
1.502,-3.861,-0.551,-3.357,115.112,-101.074
1.544,-3.993,-0.772,-13.306,42.969,-91.614
1.824,-3.633,-0.739,-55.054,-27.710,-78.491
1.945,-2.840,-0.553,-95.764,-121.277,-57.983
1.550,-2.065,-0.512,-90.759,-208.496,-31.128
0.884,-1.746,-0.872,-57.617,-264.954,4.456
0.417,-1.677,-1.357,-38.574,-275.696,35.706
0.376,-1.601,-1.521,-37.354,-242.371,57.739
0.183,-1.391,-1.424,-45.288,-180.786,78.003
-0.046,-1.100,-1.168,-50.781,-107.422,86.182
-0.158,-0.862,-0.935,-51.453,-46.021,89.050
-0.130,-0.752,-0.859,-45.410,-8.301,87.952
-0.027,-0.661,-0.863,-35.950,10.315,75.195
0.089,-0.516,-0.897,-26.794,17.090,51.880
0.192,-0.363,-0.902,-15.320,21.423,25.391
0.236,-0.261,-0.824,0.610,24.353,-1.343
0.277,-0.219,-0.714,20.142,23.010,-30.457
0.340,-0.193,-0.585,41.138,21.667,-58.838
0.411,-0.203,-0.482,62.256,24.475,-82.642
0.475,-0.279,-0.417,81.787,29.297,-97.900
0.531,-0.408,-0.350,94.177,31.799,-100.342
0.557,-0.558,-0.335,94.971,31.006,-90.942
0.560,-0.702,-0.357,84.412,30.823,-74.463
0.604,-0.822,-0.377,64.514,31.494,-54.565
0.640,-0.752,-0.340,38.330,28.809,-37.354
0.653,-0.644,-0.345,15.869,19.958,-18.433
0.655,-0.627,-0.417,0.000,7.812,1.465
0.621,-0.627,-0.478,-11.047,-2.625,17.151
0.540,-0.637,-0.536,-18.433,-12.451,28.076
0.436,-0.663,-0.602,-23.804,-20.630,34.180
0.370,-0.682,-0.650,-28.076,-23.804,34.668
0.337,-0.663,-0.672,-30.701,-22.949,30.640
0.318,-0.631,-0.704,-31.006,-20.996,24.231
0.328,-0.609,-0.710,-28.259,-17.029,15.381
0.349,-0.594,-0.719,-24.292,-12.756,4.456
0.379,-0.595,-0.720,-18.433,-8.667,-5.493
0.415,-0.624,-0.717,-12.573,-4.883,-14.526
0.446,-0.651,-0.705,-8.789,-1.831,-23.132
0.471,-0.662,-0.683,-7.324,-0.488,-29.236
0.512,-0.670,-0.695,-6.958,-2.197,-32.532
0.552,-0.669,-0.726,-7.751,-4.883,-33.936
0.583,-0.658,-0.766,-8.179,-5.676,-33.813
0.595,-0.616,-0.778,-7.263,-4.150,-31.860
0.600,-0.600,-0.790,-3.235,-1.648,-28.137
0.615,-0.618,-0.801,2.258,0.854,-24.597
0.629,-0.630,-0.789,7.263,2.563,-21.606
0.640,-0.637,-0.765,12.817,2.197,-19.043
0.651,-0.662,-0.752,19.470,-1.404,-16.418
0.638,-0.698,-0.762,25.818,-7.690,-13.916
0.606,-0.727,-0.794,31.128,-13.855,-11.169
0.641,-0.788,-0.882,35.217,-17.944,-8.850
0.594,-0.741,-0.867,36.804,-16.602,-10.315
0.528,-0.634,-0.852,40.588,-13.794,-9.644
0.614,-0.660,-0.897,52.979,-7.935,-5.493
0.623,-0.594,-0.773,62.012,2.075,-4.639
0.629,-0.950,-0.844,69.214,7.263,-3.540
0.538,-0.859,-0.787,56.030,7.935,-19.043
0.573,-0.680,-0.632,45.410,13.489,-26.855
0.590,-0.776,-0.749,47.974,12.756,-26.611
0.630,-0.984,-0.787,45.227,15.503,-30.212
0.575,-0.910,-0.673,28.015,14.648,-41.687
0.639,-0.911,-0.735,20.386,4.883,-46.997
0.677,-0.833,-0.786,18.066,-2.441,-53.101
0.633,-0.671,-0.787,19.775,-7.935,-54.077
0.607,-0.550,-0.817,29.846,-14.709,-45.715
0.591,-0.388,-0.815,43.823,-19.531,-31.860
0.603,-0.278,-0.802,62.256,-24.963,-11.230
0.653,-0.330,-0.766,82.275,-32.349,13.428
0.677,-0.465,-0.754,98.511,-42.236,36.560
0.661,-0.566,-0.746,107.971,-53.589,54.260
0.651,-0.615,-0.752,112.305,-65.735,67.017
0.656,-0.672,-0.783,116.943,-78.979,75.562
0.661,-0.672,-0.779,120.483,-90.210,79.468
0.662,-0.611,-0.779,123.413,-101.074,79.773
0.661,-0.567,-0.807,130.066,-111.877,80.200
0.627,-0.505,-0.830,136.169,-119.995,81.604
0.578,-0.449,-0.838,140.381,-123.657,82.825
0.572,-0.464,-0.844,143.738,-123.108,85.327
0.615,-0.503,-0.847,144.409,-121.460,87.341
0.637,-0.500,-0.819,142.151,-123.108,88.501
0.646,-0.499,-0.802,139.526,-126.648,89.294
0.643,-0.507,-0.794,136.475,-130.432,89.294
0.615,-0.453,-0.777,132.629,-132.812,88.013
0.594,-0.382,-0.742,128.784,-133.240,86.243
0.604,-0.354,-0.729,126.099,-133.301,84.106
0.636,-0.339,-0.692,124.573,-134.583,81.909
0.693,-0.321,-0.639,121.277,-137.573,80.383
0.778,-0.337,-0.610,114.929,-144.592,79.407
0.816,-0.362,-0.610,107.117,-155.640,78.064
0.768,-0.318,-0.605,97.961,-165.833,74.585
0.682,-0.229,-0.577,89.294,-171.875,70.984
0.617,-0.162,-0.555,83.313,-173.035,69.214
0.575,-0.103,-0.533,80.688,-170.105,67.932
0.564,-0.084,-0.507,78.796,-162.476,67.444

1.950,0.552,1.320,-288.635,636.230,-452.515
3.558,-0.820,0.107,-232.971,370.300,-444.824
1.911,-1.458,-0.813,-170.654,166.138,-354.553
0.189,-0.956,-0.391,-204.773,97.290,-325.623
-0.191,-0.063,0.422,-214.600,99.548,-313.171
0.108,-0.372,0.410,-103.394,102.234,-231.445
0.332,-1.124,0.473,12.939,96.924,-125.732
0.369,-1.946,0.571,97.839,83.069,-44.373
0.509,-2.953,0.378,171.265,60.364,6.165
0.882,-3.967,-0.010,219.604,40.405,25.146
1.365,-4.000,-0.396,209.839,29.175,19.592
1.653,-4.000,-0.541,128.113,20.996,-12.085
1.590,-3.308,-0.616,24.353,8.057,-55.664
1.317,-2.255,-0.743,-44.312,-0.671,-76.782
0.842,-1.723,-0.906,-78.979,-0.305,-61.951
0.315,-1.450,-0.876,-101.013,11.414,-22.217
0.004,-1.022,-0.706,-113.770,25.208,20.508
0.429,-1.218,-0.891,-110.168,35.034,60.913
0.456,-0.806,-0.643,-109.863,39.673,70.007
0.500,-0.575,-0.638,-110.413,16.602,72.388
0.449,-0.158,-0.490,-89.600,-10.254,73.730
0.454,-0.054,-0.504,-48.218,-42.908,76.660
0.419,-0.238,-0.646,-5.066,-75.806,70.313
0.291,-0.261,-0.606,22.400,-96.069,53.040
0.257,-0.314,-0.518,49.438,-107.422,38.025
0.301,-0.463,-0.500,72.998,-112.854,20.996
0.306,-0.584,-0.518,85.938,-109.192,2.930
0.218,-0.662,-0.498,88.135,-90.149,-15.381
0.164,-0.714,-0.418,84.473,-57.617,-32.532
0.214,-0.801,-0.366,78.491,-21.851,-42.053
0.307,-0.906,-0.333,67.444,9.155,-44.678
0.401,-0.953,-0.321,49.438,32.715,-43.091
0.531,-0.929,-0.350,28.381,44.861,-39.185
0.632,-0.881,-0.437,9.888,46.204,-35.095
0.649,-0.839,-0.512,-3.479,42.358,-30.212
0.644,-0.756,-0.522,-11.475,36.865,-24.719
0.649,-0.656,-0.506,-11.841,28.503,-18.188
0.642,-0.682,-0.533,-5.066,17.517,-9.521
0.580,-0.691,-0.536,1.831,4.639,-3.906
0.510,-0.680,-0.526,8.057,-7.996,0.366
0.481,-0.712,-0.524,15.564,-18.555,6.226
0.479,-0.750,-0.547,20.386,-27.039,10.254
0.480,-0.852,-0.627,22.461,-31.433,10.864
0.421,-0.842,-0.641,18.066,-28.503,4.150
0.395,-0.746,-0.603,14.404,-20.264,-2.991
0.426,-0.720,-0.579,18.494,-12.512,-6.470
0.496,-0.788,-0.575,24.597,-6.836,-9.338
0.513,-0.809,-0.561,26.978,-2.441,-14.221
0.492,-0.782,-0.557,27.588,0.488,-18.005
0.506,-0.780,-0.580,27.954,2.502,-18.066
0.559,-0.781,-0.598,27.283,5.249,-17.151
0.593,-0.766,-0.595,25.818,7.935,-16.479
0.613,-0.755,-0.591,24.841,8.118,-14.893
0.635,-0.771,-0.599,25.879,5.798,-12.756
0.674,-0.790,-0.600,28.320,1.770,-10.681
0.712,-0.794,-0.592,32.166,-4.211,-7.629
0.720,-0.783,-0.573,37.720,-13.245,-4.089
0.701,-0.797,-0.573,45.898,-25.269,-0.061
0.688,-0.854,-0.618,54.871,-37.720,4.150
0.670,-0.928,-0.691,63.049,-46.021,5.798
0.629,-0.897,-0.696,69.336,-46.570,5.127
0.612,-0.812,-0.678,77.393,-43.579,5.371
0.642,-0.775,-0.666,91.309,-38.147,6.958
0.683,-0.731,-0.642,107.605,-31.250,8.179
0.726,-0.671,-0.587,123.047,-26.123,10.254
0.784,-0.626,-0.541,139.282,-26.001,14.648
0.835,-0.619,-0.520,155.945,-32.166,21.362
0.863,-0.654,-0.507,170.654,-43.640,30.029
0.865,-0.721,-0.502,180.908,-58.960,40.100
0.847,-0.791,-0.514,185.059,-75.439,50.415
0.825,-0.816,-0.545,183.044,-90.637,59.509
0.797,-0.785,-0.571,178.833,-103.210,67.017
0.776,-0.766,-0.612,176.453,-112.915,75.134
0.740,-0.806,-0.661,174.500,-119.507,82.275
0.668,-0.827,-0.706,168.274,-120.361,84.412
0.596,-0.756,-0.742,156.677,-115.051,80.872
0.562,-0.643,-0.742,143.616,-105.408,74.585
0.564,-0.571,-0.732,133.118,-92.651,68.298
0.564,-0.531,-0.736,125.549,-78.491,62.134
0.579,-0.479,-0.739,120.117,-63.477,56.396
0.620,-0.422,-0.704,117.249,-50.476,52.734
0.658,-0.376,-0.670,117.004,-42.053,51.208
0.670,-0.376,-0.659,118.042,-37.720,51.270
0.674,-0.382,-0.657,117.859,-35.034,51.086
0.693,-0.351,-0.632,115.234,-33.081,51.270
0.707,-0.320,-0.617,112.244,-34.424,52.490
0.693,-0.326,-0.626,109.741,-38.757,53.711
0.649,-0.332,-0.651,106.018,-41.260,54.199
0.606,-0.295,-0.646,100.586,-39.856,53.467
0.583,-0.255,-0.629,95.337,-37.292,52.307
0.579,-0.223,-0.607,90.271,-34.424,50.293
0.598,-0.207,-0.599,85.205,-31.921,49.011
0.640,-0.205,-0.615,80.261,-31.738,47.729
0.659,-0.203,-0.628,74.646,-33.508,45.898
0.689,-0.203,-0.624,68.909,-35.461,43.701
0.718,-0.185,-0.621,62.073,-38.757,40.710
0.718,-0.116,-0.605,55.054,-42.419,36.804
0.696,-0.029,-0.595,50.232,-45.532,33.691
0.688,0.037,-0.578,48.828,-47.791,31.494
0.689,0.074,-0.557,49.377,-49.194,30.823
0.672,0.098,-0.549,49.622,-49.500,30.457
0.647,0.109,-0.560,48.279,-46.936,29.236
0.641,0.125,-0.585,45.959,-41.077,27.771
0.647,0.141,-0.569,43.945,-32.898,27.344
0.656,0.134,-0.560,41.931,-23.926,28.015
0.687,0.141,-0.577,37.231,-15.015,28.564
0.711,0.158,-0.592,32.227,-7.446,29.541
0.707,0.188,-0.584,27.588,-0.610,31.982
0.712,0.217,-0.570,24.048,5.493,34.912
0.719,0.235,-0.566,21.118,10.559,37.781
0.723,0.251,-0.548,18.982,14.221,40.527
0.725,0.264,-0.513,16.357,15.930,43.457
0.712,0.270,-0.468,12.756,15.137,43.945
0.710,0.269,-0.450,7.141,12.329,41.809
0.716,0.264,-0.468,-0.671,6.714,37.354
0.708,0.284,-0.481,-9.094,0.366,31.799
0.690,0.335,-0.490,-15.076,-6.104,26.794
0.680,0.378,-0.498,-18.066,-12.512,23.010
0.683,0.392,-0.500,-18.677,-18.494,19.165

1.550,0.665,-0.781,-455.872,190.674,-88.440
1.142,0.688,-0.604,-361.877,110.474,-66.956
0.839,0.387,-0.191,-265.198,57.617,-33.325
1.261,1.686,0.910,-151.123,40.588,-13.245
0.844,1.055,1.451,-18.799,87.830,-26.367
0.437,-2.629,0.781,44.983,103.027,28.137
0.497,-3.999,0.635,22.949,68.176,93.323
0.653,-3.674,0.528,-12.329,44.312,143.433
0.906,-3.379,0.978,-53.101,35.706,148.193
1.113,-3.469,1.156,-86.548,-14.893,145.813
0.998,-3.779,0.880,-98.816,-97.351,144.226
0.585,-3.846,0.410,-125.244,-160.645,119.385
0.127,-3.269,-0.286,-160.706,-171.692,65.491
0.043,-2.297,-0.630,-192.993,-126.221,9.033
0.116,-1.344,-0.641,-203.796,-56.030,-29.724
0.176,-0.829,-0.540,-180.908,0.427,-46.509
0.167,-0.720,-0.592,-138.123,25.452,-47.791
0.315,-0.875,-0.716,-92.163,33.020,-38.269
0.475,-0.742,-0.650,-60.669,34.973,-36.865
0.583,-0.742,-0.619,-35.034,29.114,-35.034
0.541,-0.623,-0.512,-9.216,18.372,-24.475
0.522,-0.611,-0.456,16.724,-0.549,-6.165
0.561,-0.709,-0.451,38.574,-17.883,10.620
0.562,-0.618,-0.306,48.584,-31.433,22.461
0.510,-0.671,-0.232,55.420,-45.044,34.180
0.485,-0.740,-0.227,61.035,-57.190,41.931
0.435,-0.769,-0.254,60.791,-60.181,44.006
0.372,-0.803,-0.253,56.458,-49.988,41.321
0.339,-0.796,-0.245,50.171,-34.241,35.034
0.306,-0.790,-0.276,43.152,-16.418,27.039
0.318,-0.796,-0.292,36.865,2.014,18.066
0.377,-0.782,-0.298,31.616,15.991,8.240
0.436,-0.767,-0.299,29.297,22.522,-1.709
0.484,-0.789,-0.326,30.273,22.034,-9.949
0.483,-0.798,-0.315,30.090,19.226,-15.259
0.473,-0.787,-0.262,27.893,16.785,-17.090
0.509,-0.811,-0.236,26.428,14.465,-15.503
0.530,-0.841,-0.231,21.973,12.573,-12.634
0.502,-0.830,-0.237,14.038,11.230,-9.888
0.487,-0.791,-0.235,6.348,11.353,-7.141
0.489,-0.787,-0.249,1.709,10.498,-2.502
0.477,-0.776,-0.256,-2.014,7.935,3.296
0.467,-0.759,-0.278,-5.066,3.174,7.996
0.457,-0.758,-0.320,-6.470,-2.747,10.620
0.454,-0.747,-0.355,-7.690,-8.301,10.132
0.447,-0.724,-0.380,-6.531,-12.878,7.385
0.454,-0.725,-0.401,-2.747,-15.442,3.418
0.473,-0.775,-0.426,2.930,-15.381,-1.404
0.462,-0.771,-0.411,7.324,-12.695,-7.507
0.447,-0.747,-0.423,12.939,-10.437,-11.414
0.451,-0.790,-0.457,20.569,-7.812,-11.902
0.457,-0.820,-0.495,25.513,-4.578,-13.306
0.444,-0.806,-0.501,28.625,-0.427,-14.954
0.457,-0.799,-0.511,32.471,4.822,-15.015
0.506,-0.815,-0.520,38.818,10.620,-14.099
0.550,-0.820,-0.501,45.105,15.198,-14.709
0.581,-0.798,-0.461,53.406,16.663,-15.686
0.602,-0.824,-0.440,65.186,14.221,-15.686
0.619,-0.873,-0.443,77.271,9.277,-15.320
0.616,-0.906,-0.461,87.646,2.441,-15.198
0.619,-0.944,-0.489,96.436,-4.822,-15.137
0.621,-0.985,-0.517,103.027,-12.024,-17.090
0.626,-0.875,-0.510,108.337,-20.386,-19.897
0.702,-0.882,-0.565,118.713,-29.724,-19.714
0.703,-0.761,-0.533,127.991,-39.673,-22.217
0.693,-0.768,-0.469,141.724,-51.392,-18.494
0.692,-0.787,-0.557,154.724,-70.190,-17.273
0.644,-0.728,-0.526,166.260,-80.627,-11.719
0.591,-0.671,-0.467,180.115,-89.478,0.916
0.653,-0.740,-0.494,196.960,-98.755,18.188
0.778,-1.050,-0.645,207.642,-105.835,31.189
0.738,-0.998,-0.522,199.768,-108.459,29.968
0.720,-0.936,-0.442,195.557,-117.371,37.964
0.789,-0.999,-0.430,196.350,-126.831,53.589
0.851,-1.088,-0.432,188.416,-135.559,71.106
0.914,-1.149,-0.448,172.791,-148.254,90.332
0.964,-1.130,-0.477,153.625,-164.917,109.680
0.958,-1.023,-0.504,134.094,-183.838,125.916
0.890,-0.894,-0.575,117.493,-201.172,139.404
0.821,-0.823,-0.662,106.445,-210.999,150.818
0.766,-0.747,-0.723,97.595,-212.097,156.067
0.662,-0.655,-0.726,91.370,-205.811,155.029
0.491,-0.515,-0.646,89.783,-190.674,150.269
0.388,-0.450,-0.596,94.971,-170.471,145.203
0.392,-0.467,-0.603,101.746,-145.691,135.010
0.421,-0.527,-0.636,107.483,-114.990,117.859
0.393,-0.499,-0.642,112.427,-79.102,96.924
0.374,-0.426,-0.653,118.286,-42.175,76.782
0.438,-0.390,-0.663,126.709,-7.568,58.044
0.545,-0.340,-0.631,136.230,24.536,42.175
0.631,-0.269,-0.570,144.348,49.683,31.494
0.687,-0.203,-0.514,151.550,63.354,25.818
0.740,-0.188,-0.470,157.471,65.674,24.292
0.782,-0.166,-0.434,159.058,60.669,25.085
0.792,-0.159,-0.423,156.616,50.110,27.283
0.800,-0.187,-0.456,150.452,35.522,28.198
0.842,-0.183,-0.505,140.259,21.057,26.489
0.873,-0.177,-0.527,128.662,7.751,24.231
0.831,-0.155,-0.540,115.540,-4.639,21.240
0.792,-0.096,-0.555,100.647,-14.160,20.691
0.813,-0.008,-0.536,86.304,-21.606,21.973
0.817,0.076,-0.524,74.219,-28.564,23.193
0.789,0.142,-0.501,64.209,-34.790,25.391
0.749,0.177,-0.484,56.396,-39.978,29.541
0.702,0.208,-0.499,50.171,-43.762,32.227
0.647,0.232,-0.504,45.410,-42.603,33.203
0.583,0.267,-0.517,41.748,-35.522,33.386
0.509,0.290,-0.507,40.833,-22.217,32.593
0.471,0.302,-0.493,39.856,-2.808,30.090
0.489,0.306,-0.494,36.926,20.020,24.475
0.528,0.320,-0.478,32.898,42.542,16.663
0.567,0.335,-0.472,27.466,61.340,9.583
0.633,0.335,-0.488,21.851,74.219,4.211
0.701,0.340,-0.498,16.296,81.116,0.305
0.756,0.349,-0.487,11.292,83.679,-0.549
0.807,0.357,-0.485,5.676,81.543,-0.244
0.858,0.380,-0.504,-0.732,74.951,-0.549
0.884,0.408,-0.505,-6.104,64.819,-0.122
0.881,0.425,-0.525,-10.010,52.734,0.793

1.078,1.090,-0.538,-16.968,-193.359,-12.451
1.103,1.171,-0.481,-17.639,-223.938,-16.418
1.031,1.188,-0.566,-26.306,-256.531,-21.301
0.871,1.133,-0.611,-51.697,-279.907,-28.625
0.764,1.049,-0.647,-95.276,-284.912,-37.048
0.742,0.946,-0.711,-150.879,-278.442,-43.152
0.723,0.806,-0.744,-212.097,-264.771,-44.861
0.605,0.679,-0.791,-270.813,-241.821,-41.809
0.408,0.624,-0.820,-318.604,-203.003,-35.645
0.156,0.537,-0.631,-352.112,-147.705,-29.724
-0.119,0.556,-0.505,-376.831,-80.322,-28.076
-0.201,0.754,-0.432,-392.822,-0.305,-31.921
-0.117,0.979,-0.367,-399.780,80.505,-35.217
-0.094,1.089,-0.309,-397.461,152.344,-37.354
-0.004,1.226,-0.254,-393.799,209.167,-45.227
0.152,1.279,-0.357,-383.240,240.601,-60.486
0.222,1.227,-0.555,-368.896,247.559,-84.595
0.148,1.187,-0.692,-350.647,245.483,-128.845
0.111,1.080,-0.736,-319.153,248.047,-189.514
0.205,0.745,-0.752,-274.963,253.174,-253.662
0.297,0.258,-0.674,-232.178,259.033,-317.078
0.373,-0.276,-0.415,-205.627,269.165,-376.404
0.488,-0.661,-0.127,-203.918,282.776,-416.687
1.249,1.299,1.962,-223.206,293.518,-431.824
1.667,2.729,2.436,-222.351,298.218,-425.415
0.058,-0.814,0.832,-134.033,261.841,-410.278
-0.281,-3.245,0.362,-153.076,268.982,-393.066
0.505,-2.951,0.348,-210.388,320.129,-348.389
1.117,-1.874,1.028,-266.418,345.581,-257.812
1.308,-1.567,1.394,-257.263,291.748,-174.988
1.288,-1.970,1.455,-201.477,179.687,-95.276
1.304,-2.421,1.451,-137.878,57.373,-28.748
1.140,-2.862,1.173,-80.139,-52.185,9.949
0.885,-3.330,0.829,-36.499,-125.610,19.226
0.665,-3.621,0.426,-16.541,-152.893,8.057
0.500,-3.673,0.003,-24.658,-130.127,-13.062
0.426,-3.373,-0.262,-60.669,-66.711,-35.767
0.399,-2.768,-0.491,-105.408,7.446,-52.368
0.464,-2.123,-0.667,-133.972,66.040,-55.481
0.613,-1.508,-0.703,-138.489,94.116,-45.593
0.777,-0.984,-0.670,-122.986,89.417,-28.015
0.841,-0.667,-0.656,-90.637,56.641,-9.033
0.701,-0.382,-0.579,-48.279,8.789,8.240
0.530,-0.318,-0.561,1.282,-42.480,29.358
0.415,-0.435,-0.539,49.316,-81.726,50.110
0.365,-0.630,-0.500,86.365,-104.553,62.622
0.301,-0.758,-0.355,106.873,-109.619,66.406
0.247,-0.853,-0.230,117.126,-106.873,67.139
0.241,-0.942,-0.154,120.544,-98.572,67.505
0.295,-1.021,-0.094,115.845,-82.214,63.477
0.329,-0.982,-0.032,103.088,-62.195,55.115
0.330,-0.939,-0.027,88.562,-44.373,47.424
0.322,-0.880,-0.032,74.341,-27.466,37.842
0.324,-0.835,-0.047,62.622,-10.681,26.733
0.322,-0.821,-0.071,54.443,3.235,15.137
0.355,-0.828,-0.098,47.974,14.099,4.944
0.427,-0.817,-0.108,42.542,19.958,-3.235
0.476,-0.750,-0.121,39.124,18.799,-9.399
0.537,-0.747,-0.178,39.856,12.268,-11.780
0.562,-0.841,-0.267,39.856,6.653,-13.000
0.507,-0.968,-0.278,31.860,6.042,-17.700
0.437,-0.752,-0.182,18.860,7.751,-24.658
0.415,-0.750,-0.191,18.372,10.437,-19.531
0.422,-0.819,-0.214,19.348,13.123,-9.338
0.452,-0.846,-0.257,16.724,13.672,-1.038
0.453,-0.848,-0.337,13.184,12.329,3.418
0.455,-0.934,-0.411,10.864,12.268,4.456
0.416,-0.812,-0.381,7.874,12.634,0.549
0.442,-0.856,-0.446,12.451,10.437,-1.038
0.458,-0.884,-0.438,17.090,11.658,-4.578
0.470,-0.857,-0.423,23.010,13.306,-9.399
0.502,-0.919,-0.451,31.982,13.245,-13.977
0.563,-0.938,-0.432,39.551,14.221,-20.325
0.577,-0.959,-0.426,47.668,13.855,-24.963
0.571,-0.978,-0.424,58.167,12.634,-25.879
0.570,-1.033,-0.452,66.650,12.024,-23.804
0.585,-1.109,-0.433,68.787,15.198,-18.799
0.615,-1.102,-0.384,64.209,20.203,-11.719
0.670,-1.032,-0.348,59.143,22.461,-4.578
0.720,-0.961,-0.325,58.167,19.226,1.709
0.735,-0.901,-0.336,64.148,11.414,7.874
0.699,-0.821,-0.346,74.829,1.953,13.916
0.665,-0.778,-0.349,89.294,-7.935,22.156
0.656,-0.799,-0.371,105.042,-18.799,31.738
0.633,-0.823,-0.383,118.347,-29.480,38.696
0.595,-0.842,-0.401,130.066,-39.429,43.518
0.574,-0.886,-0.448,142.944,-47.729,46.326
0.553,-0.890,-0.487,156.433,-51.819,44.800
0.530,-0.843,-0.501,171.204,-52.185,42.358
0.522,-0.813,-0.512,188.660,-52.063,41.199
0.529,-0.841,-0.549,204.956,-50.720,39.917
0.511,-0.820,-0.561,214.722,-47.974,37.048
0.476,-0.725,-0.555,219.971,-45.288,34.790
0.492,-0.685,-0.589,228.027,-45.044,37.109
0.547,-0.749,-0.662,236.755,-45.410,42.419
0.562,-0.765,-0.650,240.784,-45.593,45.105
0.560,-0.755,-0.630,243.042,-49.927,47.119
0.560,-0.787,-0.646,247.070,-56.152,49.072
0.551,-0.855,-0.689,249.207,-61.768,49.011
0.529,-0.861,-0.712,246.460,-65.002,46.265
0.528,-0.811,-0.724,241.455,-66.650,43.213
0.572,-0.755,-0.752,236.267,-67.383,41.382
0.614,-0.677,-0.772,230.774,-66.406,41.382
0.614,-0.593,-0.756,226.440,-65.918,44.617
0.574,-0.536,-0.750,223.816,-68.298,49.927
0.547,-0.495,-0.744,220.764,-70.496,55.908
0.532,-0.472,-0.721,214.722,-69.336,59.021
0.507,-0.418,-0.679,205.933,-65.857,59.021
0.468,-0.369,-0.658,196.289,-62.195,57.678
0.441,-0.345,-0.710,186.646,-57.861,55.237
0.453,-0.367,-0.769,175.720,-50.903,50.659
0.508,-0.344,-0.780,162.109,-39.124,44.495
0.535,-0.235,-0.759,148.193,-26.611,38.147
0.565,-0.118,-0.734,137.939,-17.517,34.729
0.645,-0.002,-0.697,130.920,-13.855,35.217
0.719,0.079,-0.631,128.052,-16.296,38.818
0.732,0.094,-0.607,125.977,-23.682,43.213
0.709,0.108,-0.570,120.361,-32.776,43.884
0.689,0.140,-0.505,112.610,-42.358,41.687

0.357,1.866,-0.469,-78.125,-282.654,24.780
0.492,1.634,-0.435,-65.186,-308.411,12.329
0.383,1.399,-0.470,-63.965,-345.947,-0.549
0.292,1.240,-0.543,-69.702,-375.305,-16.724
0.204,1.153,-0.593,-77.454,-387.329,-27.039
0.074,1.079,-0.609,-82.703,-381.958,-26.733
-0.046,1.059,-0.505,-78.003,-360.229,-20.203
-0.152,0.998,-0.281,-50.354,-321.045,-13.855
0.079,0.877,0.272,-0.061,-265.625,-5.249
-0.227,0.872,0.476,56.458,-292.358,31.677
-1.676,0.155,0.408,84.229,-362.366,27.039
-2.094,-0.635,0.868,75.134,-307.861,59.937
-1.967,-0.760,1.088,43.091,-219.971,99.426
-1.411,-0.914,1.411,14.221,-138.855,121.521
-0.810,-1.248,1.797,3.052,-73.181,127.869
-0.327,-1.317,2.056,-1.648,-44.495,100.769
0.268,-1.344,2.298,20.630,-54.138,61.401
0.602,-1.311,2.561,72.510,-102.905,12.207
-0.192,-1.542,2.431,161.438,-160.522,-7.324
-0.526,-1.502,2.154,247.803,-174.072,4.089
-0.480,-1.500,1.979,306.641,-125.977,-1.038
-0.306,-1.820,1.896,350.525,-45.776,6.104
0.089,-2.266,1.919,364.258,40.710,5.493
0.574,-2.523,2.021,335.815,115.540,-19.592
0.850,-2.197,2.065,265.137,160.645,-62.561
0.850,-1.596,1.997,174.866,181.213,-97.656
0.669,-0.928,1.794,92.407,184.082,-115.662
0.474,-0.547,1.579,30.884,185.852,-117.981
0.582,-0.455,1.537,-14.526,184.998,-118.286
0.758,-0.500,1.170,-49.622,161.133,-119.141
0.783,-0.437,0.954,-80.200,143.066,-113.098
0.804,-0.318,0.850,-103.088,130.615,-101.379
0.811,-0.175,0.790,-112.915,111.023,-84.167
0.730,0.009,0.729,-109.558,83.252,-58.960
0.649,0.154,0.697,-95.459,54.199,-25.330
0.577,0.157,0.712,-73.730,25.818,12.207
0.504,0.012,0.692,-48.157,-3.052,48.218
0.456,-0.158,0.714,-25.757,-26.855,79.102
0.364,-0.237,0.711,-11.047,-47.729,101.379
0.246,-0.255,0.717,-0.671,-62.500,113.831
0.149,-0.275,0.734,6.714,-64.819,117.981
0.045,-0.278,0.768,11.475,-56.519,114.929
-0.055,-0.250,0.820,14.526,-41.321,105.286
-0.107,-0.205,0.870,16.174,-21.729,90.088
-0.113,-0.198,0.882,17.883,0.488,71.716
-0.108,-0.227,0.867,20.569,25.940,51.697
-0.071,-0.302,0.890,24.048,54.016,32.959
0.021,-0.398,0.986,23.804,77.637,15.381
0.142,-0.415,1.078,17.212,88.501,-1.221
0.242,-0.366,1.127,7.568,87.097,-14.587
0.221,-0.335,1.059,-2.625,78.552,-21.729
0.262,-0.368,1.099,-11.414,71.716,-22.888
0.319,-0.264,1.131,-18.677,64.392,-23.437
0.325,-0.308,1.021,-22.400,53.528,-19.470
0.304,-0.298,1.033,-23.376,57.922,-16.968
0.364,-0.362,1.061,-21.362,64.819,-14.587
0.380,-0.365,0.987,-16.479,71.350,-17.151
0.376,-0.319,0.997,-9.521,83.862,-19.165
0.361,-0.366,0.975,-0.305,97.839,-17.639
0.351,-0.415,0.940,9.766,112.854,-16.724
0.349,-0.431,0.895,20.691,127.441,-16.296
0.424,-0.453,0.897,28.381,140.320,-9.460
0.550,-0.500,0.903,30.457,143.921,4.395
0.626,-0.510,0.925,28.442,137.878,20.386
0.664,-0.517,0.988,26.123,125.793,35.645
0.655,-0.543,0.962,24.475,110.901,50.659
0.633,-0.544,0.942,23.132,97.534,64.758
0.602,-0.545,0.902,22.705,86.853,77.820
0.541,-0.544,0.856,24.597,81.116,86.243
0.457,-0.521,0.797,29.846,83.801,91.064
0.386,-0.462,0.716,37.598,95.215,92.651
0.292,-0.390,0.596,48.035,113.647,91.858
0.307,-0.360,0.599,62.378,139.648,90.820
0.304,-0.370,0.529,76.416,166.321,89.600
0.347,-0.364,0.500,87.952,192.505,86.182
0.401,-0.332,0.463,99.182,215.210,80.505
0.466,-0.316,0.419,110.779,233.887,73.303
0.540,-0.325,0.382,121.704,249.878,64.331
0.607,-0.342,0.348,131.348,260.864,53.711
0.667,-0.358,0.313,138.672,265.869,41.626
0.715,-0.364,0.267,143.066,267.029,27.588
0.756,-0.360,0.222,142.944,267.517,14.587
0.778,-0.333,0.181,139.526,266.113,4.822
0.819,-0.301,0.152,134.094,262.085,-1.953
0.869,-0.277,0.133,126.404,254.944,-5.859
0.875,-0.242,0.098,116.455,245.911,-9.094
0.849,-0.205,0.057,106.445,237.610,-12.573
0.889,-0.187,0.023,96.313,231.323,-14.893
0.969,-0.180,0.006,85.510,224.304,-16.541
1.009,-0.158,0.003,74.707,214.172,-18.372
1.048,-0.152,0.013,62.439,200.867,-18.372
1.093,-0.138,0.018,48.279,183.594,-17.395
1.112,-0.102,0.010,34.363,162.170,-17.090
1.110,-0.066,0.002,22.095,139.648,-14.526
1.102,-0.042,-0.007,10.559,117.615,-9.888
1.053,-0.006,-0.028,-2.136,96.375,-5.920
0.970,0.020,-0.078,-14.954,77.698,-3.235
0.905,0.003,-0.145,-26.672,65.430,-2.136
0.899,-0.026,-0.205,-38.330,61.584,-3.357
0.895,-0.033,-0.246,-48.950,65.308,-8.362
0.905,-0.019,-0.266,-57.434,73.242,-15.137
0.957,-0.014,-0.248,-64.209,82.092,-21.118
1.061,-0.027,-0.249,-73.669,87.830,-24.231
1.193,-0.034,-0.284,-83.496,86.548,-27.283
1.307,-0.031,-0.296,-90.881,80.505,-28.625
1.360,0.011,-0.304,-95.703,69.458,-25.757
1.348,0.089,-0.299,-95.947,53.406,-22.339
1.301,0.147,-0.282,-92.041,37.292,-19.653
1.231,0.190,-0.283,-86.243,23.682,-18.188
1.148,0.196,-0.302,-79.468,15.198,-17.944
1.113,0.210,-0.311,-72.510,12.512,-19.836
1.083,0.237,-0.306,-64.697,13.855,-21.606
1.075,0.255,-0.297,-55.908,16.174,-21.912
1.091,0.251,-0.280,-47.729,16.846,-20.874
1.143,0.238,-0.257,-41.443,14.221,-19.836
1.187,0.239,-0.224,-36.865,7.874,-19.531
1.205,0.259,-0.202,-31.982,-3.296,-18.311
1.195,0.265,-0.192,-26.672,-18.066,-16.846
1.143,0.262,-0.185,-20.996,-32.288,-16.357

1.309,0.071,2.530,-77.332,-119.751,55.054
1.023,1.192,2.817,-21.179,-106.934,55.420
0.068,-1.350,1.207,80.566,-98.572,50.720
0.191,-2.670,0.746,92.529,-29.724,39.978
0.920,-2.830,1.458,65.491,78.796,11.597
1.542,-2.516,1.734,66.101,108.704,-52.063
1.912,-2.300,1.598,59.937,73.242,-119.019
2.087,-2.097,1.250,38.757,20.935,-171.387
1.685,-1.801,0.833,10.132,-29.541,-218.140
1.043,-1.462,0.517,-18.311,-44.067,-260.071
0.501,-1.305,0.109,-43.335,-9.033,-289.551
0.933,-1.224,0.193,-66.467,64.148,-305.176
0.909,-1.066,0.018,-88.562,124.023,-306.702
1.160,-0.766,0.016,-108.276,170.776,-294.189
1.159,-0.571,-0.052,-112.793,180.115,-254.089
1.520,-0.377,0.076,-104.614,161.011,-190.674
1.662,0.193,0.154,-86.548,85.693,-133.118
1.596,0.833,0.214,-46.570,-6.165,-71.594
1.322,0.870,0.076,11.108,-79.895,-5.188
0.988,0.358,-0.099,68.237,-122.131,49.927
0.833,-0.169,-0.125,110.535,-129.944,95.276
0.794,-0.266,0.121,132.141,-120.056,119.873
0.761,-0.260,0.317,142.761,-118.408,136.475
0.653,-0.446,0.337,154.053,-121.216,153.687
0.514,-0.668,0.311,155.518,-121.521,156.982
0.356,-0.661,0.292,145.264,-113.586,146.057
0.205,-0.731,0.167,132.385,-93.750,135.315
0.511,-0.769,0.365,116.638,-54.565,114.136
0.690,-0.895,0.305,95.459,-32.227,82.336
0.533,-0.700,0.274,73.608,-25.452,41.565
0.494,-0.772,0.181,55.359,-10.315,13.428
0.685,-0.620,0.229,39.734,10.437,-17.822
0.717,-0.526,0.183,31.982,26.306,-38.879
0.829,-0.499,0.241,27.954,41.992,-50.171
0.905,-0.431,0.276,25.879,46.143,-55.725
0.941,-0.406,0.315,26.245,45.044,-51.941
0.993,-0.367,0.352,27.039,40.527,-43.335
1.236,-0.381,0.397,28.748,32.532,-32.166
0.977,-0.365,0.379,28.870,23.132,-19.348
0.944,-0.395,0.386,26.489,16.846,-5.798
1.073,-0.455,0.343,21.729,15.320,5.432
1.056,-0.442,0.355,18.066,18.555,14.343
1.063,-0.609,0.375,16.418,21.057,23.010
1.131,-0.533,0.330,10.986,15.930,17.883
1.093,-0.459,0.325,12.695,15.503,17.212
0.919,-0.455,0.281,20.447,18.799,19.714
0.933,-0.411,0.285,33.142,28.198,21.362
0.953,-0.460,0.281,51.208,41.382,21.729
1.006,-0.459,0.285,69.519,50.598,17.639
0.848,-0.417,0.255,85.999,58.228,17.944
0.838,-0.422,0.273,101.624,71.289,29.846
1.114,-0.553,0.286,113.037,82.825,41.443
1.120,-0.483,0.332,119.812,83.740,42.053
1.131,-0.485,0.319,127.441,75.500,47.058
1.143,-0.442,0.297,135.620,62.683,53.589
1.133,-0.426,0.281,146.545,49.377,62.439
1.121,-0.458,0.280,159.363,33.142,71.045
1.164,-0.486,0.273,171.509,13.733,76.660
1.097,-0.480,0.232,183.838,-5.493,84.045
1.048,-0.558,0.200,196.411,-21.545,95.276
1.025,-0.619,0.153,206.116,-34.180,101.868
0.997,-0.676,0.092,212.708,-45.776,101.440
0.913,-0.687,-0.003,217.590,-51.331,100.769
0.819,-0.725,-0.065,221.252,-47.119,99.426
0.732,-0.741,-0.101,221.069,-36.194,91.370
0.666,-0.693,-0.107,216.919,-19.897,79.529
0.701,-0.605,-0.091,209.412,-2.014,70.007
0.770,-0.484,-0.102,199.646,12.451,60.608
0.796,-0.359,-0.104,191.345,21.423,52.185
0.829,-0.336,-0.103,187.256,25.879,48.523
0.879,-0.391,-0.094,184.204,24.963,43.640
0.897,-0.390,-0.079,178.162,20.447,35.095
0.915,-0.353,-0.072,170.593,13.367,28.198
0.941,-0.303,-0.094,162.964,4.028,23.376
0.874,-0.230,-0.128,156.860,-4.333,20.020
0.796,-0.165,-0.169,153.625,-7.324,19.958
0.779,-0.149,-0.185,150.818,-4.761,21.057
0.771,-0.136,-0.174,144.775,2.014,20.569
0.757,-0.100,-0.142,135.742,10.925,18.494
0.717,-0.044,-0.101,124.023,19.958,15.442
0.661,-0.009,-0.087,108.948,30.029,12.268
0.662,-0.015,-0.123,91.370,40.527,9.338
0.722,-0.007,-0.170,72.510,51.208,4.272
0.771,0.020,-0.221,53.589,62.073,-2.014
0.786,0.092,-0.243,36.499,73.059,-7.751
0.776,0.183,-0.250,23.315,83.008,-10.254
0.782,0.243,-0.260,13.367,90.637,-8.301
0.769,0.294,-0.267,5.005,98.083,-4.578
0.710,0.332,-0.268,-1.831,107.788,0.305
0.682,0.336,-0.272,-9.460,120.361,7.874
0.722,0.316,-0.290,-19.043,134.155,13.000
0.791,0.303,-0.299,-31.250,148.071,14.832
0.861,0.307,-0.315,-45.837,158.936,14.221
0.930,0.322,-0.337,-60.242,164.001,12.512
1.018,0.346,-0.368,-73.364,162.476,10.620
1.093,0.378,-0.397,-85.815,156.067,7.996
1.124,0.415,-0.432,-97.229,146.423,5.249
1.127,0.458,-0.464,-106.262,134.949,3.784
1.132,0.479,-0.494,-112.305,122.314,3.723
1.140,0.482,-0.513,-115.662,109.680,3.845
1.147,0.495,-0.510,-117.310,96.191,4.089
1.146,0.495,-0.495,-115.967,81.421,4.517
1.125,0.471,-0.495,-112.671,65.125,4.089
1.096,0.449,-0.515,-109.192,49.866,1.587
1.063,0.437,-0.545,-106.445,38.818,-3.113
1.027,0.436,-0.554,-104.248,32.471,-9.644
0.991,0.436,-0.535,-103.027,30.701,-17.212
0.939,0.430,-0.526,-103.027,31.921,-25.635
0.893,0.430,-0.538,-105.164,36.499,-33.997
0.878,0.422,-0.550,-108.154,43.701,-39.856
0.895,0.414,-0.602,-111.633,51.208,-44.006
0.917,0.403,-0.623,-116.638,59.021,-46.021
0.918,0.388,-0.615,-122.864,65.125,-44.312
0.876,0.369,-0.643,-131.226,69.336,-41.504
0.800,0.315,-0.671,-143.921,77.087,-40.100
0.725,0.252,-0.674,-163.757,91.003,-41.504
0.691,0.198,-0.673,-187.988,107.361,-45.776
0.693,0.130,-0.662,-213.501,121.521,-52.124
0.716,0.048,-0.668,-237.549,130.798,-60.425

0.960,0.409,-1.549,-214.111,109.314,-78.491
0.932,0.511,-1.550,-155.273,115.173,-85.693
0.883,0.443,-1.469,-90.149,119.324,-94.788
0.839,0.256,-1.350,-28.381,117.432,-105.835
0.796,-0.039,-1.152,17.151,110.718,-115.906
0.691,-0.405,-0.983,39.185,102.539,-119.263
0.583,-0.704,-0.844,33.203,102.112,-115.540
0.588,-0.876,-0.807,6.775,105.957,-106.201
0.709,-0.878,-0.848,-27.161,107.239,-93.872
0.827,-0.769,-0.868,-57.617,103.149,-80.750
0.873,-0.660,-0.848,-73.975,91.309,-67.627
0.863,-0.607,-0.817,-73.059,73.181,-53.833
0.818,-0.559,-0.727,-61.890,54.871,-36.621
0.744,-0.520,-0.597,-48.401,40.100,-14.893
0.714,-0.528,-0.449,-39.551,32.410,12.146
0.707,-0.568,-0.231,-41.626,30.273,46.936
1.510,0.834,1.789,-66.406,38.757,86.487
1.965,2.259,3.117,-101.990,91.370,92.407
0.775,-1.219,0.545,-55.603,115.051,41.687
0.404,-2.500,0.036,-156.555,95.154,69.214
-0.009,-1.920,0.037,-246.460,76.477,133.606
0.376,-1.309,0.180,-266.541,45.532,127.197
0.231,-1.342,0.308,-233.398,-4.578,112.305
-0.301,-1.473,0.165,-181.763,-46.143,98.450
-0.485,-1.450,0.022,-135.986,-53.406,65.369
-0.311,-1.164,0.250,-99.121,-36.316,22.705
-0.224,-1.022,0.327,-54.810,-26.611,-25.879
-0.184,-1.312,0.306,0.305,-19.958,-73.914
-0.147,-1.873,0.508,38.330,1.587,-107.971
0.038,-2.186,0.706,42.175,38.696,-119.934
0.451,-2.143,0.797,24.597,73.120,-117.920
0.861,-2.013,0.754,4.150,94.116,-107.971
1.062,-1.909,0.624,-18.005,95.154,-91.858
1.086,-1.692,0.472,-39.856,78.491,-70.923
1.025,-1.474,0.310,-53.467,48.645,-43.396
0.859,-1.269,0.096,-58.350,11.841,-11.047
0.708,-1.065,-0.100,-52.368,-23.071,18.433
0.633,-0.915,-0.263,-36.316,-51.025,41.199
0.601,-0.844,-0.390,-15.015,-71.289,57.007
0.549,-0.790,-0.468,10.376,-82.947,63.904
0.445,-0.741,-0.501,40.833,-86.731,62.561
0.315,-0.732,-0.520,75.684,-81.299,54.871
0.256,-0.770,-0.506,111.755,-66.467,43.518
0.234,-0.855,-0.412,142.029,-46.387,32.349
0.257,-0.988,-0.247,163.757,-28.381,21.729
0.335,-1.109,-0.077,176.147,-18.677,12.268
0.409,-1.172,0.021,179.565,-18.738,4.639
0.433,-1.202,0.066,174.866,-24.475,-0.122
0.423,-1.223,0.063,163.757,-31.433,-2.197
0.411,-1.230,0.035,147.644,-36.072,-5.005
0.397,-1.158,0.010,128.967,-37.292,-10.925
0.370,-1.007,-0.006,114.075,-35.583,-17.029
0.343,-0.896,-0.038,109.131,-32.227,-21.606
0.309,-0.880,-0.087,112.366,-27.466,-25.208
0.286,-0.924,-0.143,119.263,-20.813,-28.687
0.266,-0.981,-0.190,125.122,-14.832,-30.884
0.265,-1.007,-0.243,130.249,-10.193,-31.677
0.286,-1.050,-0.295,136.414,-6.104,-30.334
0.299,-1.106,-0.312,141.541,-0.183,-27.649
0.335,-1.149,-0.291,143.860,7.996,-26.001
0.403,-1.140,-0.252,145.203,12.878,-25.391
0.462,-1.052,-0.228,148.315,9.888,-23.682
0.488,-0.946,-0.223,153.931,0.549,-18.799
0.488,-0.875,-0.258,162.354,-12.390,-10.193
0.483,-0.858,-0.306,172.485,-26.489,0.488
0.471,-0.864,-0.352,182.190,-39.001,13.794
0.455,-0.854,-0.405,190.674,-49.927,28.381
0.459,-0.818,-0.460,198.425,-59.143,42.114
0.464,-0.778,-0.503,205.933,-65.125,55.298
0.488,-0.755,-0.521,213.379,-68.970,67.993
0.526,-0.727,-0.530,220.276,-73.608,80.322
0.566,-0.669,-0.537,226.685,-80.078,91.797
0.609,-0.627,-0.527,232.971,-88.623,102.966
0.634,-0.673,-0.519,237.427,-100.159,112.122
0.602,-0.744,-0.581,238.831,-113.281,116.638
0.517,-0.783,-0.645,237.366,-123.169,116.638
0.467,-0.857,-0.747,232.483,-126.526,114.075
0.431,-0.875,-0.826,221.375,-120.972,105.713
0.374,-0.742,-0.828,203.918,-105.347,93.750
0.320,-0.578,-0.806,190.063,-86.670,84.229
0.300,-0.492,-0.781,180.359,-66.223,76.172
0.312,-0.433,-0.740,170.776,-44.617,68.115
0.347,-0.360,-0.698,160.156,-24.048,58.899
0.381,-0.307,-0.654,149.658,-8.423,49.561
0.406,-0.263,-0.672,138.367,1.953,41.077
0.396,-0.240,-0.732,126.343,11.414,32.227
0.407,-0.232,-0.749,112.549,23.315,24.719
0.453,-0.208,-0.727,94.788,35.400,18.738
0.501,-0.125,-0.718,73.547,43.579,12.939
0.559,-0.019,-0.705,54.993,46.204,9.521
0.606,0.045,-0.665,39.795,42.969,10.742
0.623,0.079,-0.672,25.818,34.912,14.709
0.583,0.088,-0.730,11.902,25.085,17.700
0.548,0.082,-0.766,-2.747,18.494,20.264
0.545,0.094,-0.778,-19.104,15.930,22.217
0.555,0.104,-0.811,-34.912,13.916,22.766
0.561,0.123,-0.859,-50.415,12.634,21.790
0.593,0.144,-0.878,-64.270,12.817,21.423
0.633,0.173,-0.887,-75.562,11.230,23.499
0.645,0.208,-0.886,-83.740,7.324,26.245
0.639,0.248,-0.853,-88.867,2.014,29.724
0.634,0.267,-0.839,-91.431,-4.944,32.776
0.596,0.271,-0.850,-92.773,-13.184,32.715
0.556,0.281,-0.865,-92.896,-19.226,30.579
0.520,0.270,-0.861,-89.539,-24.109,28.625
0.499,0.266,-0.864,-84.534,-27.039,26.428
0.475,0.266,-0.902,-79.224,-27.954,21.606
0.450,0.270,-0.949,-73.853,-25.391,14.893
0.438,0.272,-0.968,-67.322,-19.226,9.460
0.460,0.306,-0.962,-60.120,-10.071,7.141
0.496,0.339,-0.934,-51.819,-1.404,6.775
0.525,0.344,-0.895,-43.274,5.066,7.690
0.531,0.336,-0.876,-35.400,7.935,7.812
0.547,0.322,-0.825,-28.259,8.972,7.202
0.560,0.314,-0.793,-23.804,7.141,5.249
0.565,0.307,-0.799,-20.447,2.319,1.404
0.596,0.297,-0.804,-16.724,-3.540,-1.526
0.613,0.282,-0.802,-13.733,-11.169,-3.174
0.608,0.264,-0.824,-12.573,-18.799,-5.310

1.524,1.297,2.352,-166.016,75.745,-77.393
0.714,-1.639,1.610,-154.541,44.983,-44.739
0.600,-2.765,1.057,-199.585,4.272,18.433
0.603,-2.319,1.036,-253.235,-6.775,85.022
0.600,-2.132,1.253,-290.039,-30.823,118.774
0.511,-1.982,1.295,-274.170,-87.280,130.066
0.238,-2.050,1.112,-231.201,-140.503,132.690
0.094,-2.230,0.935,-189.026,-158.875,120.544
0.207,-2.212,0.795,-149.597,-153.137,89.294
0.464,-2.060,0.613,-107.483,-129.456,45.471
0.504,-1.959,0.367,-64.148,-90.027,-3.479
0.349,-1.848,0.240,-30.579,-34.668,-52.490
0.262,-1.750,0.105,-8.606,25.574,-87.646
0.337,-1.684,0.160,4.150,77.209,-101.074
0.594,-1.595,0.282,5.554,104.370,-95.276
0.842,-1.406,0.248,1.038,94.177,-77.698
0.952,-1.188,0.119,-1.465,58.716,-57.739
0.930,-0.984,-0.005,-0.671,16.968,-35.217
0.808,-0.809,-0.075,2.502,-16.174,-12.268
0.678,-0.654,-0.128,7.935,-37.048,7.935
0.587,-0.552,-0.162,16.846,-45.044,26.245
0.563,-0.542,-0.165,28.931,-44.067,42.114
0.564,-0.567,-0.142,42.297,-40.894,54.871
0.558,-0.589,-0.096,55.969,-39.001,63.660
0.555,-0.623,-0.043,68.359,-38.452,68.542
0.539,-0.676,-0.018,79.407,-38.635,69.214
0.498,-0.728,0.006,89.050,-36.926,64.636
0.452,-0.770,0.020,97.900,-32.410,55.359
0.419,-0.818,0.018,106.812,-25.391,43.640
0.409,-0.838,0.003,117.126,-16.235,30.029
0.416,-0.842,-0.036,128.296,-7.507,15.808
0.439,-0.857,-0.103,142.151,-1.343,1.892
0.461,-0.894,-0.181,158.020,2.258,-10.925
0.472,-0.950,-0.256,174.927,4.211,-24.170
0.460,-0.989,-0.313,192.261,6.042,-38.208
0.433,-0.994,-0.340,211.182,10.010,-51.514
0.391,-1.001,-0.353,232.971,17.090,-61.462
0.346,-1.026,-0.356,257.507,27.344,-67.566
0.336,-1.089,-0.364,282.410,38.879,-68.665
0.356,-1.188,-0.383,304.260,48.950,-65.308
0.400,-1.265,-0.382,319.580,57.617,-60.120
0.452,-1.328,-0.375,327.454,64.392,-53.772
0.500,-1.381,-0.393,327.515,68.115,-46.692
0.546,-1.407,-0.410,320.740,67.322,-39.246
0.604,-1.366,-0.411,307.800,62.134,-30.151
0.665,-1.251,-0.407,292.419,50.354,-17.639
0.727,-1.123,-0.398,277.832,30.945,-0.916
0.777,-1.039,-0.403,263.916,5.188,19.409
0.789,-1.033,-0.445,250.977,-26.062,41.809
0.766,-1.049,-0.500,237.183,-59.692,64.148
0.728,-1.035,-0.559,222.351,-90.332,83.191
0.690,-0.994,-0.603,207.458,-114.929,96.802
0.644,-0.938,-0.639,195.496,-134.521,106.201
0.565,-0.850,-0.646,186.829,-148.987,112.061
0.553,-0.834,-0.729,181.885,-157.410,113.159
0.447,-0.721,-0.701,174.316,-153.137,104.370
0.362,-0.524,-0.714,166.748,-142.151,91.492
0.277,-0.343,-0.624,166.077,-123.535,80.933
0.277,-0.300,-0.713,168.579,-106.384,70.740
0.307,-0.291,-0.762,170.837,-83.618,59.021
0.309,-0.281,-0.743,171.875,-55.725,50.903
0.298,-0.324,-0.827,172.424,-31.128,46.448
0.310,-0.366,-0.908,167.969,-3.845,41.382
0.357,-0.254,-0.853,159.119,28.748,36.377
0.447,-0.131,-0.802,154.724,53.711,37.170
0.524,-0.056,-0.730,153.076,69.519,40.344
0.580,-0.029,-0.689,150.269,77.148,41.931
0.603,-0.045,-0.685,144.714,74.829,41.260
0.607,-0.043,-0.685,136.353,67.444,37.903
0.601,-0.025,-0.711,126.770,57.495,33.142
0.608,-0.006,-0.752,115.662,45.593,27.954
0.623,0.011,-0.760,101.135,33.875,24.170
0.625,0.072,-0.744,83.801,21.912,21.667
0.601,0.150,-0.725,65.979,8.911,20.325
0.570,0.209,-0.703,50.293,-3.418,19.592
0.524,0.223,-0.723,36.194,-14.587,18.921
0.478,0.223,-0.770,22.583,-22.949,17.395
0.442,0.261,-0.786,9.521,-25.574,15.930
0.428,0.329,-0.751,0.854,-23.743,14.832
0.405,0.364,-0.747,-3.357,-21.301,14.099
0.376,0.373,-0.743,-5.371,-17.151,12.695
0.355,0.378,-0.725,-7.202,-10.437,10.864
0.332,0.382,-0.724,-9.460,-2.625,8.789
0.330,0.395,-0.723,-14.099,7.141,7.080
0.354,0.415,-0.714,-19.531,17.212,6.470
0.394,0.430,-0.714,-24.658,24.475,7.141
0.426,0.435,-0.737,-28.625,27.893,8.484
0.454,0.452,-0.751,-30.334,28.748,10.315
0.457,0.458,-0.744,-28.625,27.832,12.329
0.446,0.467,-0.755,-26.611,26.062,13.000
0.430,0.471,-0.759,-25.696,25.085,11.780
0.419,0.468,-0.764,-25.635,24.963,10.376
0.419,0.472,-0.778,-26.489,24.902,8.972
0.444,0.487,-0.782,-27.771,24.780,7.751
0.461,0.492,-0.764,-28.381,23.804,7.751
0.465,0.487,-0.764,-29.175,21.240,8.240
0.464,0.486,-0.780,-30.151,18.738,8.118
0.455,0.486,-0.788,-31.311,17.273,8.301
0.446,0.494,-0.799,-32.837,17.273,9.033
0.439,0.502,-0.818,-33.325,18.494,10.803
0.443,0.517,-0.820,-32.288,21.118,14.526
0.412,0.509,-0.827,-30.518,24.963,17.639
0.400,0.502,-0.820,-28.625,30.579,21.423
0.401,0.476,-0.809,-26.245,36.560,24.536
0.400,0.437,-0.819,-25.208,41.809,25.940
0.426,0.409,-0.848,-25.330,46.082,26.184
0.483,0.390,-0.865,-24.780,47.180,26.550
0.534,0.360,-0.890,-23.865,44.373,26.489
0.583,0.346,-0.924,-24.231,37.964,24.902
0.627,0.349,-0.948,-24.902,27.893,21.912
0.659,0.359,-0.954,-24.597,15.320,18.494
0.691,0.391,-0.974,-21.851,1.892,13.794
0.651,0.429,-0.936,-15.015,-9.033,8.606
0.581,0.418,-0.943,-6.836,-20.508,4.395
0.570,0.427,-0.965,-0.427,-30.151,-0.122
0.534,0.390,-0.952,7.507,-32.410,-2.258
0.496,0.339,-0.942,13.245,-31.311,-4.211
0.477,0.315,-0.935,16.357,-28.259,-6.531
0.481,0.308,-0.946,17.883,-21.851,-7.202

0.370,-2.752,0.825,-157.959,-32.959,-42.175
0.033,-1.943,0.901,-201.599,-29.297,-73.914
0.117,-1.538,1.026,-213.074,-28.503,-90.332
0.350,-1.598,1.081,-186.584,-34.058,-89.233
0.414,-1.623,1.120,-161.621,-41.138,-78.918
0.389,-1.709,0.997,-138.245,-35.156,-70.190
0.501,-1.815,0.774,-113.708,-17.761,-65.674
0.692,-1.885,0.552,-92.468,3.601,-63.232
0.828,-1.811,0.392,-81.238,19.104,-60.303
0.849,-1.602,0.138,-77.454,17.029,-54.504
0.824,-1.340,-0.110,-71.167,0.916,-45.715
0.819,-0.866,-0.177,-61.951,-21.240,-34.851
0.787,-0.049,0.057,-45.776,-49.316,-18.372
0.626,0.389,0.329,-17.456,-74.524,4.028
0.500,-0.677,0.033,20.386,-95.215,29.602
0.415,-1.404,-0.250,37.598,-94.666,40.894
0.433,-1.203,-0.257,25.513,-59.143,33.142
0.484,-0.865,-0.173,16.418,-17.822,16.968
0.471,-0.776,-0.096,23.499,4.089,9.766
0.485,-0.723,-0.064,39.429,7.080,5.310
0.479,-0.717,-0.081,57.739,1.343,2.014
0.465,-0.760,-0.107,75.623,-4.578,0.366
0.485,-0.777,-0.127,90.942,-8.789,-1.526
0.503,-0.756,-0.153,104.492,-11.475,-5.188
0.550,-0.760,-0.162,118.164,-12.268,-10.803
0.587,-0.782,-0.160,132.019,-12.756,-15.564
0.580,-0.833,-0.193,146.057,-10.742,-15.503
0.570,-0.841,-0.240,158.630,-4.639,-13.000
0.593,-0.837,-0.290,171.021,4.700,-10.315
0.646,-0.891,-0.328,186.401,15.747,-8.850
0.675,-0.960,-0.329,201.660,24.719,-10.559
0.675,-1.033,-0.351,215.881,28.687,-13.550
0.645,-1.090,-0.343,227.966,32.043,-15.808
0.597,-1.141,-0.336,237.793,34.058,-16.357
0.564,-1.216,-0.350,246.887,34.363,-15.564
0.543,-1.351,-0.404,254.578,35.034,-14.709
0.500,-1.460,-0.445,255.554,37.659,-16.357
0.463,-1.411,-0.417,249.023,40.894,-19.897
0.460,-1.346,-0.427,243.530,39.917,-20.081
0.438,-1.363,-0.470,241.150,37.598,-17.212
0.442,-1.351,-0.491,235.596,37.903,-13.733
0.499,-1.268,-0.469,227.600,39.429,-9.583
0.579,-1.167,-0.457,221.619,37.720,-3.601
0.631,-1.077,-0.475,220.093,30.823,4.944
0.654,-0.957,-0.471,221.619,19.653,16.479
0.654,-0.876,-0.484,225.281,3.479,31.067
0.650,-0.844,-0.512,228.699,-15.442,46.204
0.628,-0.779,-0.497,229.187,-35.034,60.059
0.625,-0.682,-0.465,227.966,-56.458,72.388
0.620,-0.755,-0.607,226.562,-76.843,80.627
0.487,-0.803,-0.643,217.896,-85.815,80.933
0.441,-0.775,-0.703,201.538,-89.050,77.209
0.379,-0.695,-0.708,185.974,-83.374,74.524
0.368,-0.778,-0.870,171.143,-78.796,69.092
0.384,-0.624,-0.838,150.024,-62.683,53.284
0.395,-0.329,-0.644,135.254,-42.175,43.884
0.438,-0.234,-0.702,133.606,-33.691,42.603
0.462,-0.256,-0.704,131.653,-25.146,38.086
0.491,-0.185,-0.622,124.329,-16.235,30.334
0.477,-0.160,-0.657,118.591,-11.902,24.353
0.482,-0.210,-0.775,113.342,-8.240,17.944
0.530,-0.182,-0.796,105.469,0.183,13.489
0.571,-0.151,-0.790,98.755,7.629,13.245
0.604,-0.122,-0.774,90.881,13.062,13.672
0.636,-0.069,-0.736,82.947,16.541,16.235
0.660,-0.023,-0.677,76.355,16.296,20.203
0.667,-0.019,-0.612,71.655,9.399,24.048
0.668,-0.054,-0.628,66.711,-2.258,27.039
0.652,-0.046,-0.660,59.631,-11.963,28.320
0.620,0.001,-0.657,52.551,-17.334,29.724
0.587,0.035,-0.658,47.424,-22.034,31.494
0.568,0.027,-0.662,42.480,-26.550,33.569
0.557,0.029,-0.661,36.499,-30.151,33.691
0.554,0.049,-0.683,28.687,-33.203,32.288
0.534,0.080,-0.706,21.057,-34.729,29.968
0.525,0.142,-0.716,14.526,-33.936,28.259
0.511,0.184,-0.706,10.742,-31.982,29.480
0.494,0.210,-0.717,7.507,-28.625,31.433
0.451,0.207,-0.756,5.188,-23.132,32.288
0.410,0.207,-0.776,2.686,-12.939,33.081
0.401,0.241,-0.760,-0.427,1.587,34.241
0.393,0.274,-0.744,-3.540,16.846,35.400
0.392,0.293,-0.735,-5.676,30.701,37.659
0.407,0.273,-0.734,-8.423,42.419,41.199
0.427,0.260,-0.732,-13.611,51.697,43.640
0.430,0.274,-0.732,-20.996,59.631,44.678
0.424,0.303,-0.731,-28.625,65.613,44.861
0.415,0.309,-0.739,-35.095,69.763,44.983
0.412,0.297,-0.735,-41.931,72.937,46.387
0.402,0.301,-0.725,-49.255,75.500,48.340
0.364,0.301,-0.725,-56.091,77.087,50.598
0.314,0.295,-0.736,-64.209,79.407,52.429
0.262,0.273,-0.747,-72.571,83.252,53.345
0.207,0.240,-0.787,-81.604,87.769,51.392
0.137,0.231,-0.872,-91.492,94.421,44.250
0.104,0.259,-0.927,-99.121,105.835,33.936
0.141,0.297,-0.981,-103.516,118.774,25.085
0.204,0.322,-1.044,-105.164,127.991,19.470
0.256,0.349,-1.048,-103.699,133.057,18.188
0.285,0.390,-1.037,-97.229,133.484,18.799
0.293,0.399,-1.029,-86.731,129.944,19.165
0.308,0.372,-1.022,-76.050,124.756,18.677
0.314,0.343,-1.011,-67.383,117.188,18.127
0.310,0.317,-0.988,-60.608,106.750,17.334
0.297,0.259,-0.991,-55.298,93.506,15.991
0.287,0.186,-1.041,-52.856,79.834,13.367
0.287,0.142,-1.114,-53.894,67.627,10.681
0.284,0.126,-1.180,-56.885,56.580,9.399
0.274,0.125,-1.254,-59.814,47.791,8.850
0.243,0.133,-1.310,-61.523,42.358,8.789
0.224,0.151,-1.330,-59.998,40.833,8.850
0.233,0.166,-1.318,-54.565,40.588,7.324
0.254,0.158,-1.290,-46.875,39.185,4.272
0.289,0.146,-1.248,-36.865,34.485,0.732
0.315,0.132,-1.217,-27.344,24.963,-3.174
0.327,0.117,-1.198,-19.165,12.146,-7.935
0.337,0.109,-1.183,-12.878,-2.136,-12.817
0.339,0.104,-1.180,-8.362,-17.334,-16.907
0.346,0.107,-1.167,-6.104,-32.043,-18.799

0.201,0.784,-1.617,-147.766,-62.744,-76.172
0.143,0.754,-1.551,-88.196,-51.453,-70.068
0.131,0.533,-1.370,-31.433,-35.034,-61.401
0.162,0.127,-1.080,7.263,-11.902,-53.833
0.169,-0.387,-0.801,16.541,17.517,-49.866
0.354,-0.734,-0.683,-5.066,47.974,-46.875
0.632,-0.794,-0.651,-42.847,58.533,-42.053
0.676,-0.629,-0.695,-78.979,43.457,-37.292
0.561,-0.475,-0.740,-100.647,21.362,-34.424
0.560,-0.355,-0.693,-104.065,7.324,-34.546
0.602,-0.294,-0.533,-93.994,-1.221,-32.471
0.558,-0.372,-0.338,-82.214,-10.620,-22.339
0.513,-0.544,-0.076,-81.848,-16.724,-3.540
0.489,-0.657,0.145,-95.093,-21.606,20.508
0.476,-0.717,0.311,-113.831,-30.396,44.373
0.542,-0.829,0.554,-130.554,-43.274,62.561
0.465,-0.990,0.804,-145.020,-61.279,70.740
0.163,-0.010,1.405,-147.400,-73.120,61.584
0.094,0.703,2.237,-134.521,-59.509,36.133
0.492,-1.615,1.908,-94.910,-69.153,18.372
0.579,-3.155,1.754,-91.003,-94.604,-11.230
0.221,-3.483,1.765,-138.733,-89.966,-40.039
0.143,-3.104,1.593,-191.040,-62.927,-67.993
0.444,-2.770,1.104,-216.797,-34.302,-87.219
0.630,-2.382,0.526,-218.262,-1.526,-103.088
0.606,-2.020,0.039,-210.083,35.095,-114.685
0.592,-1.714,-0.279,-196.655,62.378,-109.924
0.717,-1.392,-0.546,-175.476,64.209,-89.539
1.069,-1.093,-0.701,-142.395,40.222,-66.895
1.175,-0.843,-0.829,-102.051,1.343,-52.307
0.958,-0.516,-0.856,-54.565,-31.128,-38.513
0.723,-0.296,-0.743,-1.221,-45.471,-13.550
0.624,-0.307,-0.612,51.941,-46.753,17.883
0.604,-0.414,-0.453,96.130,-40.588,45.898
0.651,-0.546,-0.234,127.991,-30.823,66.040
0.711,-0.669,-0.057,149.536,-25.391,75.684
0.705,-0.729,0.037,161.926,-28.503,77.759
0.590,-0.705,0.117,168.579,-36.987,76.904
0.528,-0.806,0.168,173.157,-45.471,74.463
0.490,-0.860,0.102,172.546,-52.246,63.904
0.413,-0.807,0.117,171.692,-51.880,47.607
0.371,-0.765,0.059,176.208,-51.331,30.090
0.362,-0.780,-0.047,188.110,-49.072,15.076
0.337,-0.794,-0.149,202.576,-43.091,4.028
0.294,-0.724,-0.224,220.215,-35.217,-3.052
0.327,-0.800,-0.340,244.324,-25.940,-6.775
0.410,-0.936,-0.402,265.442,-13.916,-14.648
0.462,-0.998,-0.403,278.748,-6.653,-24.292
0.495,-1.042,-0.390,289.124,-4.272,-30.151
0.520,-1.200,-0.439,299.011,-2.014,-32.654
0.485,-1.302,-0.463,300.659,3.601,-36.499
0.447,-1.287,-0.412,297.302,10.498,-36.682
0.465,-1.298,-0.438,297.852,12.451,-32.349
0.518,-1.371,-0.493,299.072,15.503,-27.283
0.557,-1.314,-0.465,295.959,19.592,-23.071
0.572,-1.222,-0.465,291.382,18.555,-13.672
0.589,-1.172,-0.494,286.926,12.146,1.038
0.625,-1.078,-0.465,279.053,0.977,18.860
0.674,-0.973,-0.483,270.691,-16.418,42.053
0.696,-0.995,-0.594,262.573,-35.278,66.101
0.407,-0.693,-0.299,250.366,-51.636,83.435
0.824,-0.976,-0.970,247.803,-82.153,108.826
0.562,-0.841,-0.732,231.689,-76.477,105.347
0.431,-0.552,-0.829,209.961,-76.843,93.628
0.339,-0.427,-0.781,210.205,-70.007,91.431
0.319,-0.508,-0.787,208.923,-60.669,81.055
0.419,-0.523,-0.818,200.012,-55.054,61.157
0.462,-0.479,-0.884,190.186,-40.894,45.227
0.417,-0.396,-0.912,180.908,-22.949,36.743
0.459,-0.260,-0.867,173.157,-7.507,35.278
0.499,-0.203,-0.871,167.053,3.418,40.161
0.529,-0.106,-0.791,158.875,11.780,42.114
0.532,-0.050,-0.807,151.978,14.343,42.847
0.525,0.043,-0.808,148.010,15.381,43.213
0.475,0.076,-0.800,146.423,19.470,46.021
0.407,0.056,-0.844,143.921,22.095,46.753
0.456,0.070,-0.905,138.550,28.320,43.762
0.433,0.023,-0.938,132.446,40.588,44.067
0.388,0.014,-0.874,123.718,48.523,42.603
0.407,0.027,-0.849,112.854,50.354,38.086
0.483,0.088,-0.833,101.990,50.232,33.386
0.508,0.147,-0.776,92.834,49.622,29.724
0.512,0.214,-0.770,85.144,43.823,26.184
0.543,0.240,-0.767,80.078,34.424,23.804
0.581,0.249,-0.741,75.195,23.071,23.499
0.585,0.264,-0.713,69.336,9.827,22.339
0.558,0.264,-0.720,63.477,-2.747,19.348
0.519,0.268,-0.747,56.396,-13.367,16.113
0.490,0.285,-0.746,48.767,-19.226,13.977
0.443,0.301,-0.725,41.687,-22.095,11.597
0.407,0.315,-0.722,34.058,-24.109,8.789
0.421,0.344,-0.710,26.489,-25.330,6.470
0.410,0.324,-0.744,19.531,-25.269,6.348
0.361,0.324,-0.738,11.169,-22.644,6.104
0.368,0.362,-0.742,1.526,-18.494,5.493
0.380,0.400,-0.723,-6.836,-15.137,4.883
0.373,0.426,-0.684,-12.390,-12.024,4.333
0.363,0.432,-0.673,-15.686,-10.986,3.662
0.354,0.416,-0.686,-18.188,-11.230,2.808
0.354,0.410,-0.665,-20.813,-9.644,1.831
0.356,0.411,-0.649,-24.902,-6.836,-0.366
0.360,0.399,-0.660,-30.029,-5.676,-3.784
0.387,0.401,-0.677,-35.950,-4.944,-8.057
0.423,0.417,-0.690,-40.894,-4.272,-11.108
0.452,0.437,-0.693,-43.762,-4.333,-12.939
0.466,0.445,-0.672,-44.189,-6.531,-13.428
0.467,0.453,-0.657,-43.518,-10.132,-13.245
0.458,0.455,-0.651,-43.274,-13.672,-13.977
0.458,0.455,-0.664,-43.762,-16.479,-15.198
0.464,0.454,-0.697,-44.556,-18.433,-16.296
0.482,0.461,-0.706,-45.593,-18.188,-17.212
0.494,0.469,-0.720,-47.058,-16.479,-18.066
0.497,0.481,-0.724,-48.889,-13.672,-19.409
0.510,0.492,-0.716,-50.537,-10.437,-20.142
0.534,0.494,-0.703,-51.331,-8.301,-19.958
0.557,0.490,-0.699,-51.758,-7.263,-20.081
0.584,0.483,-0.691,-51.697,-7.324,-20.142
0.601,0.484,-0.721,-52.368,-8.606,-19.775
0.609,0.481,-0.766,-52.979,-9.399,-18.616

0.693,0.931,-1.895,-451.355,90.454,-72.266
0.701,1.481,-2.145,-396.301,115.479,-88.440
0.765,2.005,-2.215,-320.923,124.634,-90.210
0.781,2.333,-2.045,-220.398,111.450,-80.994
0.714,2.245,-1.726,-92.041,77.271,-65.063
0.476,1.512,-1.374,43.640,36.438,-46.082
0.235,0.679,-0.881,129.211,5.554,-34.912
0.091,-0.208,-0.204,139.160,-2.625,-27.771
0.089,-0.774,0.207,83.496,4.944,-17.273
0.276,-0.789,0.275,-3.174,3.174,-6.287
0.453,-0.501,0.304,-82.581,-5.432,5.798
0.517,-0.310,0.417,-136.658,-16.357,17.822
0.558,-0.260,0.564,-161.682,-33.752,21.912
0.571,-0.311,0.638,-157.593,-56.335,12.573
0.494,-0.371,0.642,-129.150,-73.730,-6.470
0.388,-0.441,0.701,-85.815,-72.266,-28.992
0.337,-0.556,0.864,-33.447,-48.950,-49.500
0.350,-0.742,1.103,29.663,-16.174,-64.453
0.464,-1.149,1.254,108.643,15.381,-73.303
0.623,-1.908,1.295,189.697,40.100,-72.205
0.704,-3.096,1.463,249.390,60.425,-68.054
0.720,-4.000,1.608,260.986,83.923,-65.979
0.766,-4.000,1.404,203.796,108.032,-54.260
0.836,-4.000,0.930,73.120,121.216,-36.621
1.005,-3.986,0.349,-95.642,118.103,-33.142
1.110,-2.825,-0.277,-233.459,97.107,-42.847
1.089,-1.809,-0.716,-309.265,68.237,-44.312
0.976,-1.011,-0.909,-334.473,40.955,-34.302
0.906,-0.495,-0.979,-318.604,13.733,-20.203
0.976,-0.383,-0.981,-279.480,-17.334,-16.113
0.817,-0.009,-0.916,-235.535,-58.289,-23.560
0.623,0.316,-0.908,-171.082,-97.229,-12.268
0.555,0.351,-0.993,-90.149,-122.253,5.615
0.577,0.167,-1.034,-11.169,-131.531,20.508
0.556,-0.056,-0.955,53.345,-127.563,31.433
0.458,-0.187,-0.755,104.004,-112.854,39.612
0.443,-0.379,-0.552,148.193,-92.651,47.058
0.516,-0.619,-0.417,186.157,-75.073,50.293
0.568,-0.864,-0.352,212.585,-63.171,49.194
0.571,-1.046,-0.288,224.548,-53.467,44.250
0.578,-1.152,-0.242,225.281,-45.471,35.583
0.600,-1.172,-0.216,218.811,-40.161,25.696
0.624,-1.169,-0.222,209.534,-36.865,19.043
0.632,-1.178,-0.253,198.486,-35.950,12.512
0.588,-1.135,-0.289,186.890,-34.973,3.723
0.510,-1.063,-0.341,178.467,-30.823,-3.906
0.480,-1.052,-0.383,176.514,-21.179,-9.705
0.488,-1.048,-0.391,177.734,-6.226,-15.320
0.554,-1.010,-0.379,181.824,9.583,-19.287
0.584,-1.092,-0.527,191.162,23.010,-17.517
0.531,-1.445,-0.633,195.984,44.250,-18.311
0.492,-1.239,-0.464,181.946,67.322,-30.457
0.505,-1.214,-0.483,182.495,81.665,-26.184
0.561,-1.096,-0.356,184.814,93.567,-24.780
0.581,-1.003,-0.387,188.599,92.285,-17.700
0.701,-1.103,-0.463,196.777,83.313,-5.920
0.754,-1.155,-0.520,191.467,70.190,-5.920
0.682,-0.827,-0.442,183.289,55.420,-8.545
0.640,-0.546,-0.410,195.068,37.354,6.470
0.782,-0.734,-0.620,216.309,12.878,27.161
0.756,-0.679,-0.599,223.694,-3.784,33.325
0.644,-0.616,-0.605,230.164,-21.667,41.809
0.643,-0.614,-0.640,236.206,-38.879,47.119
0.648,-0.544,-0.695,238.586,-50.903,49.500
0.562,-0.509,-0.724,242.676,-56.152,55.176
0.499,-0.509,-0.742,245.300,-58.472,59.326
0.482,-0.518,-0.747,244.690,-58.838,60.486
0.500,-0.561,-0.760,239.868,-57.983,56.702
0.461,-0.476,-0.700,229.980,-55.420,47.058
0.434,-0.372,-0.707,219.299,-51.392,36.682
0.407,-0.287,-0.794,212.036,-44.983,27.405
0.350,-0.198,-0.737,207.642,-29.663,20.386
0.394,-0.206,-0.764,203.979,-19.287,17.883
0.463,-0.209,-0.720,195.557,-7.080,15.991
0.462,-0.222,-0.759,180.847,0.610,13.245
0.479,-0.111,-0.791,162.354,10.071,8.362
0.526,0.005,-0.776,147.888,20.203,10.620
0.558,0.065,-0.714,137.634,23.621,16.968
0.586,0.064,-0.688,128.967,21.606,20.569
0.622,0.104,-0.629,119.019,18.494,17.822
0.613,0.149,-0.599,108.337,14.160,14.648
0.619,0.116,-0.623,98.328,6.348,11.169
0.611,0.125,-0.604,85.754,0.488,1.831
0.634,0.121,-0.659,71.594,-7.996,-4.517
0.690,0.186,-0.700,55.237,-12.634,-9.705
0.683,0.263,-0.719,41.565,-15.808,-10.010
0.702,0.326,-0.717,30.212,-21.606,-5.859
0.675,0.368,-0.705,22.339,-29.114,-0.610
0.613,0.407,-0.686,18.066,-33.569,2.930
0.528,0.435,-0.672,16.602,-31.128,4.883
0.460,0.442,-0.667,16.663,-22.827,5.493
0.408,0.425,-0.661,14.893,-10.254,4.211
0.401,0.433,-0.666,9.155,3.540,1.953
0.442,0.468,-0.662,2.686,18.311,0.427
0.465,0.476,-0.611,-1.770,32.410,1.038
0.489,0.480,-0.568,-5.981,40.466,2.319
0.525,0.488,-0.560,-10.681,41.931,3.906
0.544,0.493,-0.570,-15.747,39.307,4.883
0.545,0.509,-0.586,-21.484,35.095,5.737
0.528,0.517,-0.605,-26.672,30.823,6.958
0.504,0.518,-0.643,-31.189,27.710,8.118
0.494,0.529,-0.672,-35.095,27.100,8.911
0.499,0.552,-0.665,-38.086,27.344,8.911
0.500,0.571,-0.675,-39.124,27.100,7.690
0.497,0.579,-0.699,-38.940,27.405,5.676
0.492,0.580,-0.703,-37.476,28.809,3.662
0.486,0.577,-0.704,-35.767,31.067,1.892
0.495,0.574,-0.704,-33.020,33.264,-0.305
0.519,0.566,-0.700,-29.785,34.668,-2.258
0.539,0.560,-0.694,-26.672,34.668,-3.357
0.551,0.549,-0.696,-24.231,33.508,-5.188
0.557,0.536,-0.715,-22.583,31.433,-7.690
0.577,0.530,-0.723,-22.095,29.297,-9.827
0.598,0.529,-0.722,-21.606,26.550,-11.047
0.602,0.521,-0.730,-21.057,22.583,-11.658
0.594,0.504,-0.731,-20.813,18.860,-11.902
0.579,0.480,-0.726,-21.057,16.296,-12.085
0.569,0.457,-0.733,-21.545,14.709,-12.878
0.576,0.429,-0.757,-22.217,14.099,-13.184

0.866,0.759,-1.719,-368.469,26.306,-91.431
0.870,1.139,-1.875,-323.975,31.921,-114.136
0.809,1.432,-1.968,-261.902,33.630,-129.333
0.720,1.562,-2.000,-184.631,32.410,-136.047
0.583,1.406,-1.875,-97.107,34.851,-135.254
0.562,0.939,-1.503,-17.639,50.781,-127.441
0.613,0.449,-1.062,26.489,70.374,-114.380
0.619,-0.050,-0.662,32.043,84.412,-98.938
0.647,-0.485,-0.359,5.493,95.337,-77.820
0.735,-0.660,-0.227,-39.673,91.980,-53.101
0.854,-0.725,-0.207,-83.130,71.350,-28.748
0.871,-0.733,-0.162,-113.586,41.992,-7.874
0.760,-0.625,-0.080,-126.709,10.742,6.042
0.687,-0.587,0.077,-121.216,-15.564,15.320
0.617,-0.707,0.237,-105.835,-35.034,23.010
0.496,-0.963,0.425,-89.355,-43.823,31.128
0.453,-1.360,0.698,-81.848,-37.170,38.452
0.603,-1.763,0.978,-84.106,-22.339,44.434
0.769,-1.910,1.176,-91.919,-13.184,50.964
0.769,-1.875,1.478,-94.421,-14.709,54.504
0.714,-1.524,1.883,-89.478,-19.958,51.941
0.700,-1.348,1.876,-76.416,-36.804,46.143
0.845,-2.190,1.523,-40.894,-65.063,41.321
0.733,-2.832,1.286,-26.978,-80.750,24.475
0.401,-2.880,0.959,-34.668,-73.853,-3.601
0.162,-2.594,0.646,-53.955,-45.654,-28.320
0.137,-2.217,0.310,-77.332,-5.737,-44.556
0.175,-1.762,0.029,-95.398,33.691,-51.514
0.245,-1.242,-0.169,-103.149,62.256,-52.734
0.361,-0.817,-0.363,-93.872,72.693,-44.128
0.599,-0.804,-0.546,-70.313,66.345,-28.320
0.756,-0.633,-0.515,-50.293,42.480,-24.597
0.739,-0.288,-0.430,-26.184,5.310,-24.048
0.680,-0.202,-0.403,17.212,-28.564,-12.634
0.647,-0.401,-0.445,63.538,-55.054,1.770
0.569,-0.513,-0.390,95.520,-70.068,11.902
0.511,-0.581,-0.292,118.286,-73.669,20.020
0.475,-0.655,-0.239,138.672,-72.449,27.405
0.518,-0.772,-0.216,157.776,-69.641,34.363
0.519,-0.841,-0.145,171.692,-67.505,36.804
0.493,-0.842,-0.114,183.044,-69.336,36.011
0.482,-0.915,-0.169,194.702,-68.542,34.424
0.433,-0.926,-0.205,201.904,-62.988,30.762
0.482,-0.970,-0.186,210.510,-53.528,29.724
0.519,-0.955,-0.258,216.125,-49.500,24.109
0.489,-1.031,-0.308,221.558,-41.809,16.541
0.474,-1.067,-0.290,223.755,-30.396,2.258
0.455,-1.094,-0.301,227.478,-20.752,-10.315
0.426,-1.114,-0.298,233.826,-10.437,-18.494
0.498,-1.145,-0.299,239.319,-3.235,-22.827
0.614,-1.292,-0.407,243.225,0.183,-25.452
0.603,-1.412,-0.478,238.647,4.883,-33.508
0.489,-1.314,-0.452,225.403,10.681,-43.030
0.421,-1.107,-0.381,216.858,17.273,-40.588
0.420,-0.790,-0.285,218.018,21.240,-25.085
0.704,-1.251,-0.605,225.586,19.836,0.732
0.775,-1.137,-0.442,204.712,23.010,-1.404
0.651,-0.824,-0.377,179.749,16.785,-2.014
0.629,-0.685,-0.381,178.162,9.033,13.245
0.656,-0.714,-0.486,177.063,-2.441,27.588
0.699,-0.666,-0.525,169.922,-14.343,34.790
0.665,-0.618,-0.554,163.574,-25.452,40.833
0.625,-0.682,-0.646,159.912,-36.316,45.837
0.613,-0.698,-0.707,151.733,-42.969,45.166
0.610,-0.615,-0.737,142.395,-45.837,43.274
0.589,-0.530,-0.710,137.146,-43.823,43.823
0.609,-0.471,-0.693,133.789,-42.969,43.823
0.653,-0.389,-0.697,130.310,-43.518,41.931
0.651,-0.315,-0.687,131.042,-42.114,41.687
0.628,-0.267,-0.643,134.949,-40.344,44.800
0.612,-0.322,-0.662,139.709,-41.565,48.950
0.565,-0.342,-0.671,140.808,-40.771,49.866
0.523,-0.296,-0.690,138.123,-36.011,48.828
0.523,-0.275,-0.706,133.179,-27.771,47.180
0.547,-0.266,-0.687,124.939,-18.005,43.457
0.578,-0.285,-0.703,114.502,-11.780,39.124
0.574,-0.306,-0.728,100.830,-7.263,33.936
0.576,-0.272,-0.725,84.778,-3.235,29.480
0.599,-0.208,-0.737,68.726,-1.404,26.733
0.635,-0.127,-0.745,54.749,-1.587,25.635
0.689,-0.047,-0.720,45.227,-4.517,27.832
0.739,-0.018,-0.666,39.612,-11.963,33.813
0.754,-0.018,-0.640,34.241,-26.123,40.161
0.716,-0.024,-0.661,28.625,-41.870,44.250
0.662,-0.015,-0.680,22.583,-53.284,46.021
0.623,0.007,-0.687,17.700,-59.814,46.692
0.581,0.017,-0.674,14.526,-62.622,46.265
0.552,0.013,-0.703,12.207,-64.636,43.945
0.552,0.017,-0.699,9.460,-64.392,42.053
0.563,0.055,-0.633,6.226,-61.707,41.565
0.591,0.110,-0.565,3.296,-62.561,42.908
0.623,0.128,-0.543,1.770,-69.092,46.692
0.675,0.096,-0.568,-0.061,-79.834,52.490
0.690,0.038,-0.581,-3.052,-93.689,56.885
0.675,0.024,-0.580,-9.216,-106.384,56.580
0.653,0.048,-0.581,-14.343,-116.394,51.331
0.619,0.051,-0.604,-17.761,-123.413,44.800
0.583,0.079,-0.628,-20.203,-125.732,38.696
0.528,0.126,-0.641,-20.325,-121.277,31.982
0.484,0.148,-0.655,-19.409,-109.741,25.024
0.469,0.162,-0.674,-19.409,-91.614,17.944
0.455,0.183,-0.663,-19.165,-69.336,11.963
0.460,0.176,-0.652,-19.226,-45.959,8.606
0.485,0.160,-0.675,-21.973,-23.132,5.981
0.530,0.158,-0.688,-25.635,-1.038,3.845
0.583,0.174,-0.671,-30.212,19.531,3.540
0.626,0.204,-0.676,-35.034,35.461,4.822
0.650,0.230,-0.672,-38.574,45.654,7.385
0.670,0.252,-0.680,-40.771,52.917,10.620
0.679,0.258,-0.693,-41.809,57.556,12.695
0.682,0.265,-0.703,-42.297,62.195,13.062
0.699,0.267,-0.719,-41.748,66.833,11.963
0.743,0.254,-0.752,-41.504,70.679,8.911
0.784,0.248,-0.779,-41.199,72.876,4.272
0.810,0.256,-0.798,-40.222,73.669,-1.038
0.833,0.267,-0.827,-38.513,72.937,-5.859
0.841,0.275,-0.851,-36.743,71.594,-10.803
0.835,0.266,-0.850,-35.339,71.777,-14.404
0.827,0.253,-0.854,-35.828,73.730,-16.785

0.811,0.672,-1.643,-490.540,26.123,-113.586
0.707,1.164,-1.981,-448.181,45.959,-121.643
0.567,1.715,-2.178,-381.409,70.679,-117.554
0.536,2.140,-2.085,-286.133,101.624,-104.370
0.686,2.035,-1.721,-158.203,126.221,-83.130
0.798,1.401,-1.302,-28.015,128.906,-62.683
0.641,0.521,-0.839,61.951,114.685,-52.368
0.372,-0.394,-0.337,87.646,100.708,-49.805
0.304,-1.069,0.097,48.035,89.905,-52.246
0.458,-1.230,0.266,-28.992,71.167,-53.711
0.547,-1.030,0.208,-101.440,45.288,-53.650
0.673,-0.829,0.328,-149.292,29.419,-54.626
0.839,-0.580,0.581,-175.720,16.235,-55.054
0.891,-0.448,0.786,-179.077,-4.089,-53.772
0.850,-0.530,0.991,-162.598,-26.062,-54.199
0.790,-0.800,1.153,-134.033,-42.236,-56.580
0.679,-1.067,1.329,-101.379,-44.312,-62.500
0.595,-1.341,1.430,-61.829,-29.175,-72.266
0.610,-1.714,1.535,-14.587,-0.244,-80.322
0.676,-2.260,1.711,28.687,34.790,-80.017
0.713,-2.803,1.771,51.453,69.702,-74.829
0.747,-3.210,1.673,47.485,96.375,-71.899
0.789,-3.432,1.450,18.860,110.840,-72.144
0.807,-3.184,0.965,-29.907,112.366,-73.608
0.810,-2.534,0.427,-83.923,106.018,-76.782
0.795,-1.780,0.042,-122.070,94.666,-79.651
0.823,-1.116,-0.173,-132.385,75.439,-75.195
0.883,-0.721,-0.352,-117.798,45.410,-62.378
0.882,-0.512,-0.454,-89.600,8.240,-49.561
0.748,-0.176,-0.432,-54.932,-29.297,-36.804
0.616,-0.090,-0.477,-7.263,-59.753,-11.108
0.536,-0.178,-0.501,41.321,-77.332,19.653
0.554,-0.317,-0.456,80.383,-82.764,50.293
0.586,-0.439,-0.345,107.849,-81.421,73.486
0.590,-0.548,-0.202,127.563,-79.224,89.600
0.569,-0.639,-0.085,141.479,-81.116,100.037
0.571,-0.784,-0.056,151.001,-84.351,103.882
0.501,-0.820,0.003,153.809,-85.999,98.755
0.437,-0.856,0.015,154.114,-85.693,91.614
0.414,-0.852,-0.003,154.419,-79.773,81.604
0.469,-0.836,0.036,153.076,-67.322,70.374
0.417,-0.825,-0.044,156.006,-59.326,60.181
0.352,-0.949,-0.097,156.494,-50.293,44.373
0.336,-0.806,-0.074,150.696,-37.537,20.752
0.321,-0.747,-0.101,158.508,-23.804,5.981
0.338,-0.741,-0.157,175.293,-10.620,-5.493
0.372,-0.786,-0.234,195.435,0.427,-15.930
0.420,-0.848,-0.271,215.942,11.841,-26.855
0.423,-0.867,-0.275,233.948,19.531,-37.537
0.469,-1.015,-0.332,249.939,24.109,-45.593
0.438,-1.010,-0.278,257.324,30.518,-56.274
0.417,-0.927,-0.231,264.465,33.447,-60.242
0.558,-1.087,-0.398,274.231,30.945,-56.396
0.590,-1.088,-0.391,269.592,32.471,-60.730
0.514,-0.815,-0.321,255.371,32.715,-64.575
0.517,-0.718,-0.403,253.418,27.344,-50.598
0.624,-0.782,-0.525,249.451,22.583,-34.485
0.655,-0.768,-0.551,234.375,18.311,-23.315
0.663,-0.806,-0.589,216.125,10.010,-12.024
0.716,-0.842,-0.604,196.533,0.793,-1.770
0.750,-0.824,-0.600,175.049,-9.705,11.597
0.783,-0.833,-0.622,154.480,-22.705,27.161
0.778,-0.815,-0.621,134.033,-38.391,39.001
0.754,-0.723,-0.618,116.638,-55.969,50.110
0.713,-0.561,-0.588,104.065,-72.388,60.425
0.668,-0.398,-0.554,97.900,-87.524,69.824
0.628,-0.353,-0.595,98.572,-100.403,76.111
0.553,-0.374,-0.649,100.647,-105.774,75.623
0.441,-0.344,-0.673,101.990,-100.586,68.970
0.382,-0.295,-0.701,105.469,-86.914,60.852
0.400,-0.298,-0.751,110.413,-68.115,51.819
0.425,-0.339,-0.775,114.624,-46.936,42.480
0.437,-0.366,-0.769,117.310,-25.085,35.156
0.464,-0.331,-0.730,117.981,-4.761,30.273
0.500,-0.265,-0.677,117.126,11.841,28.625
0.545,-0.227,-0.640,116.394,23.193,29.419
0.596,-0.247,-0.669,113.953,29.053,30.212
0.600,-0.276,-0.732,108.582,32.471,28.870
0.604,-0.266,-0.762,101.868,36.865,26.550
0.641,-0.236,-0.770,93.628,41.382,25.330
0.659,-0.214,-0.773,84.473,43.823,24.658
0.664,-0.154,-0.768,74.463,44.800,23.987
0.676,-0.075,-0.752,65.796,42.664,24.719
0.685,-0.023,-0.727,58.533,35.645,27.832
0.688,0.010,-0.716,51.331,25.818,31.921
0.680,0.005,-0.738,44.006,17.822,34.607
0.587,0.021,-0.670,35.583,14.709,32.349
0.520,0.051,-0.693,25.879,12.024,28.015
0.479,0.062,-0.729,15.015,13.184,23.560
0.445,0.086,-0.695,1.709,19.592,18.127
0.439,0.178,-0.648,-11.658,24.231,12.634
0.465,0.253,-0.599,-22.095,26.367,10.071
0.474,0.254,-0.599,-31.494,25.513,8.972
0.484,0.258,-0.615,-42.603,21.851,7.568
0.507,0.269,-0.632,-53.406,17.517,8.240
0.522,0.298,-0.677,-64.148,12.512,10.071
0.515,0.313,-0.730,-73.242,7.629,11.597
0.506,0.315,-0.781,-81.421,5.493,13.367
0.498,0.332,-0.849,-87.708,5.493,15.320
0.494,0.358,-0.891,-89.783,6.714,17.883
0.487,0.382,-0.904,-86.914,9.094,21.240
0.466,0.394,-0.927,-80.872,13.000,23.682
0.427,0.394,-0.945,-73.303,19.775,22.888
0.396,0.389,-0.954,-65.247,30.396,19.104
0.395,0.384,-0.952,-57.251,43.396,13.916
0.413,0.363,-0.966,-49.011,56.152,9.460
0.454,0.345,-0.980,-41.931,67.261,7.141
0.513,0.323,-0.975,-36.377,75.989,7.141
0.549,0.282,-1.010,-32.227,80.566,7.996
0.577,0.252,-1.050,-29.724,82.092,9.644
0.610,0.240,-1.087,-28.015,81.726,12.695
0.621,0.233,-1.121,-26.062,80.261,14.893
0.616,0.216,-1.136,-23.987,79.285,15.442
0.618,0.207,-1.119,-22.034,77.942,14.893
0.627,0.189,-1.095,-19.836,73.914,13.672
0.640,0.178,-1.069,-18.066,67.261,11.963
0.651,0.170,-1.040,-15.747,57.190,10.071
0.649,0.150,-1.021,-12.146,44.495,8.789
0.632,0.117,-1.028,-9.094,31.067,7.812

0.605,0.872,-1.710,-442.993,112.854,-135.132
0.812,1.341,-1.868,-387.512,179.016,-147.827
1.081,1.751,-1.859,-316.589,218.445,-146.423
1.285,1.968,-1.712,-225.037,222.412,-132.202
1.338,1.808,-1.386,-114.746,193.726,-107.605
1.173,1.195,-0.918,-11.475,137.939,-75.928
0.908,0.454,-0.444,51.819,74.219,-42.480
0.670,-0.111,-0.115,60.669,17.761,-9.827
0.494,-0.499,0.044,28.625,-19.226,22.949
0.358,-0.645,0.056,-24.231,-40.955,52.917
0.353,-0.647,0.043,-73.608,-51.453,75.134
0.422,-0.708,0.130,-105.469,-53.589,88.074
0.438,-0.815,0.294,-121.521,-55.603,85.205
0.486,-0.866,0.425,-126.282,-61.218,67.078
0.559,-0.820,0.556,-121.704,-72.388,42.480
0.504,-0.851,0.746,-109.741,-84.595,19.836
0.443,-1.008,1.005,-97.046,-89.355,3.174
0.410,-1.187,1.220,-87.463,-86.853,-4.517
0.357,-1.291,1.385,-75.500,-79.529,-5.432
0.322,-1.333,1.484,-51.514,-65.674,-7.202
0.413,-1.498,1.525,-16.907,-45.349,-11.780
0.508,-1.910,1.449,18.860,-26.733,-17.456
0.585,-2.369,1.269,48.157,-9.033,-26.428
0.557,-2.720,1.050,61.523,11.414,-43.030
0.443,-2.824,0.759,56.152,36.194,-63.049
0.387,-2.599,0.456,31.494,67.139,-81.909
0.447,-2.170,0.179,-3.662,95.581,-91.858
0.524,-1.723,-0.078,-34.729,112.915,-93.018
0.601,-1.361,-0.266,-53.284,116.211,-89.783
0.701,-1.057,-0.380,-60.547,105.286,-84.900
0.776,-0.738,-0.424,-56.335,81.482,-77.820
0.829,-0.511,-0.448,-36.499,48.340,-65.247
0.840,-0.462,-0.493,-5.615,12.207,-48.096
0.801,-0.476,-0.511,27.954,-21.484,-31.189
0.735,-0.477,-0.493,59.631,-49.072,-17.517
0.659,-0.493,-0.449,90.637,-68.054,-5.920
0.596,-0.533,-0.396,120.850,-78.552,4.822
0.547,-0.599,-0.341,149.597,-82.703,14.954
0.506,-0.732,-0.303,175.781,-82.458,24.048
0.462,-0.890,-0.294,196.777,-79.834,31.067
0.442,-1.020,-0.308,209.900,-74.219,35.339
0.452,-1.101,-0.313,216.187,-64.331,35.950
0.463,-1.135,-0.315,218.384,-53.101,32.532
0.422,-1.161,-0.346,219.910,-40.833,25.452
0.369,-1.202,-0.377,221.313,-23.621,16.663
0.349,-1.218,-0.384,222.412,-2.380,8.118
0.361,-1.216,-0.382,222.900,19.226,2.380
0.394,-1.195,-0.379,222.839,38.757,-1.892
0.464,-1.138,-0.349,222.290,54.321,-4.150
0.590,-1.103,-0.354,221.924,62.805,-4.272
0.679,-1.210,-0.477,219.299,65.979,-3.662
0.625,-1.203,-0.436,210.205,70.923,-6.714
0.569,-1.044,-0.376,200.256,70.862,-5.310
0.567,-0.869,-0.311,199.402,61.890,2.075
0.623,-0.761,-0.278,206.116,43.213,16.296
0.796,-1.143,-0.712,214.111,20.325,33.386
0.647,-1.086,-0.557,195.435,21.667,27.710
0.453,-0.727,-0.399,172.302,17.578,24.658
0.484,-0.602,-0.533,170.959,4.944,33.752
0.548,-0.638,-0.637,168.091,0.732,38.147
0.548,-0.657,-0.659,157.532,-0.122,37.903
0.485,-0.639,-0.701,145.081,-2.502,35.645
0.485,-0.553,-0.736,132.996,-3.601,32.104
0.541,-0.397,-0.685,125.183,-1.709,30.884
0.589,-0.298,-0.659,125.366,-4.028,34.180
0.607,-0.330,-0.698,128.479,-10.925,38.147
0.579,-0.347,-0.666,129.028,-17.029,38.696
0.548,-0.272,-0.629,127.502,-22.705,39.551
0.499,-0.266,-0.635,127.930,-26.978,42.603
0.474,-0.334,-0.696,127.136,-26.550,43.701
0.434,-0.399,-0.777,120.361,-19.226,39.307
0.397,-0.391,-0.826,108.948,-4.883,30.151
0.391,-0.317,-0.833,97.473,11.780,23.132
0.433,-0.270,-0.846,87.830,26.367,21.912
0.483,-0.247,-0.868,78.308,37.964,23.071
0.538,-0.188,-0.853,69.275,46.692,25.879
0.589,-0.103,-0.800,62.622,49.133,30.945
0.604,-0.045,-0.747,59.265,44.617,35.950
0.576,-0.012,-0.708,57.007,35.522,39.124
0.523,0.008,-0.665,54.016,24.719,39.246
0.471,0.029,-0.616,51.514,13.916,36.377
0.430,0.045,-0.593,48.584,3.601,30.701
0.400,0.042,-0.625,44.678,-5.066,23.682
0.390,0.034,-0.670,39.734,-10.010,16.846
0.393,0.022,-0.681,34.912,-11.047,12.207
0.387,0.024,-0.695,27.283,-10.010,9.094
0.374,0.034,-0.709,17.578,-7.690,6.409
0.373,0.058,-0.699,7.385,-3.967,5.432
0.396,0.098,-0.652,-1.831,-1.709,6.470
0.409,0.136,-0.642,-9.583,-2.991,7.874
0.388,0.158,-0.692,-14.893,-6.165,8.362
0.356,0.167,-0.776,-19.043,-6.592,8.789
0.332,0.195,-0.878,-21.912,-2.625,9.094
0.316,0.236,-0.941,-22.400,7.263,9.705
0.305,0.281,-0.966,-20.386,22.217,11.169
0.309,0.328,-0.958,-16.479,38.391,13.245
0.327,0.364,-0.908,-11.658,53.101,15.198
0.348,0.379,-0.869,-7.202,63.721,16.174
0.366,0.375,-0.861,-4.395,69.824,16.846
0.383,0.373,-0.861,-3.967,72.449,17.517
0.406,0.370,-0.871,-6.104,73.792,18.311
0.426,0.364,-0.917,-10.071,73.853,18.555
0.437,0.379,-0.948,-16.357,73.425,18.616
0.448,0.408,-0.942,-23.682,72.144,19.592
0.470,0.433,-0.968,-30.884,67.810,20.447
0.478,0.435,-1.010,-36.316,62.073,20.691
0.479,0.442,-1.040,-39.978,56.702,20.569
0.480,0.454,-1.056,-41.443,51.208,20.630
0.486,0.456,-1.073,-41.504,45.349,19.531
0.499,0.459,-1.100,-40.527,38.330,17.761
0.493,0.462,-1.125,-38.574,30.457,15.259
0.478,0.449,-1.143,-36.011,24.109,13.000
0.466,0.431,-1.154,-34.058,20.325,10.620
0.448,0.417,-1.144,-32.288,18.982,7.568
0.439,0.396,-1.140,-31.006,19.104,4.395
0.442,0.368,-1.121,-29.114,19.348,1.221
0.448,0.338,-1.092,-27.527,19.226,-1.892
0.461,0.309,-1.066,-25.940,18.127,-5.005
0.480,0.283,-1.039,-23.376,15.381,-8.179

0.815,1.085,-1.280,-300.354,80.200,-47.363
0.803,1.295,-1.318,-248.047,80.261,-49.194
0.758,1.381,-1.306,-182.129,71.472,-48.889
0.658,1.249,-1.227,-109.619,57.495,-48.218
0.563,0.854,-1.031,-38.696,46.753,-49.194
0.446,0.376,-0.722,9.460,43.518,-51.575
0.323,-0.013,-0.415,25.269,50.171,-55.298
0.321,-0.264,-0.206,15.503,63.232,-56.641
0.473,-0.319,-0.079,-8.118,72.998,-50.354
0.542,-0.236,0.009,-31.006,67.505,-37.415
0.521,-0.117,0.069,-40.894,52.063,-21.912
0.521,-0.077,0.121,-31.738,36.316,-3.845
0.572,-0.117,0.242,-6.714,22.217,13.855
0.622,-0.234,0.420,29.846,7.996,28.259
0.653,-0.436,0.589,76.965,-7.080,37.476
0.675,-0.755,0.727,131.653,-21.423,40.894
0.679,-1.301,0.770,193.909,-33.752,38.940
0.676,-2.241,0.658,254.028,-44.312,31.250
0.665,-3.512,0.491,293.457,-51.758,17.822
0.631,-4.000,0.352,292.969,-49.438,-2.808
0.659,-4.000,0.179,233.032,-39.673,-29.663
0.695,-4.000,-0.158,112.854,-28.137,-63.416
0.639,-3.884,-0.509,-32.715,-8.301,-90.027
0.349,-2.787,-0.871,-160.522,25.574,-87.952
-0.099,-1.992,-1.196,-256.409,69.336,-67.383
-0.389,-1.419,-1.375,-323.792,114.868,-41.077
-0.131,-1.041,-1.369,-361.694,158.875,-8.850
0.437,-0.768,-1.208,-370.056,190.063,22.400
0.912,-0.403,-0.981,-351.990,191.284,38.086
1.145,-0.025,-0.690,-307.190,159.180,40.771
1.116,0.214,-0.501,-239.502,100.220,34.729
0.964,0.233,-0.497,-157.837,30.640,20.508
0.793,0.174,-0.559,-77.942,-31.494,2.075
0.624,0.133,-0.581,-8.118,-78.552,-11.658
0.478,0.015,-0.586,56.519,-105.957,-17.212
0.378,-0.256,-0.569,116.577,-112.183,-13.916
0.327,-0.579,-0.533,163.818,-101.929,-7.263
0.302,-0.855,-0.492,194.397,-82.886,-2.258
0.338,-1.021,-0.423,210.449,-57.007,1.343
0.424,-1.174,-0.411,215.637,-30.762,4.822
0.486,-1.246,-0.332,208.069,-5.676,10.498
0.580,-1.386,-0.285,189.148,14.099,20.081
0.596,-1.370,-0.230,157.043,25.452,25.330
0.605,-1.376,-0.165,123.108,32.959,32.410
0.629,-1.328,-0.169,87.830,32.776,33.997
0.607,-1.222,-0.198,57.007,27.588,31.921
0.567,-1.136,-0.260,35.339,20.081,28.564
0.522,-1.110,-0.369,23.987,12.329,24.170
0.499,-1.043,-0.393,19.348,8.362,18.433
0.500,-1.011,-0.456,22.949,4.639,11.108
0.447,-0.942,-0.475,32.959,5.737,1.343
0.374,-0.783,-0.405,49.255,9.094,-4.944
0.369,-0.811,-0.510,74.463,10.498,-7.141
0.385,-1.060,-0.727,95.825,20.752,-12.939
0.351,-0.878,-0.616,96.313,41.992,-26.917
0.354,-0.600,-0.509,100.525,61.035,-32.227
0.428,-0.590,-0.525,122.131,72.266,-28.503
0.495,-0.689,-0.578,142.334,76.355,-23.621
0.512,-0.721,-0.603,153.687,76.233,-19.409
0.535,-0.708,-0.584,162.903,72.266,-14.587
0.594,-0.613,-0.565,172.668,62.622,-7.629
0.646,-0.497,-0.547,184.692,44.434,1.282
0.683,-0.464,-0.535,198.547,20.508,12.817
0.697,-0.514,-0.560,211.060,-6.775,24.109
0.658,-0.585,-0.619,218.872,-34.180,33.508
0.573,-0.621,-0.693,223.022,-58.167,40.527
0.531,-0.656,-0.766,222.656,-74.951,45.471
0.504,-0.691,-0.814,216.797,-83.740,46.387
0.431,-0.681,-0.826,206.848,-86.487,42.297
0.332,-0.567,-0.818,195.740,-84.229,36.621
0.289,-0.442,-0.791,188.110,-78.308,33.997
0.336,-0.414,-0.824,183.960,-69.336,33.630
0.343,-0.474,-0.898,177.429,-57.373,30.273
0.304,-0.459,-0.889,165.527,-40.039,23.376
0.307,-0.322,-0.824,152.527,-21.545,18.677
0.328,-0.195,-0.797,144.531,-8.484,17.334
0.357,-0.127,-0.806,140.259,1.343,16.968
0.387,-0.090,-0.803,135.986,9.644,16.113
0.407,-0.040,-0.801,132.141,15.015,14.648
0.407,0.003,-0.759,130.249,15.991,13.855
0.445,0.044,-0.693,128.418,10.559,14.771
0.636,-0.028,-0.870,124.695,-0.427,16.846
0.604,-0.070,-0.871,113.220,3.479,13.489
0.362,0.121,-0.630,95.947,11.169,5.615
0.396,0.140,-0.752,85.388,0.244,5.066
0.487,0.121,-0.803,73.303,-1.526,1.831
0.467,0.201,-0.713,59.753,2.930,-2.380
0.414,0.268,-0.679,50.049,2.686,-3.296
0.396,0.283,-0.704,40.833,0.427,-3.540
0.417,0.290,-0.724,29.968,-0.610,-4.700
0.442,0.298,-0.754,18.677,-0.305,-5.981
0.459,0.325,-0.782,7.507,0.061,-5.676
0.467,0.369,-0.797,-1.648,1.038,-3.418
0.463,0.412,-0.776,-8.179,2.502,-0.366
0.445,0.447,-0.773,-12.085,3.235,1.709
0.449,0.462,-0.794,-13.611,3.296,2.686
0.477,0.444,-0.802,-14.099,4.639,3.235
0.486,0.420,-0.805,-15.137,6.836,1.404
0.488,0.436,-0.803,-17.029,8.606,-2.258
0.509,0.459,-0.814,-18.921,10.376,-3.784
0.512,0.488,-0.789,-19.104,12.207,-3.662
0.513,0.464,-0.820,-18.738,10.193,-1.709
0.552,0.434,-0.840,-19.836,9.094,-1.526
0.577,0.465,-0.828,-21.729,11.047,-3.601
0.570,0.495,-0.824,-21.667,11.536,-4.822
0.573,0.509,-0.810,-21.851,9.766,-4.089
0.573,0.512,-0.777,-20.813,5.859,-2.991
0.551,0.501,-0.762,-19.165,1.404,-2.441
0.525,0.486,-0.765,-17.090,-1.892,-2.686
0.507,0.467,-0.774,-14.404,-3.723,-3.235
0.492,0.448,-0.781,-12.024,-4.456,-4.944
0.484,0.432,-0.791,-9.888,-4.028,-7.324
0.481,0.394,-0.818,-8.423,-2.136,-9.644
0.487,0.359,-0.842,-9.766,2.686,-12.329
0.506,0.334,-0.851,-12.451,8.667,-14.343
0.534,0.313,-0.855,-15.076,12.451,-15.686
0.563,0.296,-0.858,-17.273,13.428,-16.052
0.585,0.278,-0.873,-18.921,12.329,-15.381
0.608,0.262,-0.863,-18.921,9.521,-14.343

0.641,0.583,-2.014,-406.921,80.017,-119.507
0.680,1.077,-2.258,-358.459,118.164,-127.563
0.888,1.525,-2.195,-294.312,144.165,-119.446
1.026,1.792,-1.876,-213.745,141.541,-99.487
1.001,1.678,-1.418,-114.746,113.281,-68.481
0.800,0.992,-0.952,-19.348,75.562,-26.978
0.571,0.137,-0.454,28.137,40.527,14.832
0.459,-0.536,-0.037,11.597,17.456,53.284
0.447,-0.922,0.157,-44.556,-1.770,88.623
0.426,-1.023,0.259,-113.953,-17.456,113.647
0.426,-0.954,0.355,-175.293,-24.109,121.704
0.504,-0.775,0.468,-216.064,-26.855,117.249
0.528,-0.736,0.681,-229.919,-32.349,103.760
0.529,-0.940,0.964,-223.694,-39.246,82.825
0.584,-1.221,1.261,-209.351,-46.936,56.885
0.660,-1.504,1.545,-196.960,-56.519,30.518
0.680,-1.771,1.844,-192.810,-67.566,7.446
0.632,-2.025,2.025,-197.449,-72.388,-9.888
0.602,-2.121,2.043,-206.055,-67.139,-26.672
0.617,-1.992,2.016,-208.801,-52.551,-44.189
0.673,-1.229,2.168,-210.388,-28.931,-61.035
0.592,-1.074,1.984,-208.496,-21.484,-61.279
0.622,-1.770,1.251,-193.420,-34.668,-51.453
0.630,-1.814,0.506,-180.664,-37.964,-52.856
0.601,-1.299,0.108,-173.096,-27.771,-55.969
0.675,-0.883,-0.047,-154.785,-22.095,-52.673
0.699,-0.635,-0.140,-122.559,-31.006,-39.429
0.665,-0.578,-0.278,-84.717,-41.382,-20.935
0.695,-0.639,-0.409,-48.218,-42.908,-5.676
0.776,-0.651,-0.454,-16.113,-36.682,5.188
0.820,-0.653,-0.369,10.681,-27.954,15.503
0.829,-0.700,-0.246,33.081,-21.790,25.940
0.786,-0.750,-0.111,51.392,-21.790,36.072
0.714,-0.786,0.013,63.477,-24.231,47.241
0.664,-0.771,0.083,70.313,-25.452,59.814
0.635,-0.739,0.121,76.843,-25.879,71.472
0.615,-0.721,0.118,84.961,-25.208,79.956
0.586,-0.706,0.098,95.093,-23.987,83.557
0.564,-0.708,0.089,108.276,-21.606,83.374
0.557,-0.704,0.070,122.437,-18.372,79.712
0.556,-0.727,0.054,136.719,-13.794,72.083
0.561,-0.726,0.098,149.353,-6.775,60.303
0.554,-0.734,0.097,163.086,1.648,48.279
0.530,-0.779,0.052,179.016,13.794,39.063
0.509,-0.791,0.026,194.885,29.663,30.457
0.506,-0.794,0.046,213.440,47.668,21.240
0.617,-0.962,0.016,234.314,61.951,11.780
0.698,-1.097,0.015,247.559,67.505,-3.662
0.662,-1.040,0.060,252.930,65.491,-24.475
0.609,-0.951,0.069,262.573,61.157,-40.100
0.581,-0.877,0.050,277.649,56.702,-48.828
0.590,-0.829,-0.006,293.640,48.706,-51.697
0.552,-0.825,-0.142,309.509,37.964,-50.659
0.497,-0.870,-0.233,323.547,34.790,-46.509
0.465,-0.892,-0.293,331.238,36.255,-38.696
0.504,-0.914,-0.331,335.693,37.842,-26.978
0.579,-0.977,-0.359,337.341,38.818,-13.489
0.626,-1.061,-0.372,334.717,36.194,-1.404
0.642,-1.117,-0.399,326.355,29.602,8.057
0.651,-1.136,-0.431,314.026,20.630,15.015
0.682,-1.094,-0.448,297.424,10.437,19.104
0.727,-0.945,-0.468,280.579,-1.892,23.926
0.771,-0.826,-0.508,267.761,-14.282,31.982
0.769,-0.762,-0.537,255.127,-29.297,38.940
0.703,-0.669,-0.558,240.662,-46.387,44.495
0.616,-0.564,-0.550,224.243,-58.960,48.584
0.540,-0.500,-0.614,208.801,-67.017,52.429
0.542,-0.510,-0.707,194.336,-67.566,53.894
0.532,-0.464,-0.720,176.086,-60.303,48.950
0.521,-0.384,-0.699,159.912,-50.415,43.945
0.514,-0.336,-0.719,148.682,-39.429,40.527
0.545,-0.284,-0.744,140.076,-28.625,35.828
0.578,-0.166,-0.715,134.338,-19.043,30.823
0.580,-0.089,-0.729,135.925,-14.160,29.419
0.573,-0.042,-0.709,140.991,-8.728,29.724
0.592,0.014,-0.683,145.935,-1.770,29.602
0.610,0.037,-0.654,151.733,3.113,29.175
0.629,0.003,-0.658,156.311,6.897,27.588
0.645,-0.055,-0.675,156.799,10.620,22.583
0.647,-0.065,-0.687,151.733,13.611,14.771
0.665,-0.016,-0.703,143.921,15.076,7.874
0.690,0.028,-0.659,136.353,14.648,4.272
0.697,0.061,-0.616,127.747,12.024,2.625
0.675,0.090,-0.628,115.845,7.263,0.427
0.679,0.121,-0.625,101.868,3.479,-1.709
0.703,0.149,-0.635,87.524,-0.610,-0.671
0.703,0.181,-0.633,74.768,-5.432,2.563
0.673,0.211,-0.639,62.805,-8.423,5.432
0.631,0.241,-0.655,51.636,-9.888,6.592
0.622,0.265,-0.660,42.725,-8.728,6.958
0.621,0.326,-0.619,37.170,-5.310,6.165
0.595,0.351,-0.600,34.790,-2.258,5.859
0.568,0.356,-0.596,33.630,1.831,3.784
0.537,0.347,-0.557,32.898,6.714,-0.244
0.530,0.336,-0.569,32.654,9.094,-5.615
0.542,0.357,-0.603,31.250,13.367,-12.085
0.562,0.408,-0.595,29.297,19.775,-15.686
0.586,0.442,-0.589,26.917,24.292,-15.503
0.593,0.463,-0.611,23.071,26.428,-13.306
0.614,0.504,-0.623,18.555,29.541,-10.498
0.626,0.527,-0.614,14.954,34.119,-6.714
0.627,0.554,-0.599,10.498,39.001,-3.540
0.626,0.567,-0.565,6.836,43.396,-0.549
0.618,0.563,-0.535,3.662,46.753,2.258
0.618,0.541,-0.533,0.305,48.157,3.845
0.632,0.535,-0.535,-3.296,48.157,5.127
0.651,0.521,-0.539,-5.432,46.875,6.470
0.669,0.508,-0.559,-7.385,44.861,7.019
0.674,0.504,-0.598,-9.949,42.297,5.981
0.689,0.500,-0.642,-14.160,41.199,3.967
0.725,0.516,-0.676,-21.667,41.687,1.587
0.766,0.531,-0.706,-29.663,41.321,-0.244
0.794,0.544,-0.721,-36.438,38.147,-1.404
0.800,0.547,-0.727,-42.297,32.715,-2.563
0.799,0.535,-0.738,-45.593,26.245,-3.540
0.801,0.518,-0.747,-46.997,18.433,-4.700
0.786,0.501,-0.756,-47.180,10.559,-6.287
0.759,0.485,-0.761,-46.692,4.211,-8.240
0.735,0.472,-0.773,-44.861,-0.793,-10.132

1.103,1.003,-0.564,-56.030,-32.410,-12.207
1.105,1.055,-0.544,-83.923,-54.565,-16.907
1.060,1.080,-0.522,-121.643,-76.721,-22.583
0.981,1.066,-0.582,-168.457,-97.839,-28.503
0.870,0.978,-0.697,-222.168,-115.112,-31.799
0.778,0.845,-0.816,-276.123,-124.390,-31.860
0.697,0.730,-0.886,-326.416,-124.146,-31.799
0.655,0.529,-0.921,-372.009,-111.816,-32.532
0.660,0.322,-0.930,-416.504,-91.492,-33.691
0.602,0.213,-0.935,-456.665,-61.523,-35.522
0.465,0.180,-0.862,-490.479,-16.357,-39.429
0.456,0.156,-0.729,-518.372,40.955,-48.706
0.491,0.329,-0.734,-537.659,100.342,-60.669
0.506,0.667,-0.898,-536.011,151.672,-70.618
0.577,1.022,-1.122,-514.954,193.359,-75.256
0.740,1.388,-1.397,-477.173,218.323,-68.237
0.942,1.708,-1.619,-423.645,217.224,-50.232
1.104,1.931,-1.650,-356.262,191.650,-28.076
1.184,1.937,-1.335,-273.437,147.888,-2.686
1.070,1.445,-0.693,-182.617,91.736,25.574
0.801,0.637,-0.091,-114.258,30.579,51.514
0.505,-0.149,0.295,-96.680,-13.672,77.271
0.378,-0.791,0.558,-127.014,-30.823,102.905
0.398,-1.035,0.853,-180.908,-37.231,117.676
0.421,-1.070,1.143,-226.501,-42.114,116.943
0.461,-1.007,1.473,-248.901,-44.678,98.206
0.453,-1.040,1.914,-245.667,-50.720,64.575
0.554,-0.928,2.511,-218.201,-56.824,15.869
0.479,-0.940,2.427,-175.110,-63.538,-43.701
0.347,-1.873,2.097,-121.460,-77.026,-86.304
0.030,-2.508,1.907,-72.021,-74.097,-120.300
-0.094,-2.720,1.705,-13.245,-40.405,-151.367
0.038,-3.036,1.426,29.907,10.437,-174.683
0.128,-3.300,1.084,40.771,65.186,-192.505
0.196,-3.245,0.675,19.409,115.540,-202.332
0.395,-2.804,0.212,-23.315,155.579,-201.965
0.698,-2.186,-0.194,-68.542,178.589,-192.505
1.017,-1.569,-0.445,-99.792,178.894,-177.856
1.245,-0.969,-0.577,-106.689,153.809,-162.292
1.283,-0.428,-0.603,-86.487,110.474,-141.968
1.148,-0.038,-0.591,-42.419,58.716,-110.596
0.997,0.089,-0.634,16.968,6.958,-65.369
0.915,0.042,-0.682,80.078,-38.635,-13.611
0.895,-0.115,-0.660,140.076,-74.585,34.058
0.864,-0.349,-0.589,192.627,-101.196,75.989
0.811,-0.589,-0.489,234.436,-123.230,109.680
0.756,-0.799,-0.402,264.893,-142.883,134.644
0.719,-0.965,-0.344,287.354,-160.522,151.123
0.679,-1.117,-0.332,304.749,-174.805,160.034
0.596,-1.284,-0.340,318.115,-182.068,161.621
0.474,-1.444,-0.375,327.087,-179.810,154.541
0.321,-1.574,-0.453,332.703,-166.626,140.198
0.188,-1.687,-0.524,336.182,-138.245,119.446
0.088,-1.738,-0.535,340.088,-95.703,91.919
0.024,-1.684,-0.502,344.849,-42.603,62.744
0.027,-1.556,-0.445,350.281,12.878,37.415
0.043,-1.417,-0.352,356.323,62.256,18.738
0.311,-1.465,-0.358,361.755,96.985,6.104
0.741,-1.486,-0.474,356.201,119.324,-5.920
0.669,-1.346,-0.461,342.285,139.954,-14.954
0.595,-1.079,-0.324,330.627,147.217,-15.381
0.638,-1.076,-0.389,327.209,133.362,-3.357
0.808,-1.057,-0.384,319.580,110.352,9.583
0.860,-1.045,-0.486,303.406,82.520,21.423
0.823,-0.949,-0.388,281.250,56.458,29.602
0.762,-0.862,-0.423,255.005,27.283,31.189
0.687,-0.626,-0.464,230.042,2.136,30.334
0.629,-0.420,-0.506,212.280,-14.709,35.034
0.529,-0.334,-0.488,199.158,-33.264,41.382
0.729,-0.263,-0.750,185.791,-50.354,42.236
0.485,-0.158,-0.616,176.147,-44.556,43.030
0.405,-0.234,-0.735,165.771,-38.269,40.588
0.394,-0.074,-0.753,152.771,-27.527,34.485
0.396,0.001,-0.668,147.461,-8.545,36.194
0.371,0.061,-0.659,142.029,8.240,33.813
0.401,0.087,-0.746,135.864,20.447,27.588
0.448,0.123,-0.708,130.066,37.598,23.071
0.457,0.120,-0.710,124.268,48.767,22.278
0.461,0.207,-0.674,115.784,58.350,17.334
0.457,0.295,-0.597,108.398,66.711,14.709
0.457,0.341,-0.614,99.487,67.078,15.137
0.488,0.386,-0.584,88.745,67.688,17.029
0.510,0.373,-0.600,76.843,65.308,20.874
0.493,0.373,-0.638,61.707,61.829,21.057
0.448,0.462,-0.674,44.067,62.927,18.372
0.457,0.570,-0.696,28.503,65.613,19.775
0.475,0.575,-0.704,14.160,64.880,24.414
0.458,0.648,-0.667,-0.916,64.331,23.926
0.450,0.685,-0.673,-13.794,59.509,25.513
0.430,0.680,-0.672,-26.123,56.152,26.367
0.433,0.669,-0.652,-38.452,54.443,23.499
0.456,0.669,-0.681,-50.903,49.805,19.043
0.464,0.696,-0.677,-62.805,45.288,13.367
0.480,0.708,-0.663,-71.655,39.307,9.338
0.501,0.703,-0.678,-76.660,29.480,6.165
0.519,0.715,-0.706,-79.346,16.907,2.869
0.527,0.722,-0.723,-78.369,4.700,0.671
0.508,0.718,-0.740,-75.012,-6.836,-1.404
0.492,0.717,-0.783,-70.862,-16.785,-3.357
0.463,0.721,-0.837,-66.162,-22.583,-5.371
0.450,0.735,-0.858,-59.692,-22.827,-6.592
0.447,0.735,-0.871,-51.392,-19.958,-6.897
0.443,0.731,-0.860,-43.213,-15.686,-7.019
0.454,0.717,-0.830,-35.828,-11.047,-6.958
0.476,0.693,-0.810,-28.992,-7.629,-7.080
0.492,0.656,-0.781,-22.644,-4.883,-6.348
0.502,0.612,-0.757,-18.005,-3.906,-6.104
0.521,0.568,-0.755,-15.564,-5.615,-6.714
0.537,0.532,-0.776,-14.954,-9.094,-7.324
0.545,0.517,-0.818,-17.212,-12.878,-8.057
0.547,0.514,-0.856,-21.423,-15.686,-7.568
0.552,0.513,-0.885,-27.100,-16.724,-4.944
0.552,0.514,-0.914,-31.372,-16.663,-1.404
0.554,0.494,-0.939,-33.325,-16.357,3.296
0.549,0.470,-0.953,-31.677,-15.259,7.629
0.541,0.435,-0.959,-27.649,-13.123,10.010
0.531,0.386,-0.955,-21.362,-10.681,10.254
0.521,0.340,-0.942,-14.771,-8.545,8.240
0.521,0.312,-0.934,-9.094,-6.775,4.578

0.931,1.164,-1.172,-301.086,67.993,-2.441
0.920,1.289,-1.167,-246.338,58.350,13.123
0.903,1.255,-1.038,-184.875,42.114,26.733
0.846,0.996,-0.803,-125.244,20.813,38.574
0.728,0.535,-0.459,-80.933,-3.052,51.086
0.582,0.044,-0.058,-68.298,-23.926,66.895
0.452,-0.295,0.195,-89.294,-39.368,84.534
0.391,-0.496,0.268,-125.061,-50.232,99.121
0.407,-0.545,0.324,-160.156,-61.768,104.675
0.369,-0.593,0.427,-182.556,-72.937,100.464
0.295,-0.742,0.519,-187.378,-79.529,82.703
0.325,-0.936,0.652,-179.138,-77.881,49.805
0.450,-1.019,0.832,-164.124,-72.754,10.254
0.557,-1.007,1.034,-145.813,-72.998,-25.269
0.594,-0.992,1.219,-126.221,-77.271,-50.110
0.610,-1.025,1.385,-101.013,-77.881,-62.988
0.623,-1.234,1.638,-72.693,-68.909,-67.627
0.714,-1.579,1.809,-48.340,-47.119,-66.040
0.924,-2.023,1.818,-30.945,-18.616,-59.753
1.110,-2.437,1.677,-28.259,9.277,-54.749
1.114,-2.647,1.372,-43.335,35.889,-58.228
0.977,-2.520,0.940,-71.289,64.941,-72.693
0.818,-2.099,0.446,-101.624,93.506,-88.623
0.664,-1.630,-0.003,-119.995,112.793,-94.421
0.556,-1.193,-0.336,-120.483,117.004,-85.632
0.571,-0.790,-0.555,-102.722,105.225,-65.125
0.777,-0.568,-0.651,-68.176,79.712,-44.617
0.937,-0.366,-0.629,-26.489,41.565,-39.612
0.895,-0.167,-0.549,20.142,-1.709,-41.321
0.824,-0.259,-0.507,75.500,-35.522,-34.424
0.764,-0.438,-0.431,121.033,-55.786,-25.085
0.691,-0.537,-0.333,150.574,-61.279,-14.771
0.634,-0.593,-0.238,171.753,-57.922,-3.845
0.617,-0.654,-0.139,190.674,-50.720,7.996
0.626,-0.757,-0.075,209.106,-46.387,19.653
0.606,-0.863,-0.058,224.060,-48.401,27.466
0.543,-0.947,-0.074,234.741,-52.246,31.433
0.486,-1.018,-0.094,242.249,-52.551,32.104
0.449,-1.064,-0.115,249.512,-49.194,28.320
0.441,-1.142,-0.164,259.216,-41.443,21.790
0.409,-1.240,-0.194,266.418,-29.968,13.489
0.365,-1.318,-0.205,269.104,-14.832,2.014
0.328,-1.345,-0.223,269.409,3.052,-11.536
0.311,-1.311,-0.245,269.653,24.780,-24.475
0.370,-1.230,-0.236,270.020,48.401,-33.630
0.496,-1.136,-0.229,271.179,67.932,-37.598
0.581,-1.076,-0.245,272.766,79.468,-36.804
0.616,-1.021,-0.238,272.766,82.581,-33.203
0.659,-0.938,-0.269,270.447,76.721,-26.855
0.679,-0.907,-0.341,267.334,66.772,-17.639
0.712,-0.821,-0.300,261.719,52.551,-8.362
0.726,-0.791,-0.408,255.859,30.212,3.174
0.791,-0.871,-0.412,246.948,10.315,14.099
0.772,-0.912,-0.479,227.722,-9.583,17.212
0.650,-0.680,-0.416,205.261,-26.855,18.311
0.601,-0.577,-0.538,192.322,-43.396,29.846
0.644,-0.583,-0.620,182.983,-53.406,39.307
0.612,-0.532,-0.597,169.495,-55.298,41.870
0.535,-0.491,-0.587,158.569,-55.908,43.518
0.553,-0.469,-0.636,151.123,-54.565,41.321
0.572,-0.319,-0.600,146.057,-46.753,37.720
0.543,-0.280,-0.595,148.132,-37.415,38.757
0.524,-0.318,-0.619,150.391,-28.381,37.048
0.516,-0.349,-0.669,147.644,-16.602,31.372
0.528,-0.331,-0.699,141.479,-1.892,24.780
0.544,-0.252,-0.663,134.521,15.747,21.729
0.583,-0.198,-0.638,128.662,29.480,23.743
0.634,-0.198,-0.652,121.887,36.865,27.588
0.652,-0.181,-0.637,112.854,41.748,31.250
0.654,-0.115,-0.634,102.417,44.189,35.278
0.655,-0.093,-0.678,93.140,43.030,39.551
0.647,-0.067,-0.692,83.801,42.542,42.725
0.593,-0.010,-0.662,74.402,43.518,44.556
0.542,0.029,-0.687,65.979,44.128,46.021
0.509,0.065,-0.704,57.007,48.645,44.861
0.475,0.132,-0.685,47.607,56.519,42.297
0.467,0.170,-0.724,38.879,62.439,41.077
0.485,0.158,-0.771,30.518,67.993,39.734
0.528,0.156,-0.772,20.325,74.524,37.964
0.590,0.197,-0.784,9.338,77.393,36.499
0.650,0.250,-0.775,0.122,76.416,36.255
0.672,0.312,-0.747,-6.653,71.838,36.621
0.651,0.367,-0.729,-10.132,63.599,37.598
0.623,0.392,-0.749,-11.841,53.894,39.307
0.591,0.391,-0.758,-13.550,46.448,39.795
0.544,0.399,-0.748,-15.991,41.382,38.757
0.514,0.414,-0.779,-18.738,37.476,36.621
0.515,0.434,-0.822,-21.179,34.424,34.302
0.514,0.438,-0.838,-23.010,31.616,33.936
0.490,0.461,-0.871,-24.536,29.846,33.875
0.460,0.479,-0.901,-25.391,30.273,33.936
0.446,0.508,-0.920,-26.245,32.776,34.485
0.443,0.546,-0.925,-25.818,35.400,35.339
0.450,0.566,-0.919,-22.583,36.804,37.720
0.446,0.557,-0.905,-16.724,37.537,40.344
0.429,0.553,-0.903,-10.193,39.001,40.894
0.416,0.546,-0.907,-4.517,41.382,39.673
0.417,0.529,-0.907,-0.061,43.701,37.354
0.426,0.510,-0.903,3.235,44.922,34.668
0.448,0.501,-0.905,5.005,44.128,31.494
0.471,0.488,-0.913,6.104,40.710,28.870
0.494,0.473,-0.922,6.958,35.156,26.794
0.501,0.473,-0.958,5.859,28.442,25.208
0.506,0.468,-0.975,4.272,21.606,24.719
0.482,0.461,-0.992,3.174,15.808,24.292
0.456,0.454,-1.004,2.991,11.536,23.865
0.433,0.451,-1.005,3.418,9.155,22.705
0.414,0.444,-0.999,4.456,8.301,21.240
0.403,0.429,-0.985,6.348,8.301,19.287
0.392,0.399,-0.974,8.728,8.484,17.395
0.381,0.370,-0.949,10.620,9.399,15.137
0.373,0.341,-0.917,10.864,10.864,12.817
0.371,0.317,-0.909,8.972,12.329,10.193
0.380,0.310,-0.905,5.249,13.428,7.996
0.400,0.300,-0.882,2.625,13.245,6.287
0.415,0.282,-0.885,0.427,11.230,4.028
0.436,0.265,-0.904,-1.648,7.690,1.282
0.467,0.259,-0.907,-3.113,3.052,-0.305
0.479,0.251,-0.914,-2.197,-3.357,-1.160

0.771,0.661,-1.116,-315.247,41.870,53.162
0.747,0.764,-0.991,-265.381,43.884,56.335
0.799,0.747,-0.763,-209.656,37.598,59.998
0.784,0.507,-0.458,-154.236,18.799,67.139
0.671,0.116,-0.115,-114.075,-3.601,76.111
0.596,-0.229,0.209,-99.121,-23.376,86.304
0.580,-0.476,0.466,-106.018,-43.274,98.328
0.564,-0.663,0.651,-120.850,-64.758,110.779
0.542,-0.798,0.802,-134.888,-88.501,118.347
0.501,-0.922,0.920,-143.494,-109.619,119.141
0.434,-1.045,0.967,-143.616,-126.892,109.741
0.311,-1.161,0.942,-130.188,-136.414,85.327
0.095,-1.205,0.955,-100.342,-129.578,46.448
0.152,-1.231,0.911,-53.467,-97.412,0.061
0.407,-1.242,0.874,-9.827,-58.960,-46.814
0.596,-1.473,0.829,35.522,-26.001,-88.623
0.629,-1.915,0.742,80.261,3.418,-129.517
0.539,-2.281,0.616,104.553,42.236,-162.659
0.476,-2.395,0.482,98.633,98.816,-179.321
0.559,-2.274,0.289,68.115,156.250,-172.546
0.773,-1.995,0.053,24.963,197.021,-143.677
1.003,-1.632,-0.188,-17.822,214.661,-102.539
1.190,-1.224,-0.354,-51.575,207.825,-60.425
1.304,-0.868,-0.427,-68.909,176.941,-21.851
1.329,-0.590,-0.440,-68.848,126.343,10.132
1.251,-0.398,-0.446,-52.612,64.392,35.339
1.089,-0.292,-0.458,-24.841,-1.221,54.504
0.928,-0.269,-0.502,7.324,-61.646,69.519
0.793,-0.319,-0.527,40.710,-109.558,79.773
0.658,-0.405,-0.532,72.327,-138.794,84.290
0.525,-0.499,-0.501,100.952,-149.170,83.374
0.436,-0.600,-0.471,125.732,-143.738,79.468
0.386,-0.697,-0.456,147.278,-127.808,71.777
0.368,-0.772,-0.434,164.001,-106.140,61.768
0.381,-0.844,-0.431,178.284,-83.008,49.194
0.382,-0.915,-0.425,189.453,-58.472,32.593
0.357,-0.963,-0.408,197.388,-32.593,12.268
0.365,-1.003,-0.403,203.125,-5.554,-8.728
0.394,-1.050,-0.396,206.360,22.034,-29.297
0.428,-1.084,-0.363,205.627,49.072,-47.729
0.511,-1.120,-0.327,201.843,72.632,-63.660
0.623,-1.133,-0.292,195.679,89.600,-77.759
0.700,-1.089,-0.263,188.538,99.548,-89.539
0.702,-0.976,-0.213,183.472,102.295,-96.069
0.685,-0.862,-0.216,183.655,94.788,-94.299
0.736,-0.844,-0.322,188.232,81.421,-83.862
0.849,-0.871,-0.426,190.552,69.641,-69.031
0.871,-0.772,-0.377,187.561,60.913,-53.101
0.839,-0.699,-0.357,187.195,45.654,-33.875
0.826,-0.697,-0.417,189.758,25.879,-11.963
0.809,-0.669,-0.464,188.354,7.935,8.545
0.763,-0.668,-0.536,184.265,-8.179,26.917
0.727,-0.672,-0.609,177.979,-20.386,40.283
0.665,-0.582,-0.599,168.884,-27.039,49.500
0.628,-0.520,-0.614,162.292,-32.166,57.373
0.608,-0.530,-0.656,157.654,-35.950,60.974
0.547,-0.594,-0.723,151.306,-36.377,58.044
0.454,-0.559,-0.765,143.005,-30.884,49.500
0.416,-0.462,-0.779,136.108,-20.020,41.321
0.455,-0.385,-0.823,132.263,-6.592,33.386
0.502,-0.333,-0.817,130.798,9.094,25.940
0.496,-0.294,-0.813,129.150,22.156,20.081
0.499,-0.281,-0.808,126.892,33.997,16.724
0.543,-0.298,-0.845,122.925,43.579,16.235
0.604,-0.261,-0.829,116.577,51.819,17.639
0.653,-0.188,-0.779,110.535,55.237,22.644
0.674,-0.151,-0.755,106.689,50.781,28.442
0.674,-0.164,-0.780,103.455,42.847,33.081
0.648,-0.133,-0.794,99.121,37.903,36.194
0.605,-0.123,-0.771,95.581,34.058,39.490
0.569,-0.068,-0.719,90.942,29.968,40.283
0.552,-0.035,-0.719,86.975,23.254,38.818
0.555,-0.024,-0.759,83.191,17.273,35.828
0.562,-0.008,-0.747,79.346,13.123,32.471
0.553,0.045,-0.712,74.158,8.484,30.273
0.528,0.098,-0.691,69.580,2.319,28.625
0.512,0.126,-0.692,63.965,-3.357,27.588
0.522,0.131,-0.765,56.458,-7.263,26.794
0.500,0.171,-0.758,48.584,-5.920,24.597
0.469,0.222,-0.741,43.030,-3.357,22.705
0.476,0.293,-0.744,39.917,-0.610,21.362
0.490,0.300,-0.726,38.940,5.554,21.362
0.509,0.311,-0.737,35.767,9.521,20.874
0.544,0.349,-0.724,31.067,11.780,18.799
0.565,0.392,-0.701,26.978,13.123,17.822
0.574,0.429,-0.684,22.705,12.146,17.578
0.570,0.452,-0.687,17.517,10.742,18.188
0.555,0.481,-0.686,11.719,10.315,19.165
0.531,0.513,-0.692,5.432,11.780,21.118
0.507,0.532,-0.695,-0.854,14.038,24.475
0.495,0.543,-0.703,-7.141,16.541,27.771
0.491,0.556,-0.708,-13.672,18.433,30.457
0.498,0.575,-0.725,-19.897,18.982,32.349
0.491,0.586,-0.749,-25.391,19.226,33.203
0.473,0.596,-0.758,-29.724,20.447,33.203
0.466,0.615,-0.761,-32.532,22.278,32.837
0.475,0.629,-0.773,-32.654,22.888,32.166
0.495,0.631,-0.793,-31.128,22.034,32.227
0.507,0.625,-0.811,-28.748,19.531,32.104
0.501,0.618,-0.829,-25.024,16.602,31.311
0.487,0.612,-0.843,-20.508,14.282,29.602
0.475,0.599,-0.855,-15.808,12.817,28.076
0.464,0.587,-0.850,-11.719,13.000,25.513
0.455,0.564,-0.844,-8.789,14.771,22.461
0.446,0.541,-0.846,-7.141,16.846,18.494
0.447,0.517,-0.848,-7.446,19.348,14.465
0.462,0.498,-0.847,-10.010,21.667,10.742
0.495,0.488,-0.852,-13.428,22.156,7.996
0.529,0.480,-0.865,-16.418,19.836,6.897
0.554,0.460,-0.886,-18.066,14.587,7.385
0.555,0.437,-0.907,-18.616,8.301,8.362
0.539,0.424,-0.922,-18.005,2.686,8.606
0.524,0.406,-0.939,-15.564,-1.343,7.690
0.511,0.381,-0.948,-11.719,-4.150,5.859
0.495,0.361,-0.949,-6.287,-5.493,2.930
0.489,0.334,-0.939,-1.343,-4.761,-0.366
0.488,0.308,-0.921,2.869,-2.930,-3.540
0.492,0.279,-0.900,5.127,-0.977,-6.165
0.501,0.258,-0.889,5.676,0.061,-8.118

0.746,-1.160,1.072,-125.977,-55.298,18.555
0.695,-1.164,1.106,-90.942,-62.683,9.399
0.685,-1.346,0.948,-44.189,-67.383,-4.395
0.655,-1.732,0.790,5.615,-62.317,-26.794
0.489,-2.141,0.624,52.979,-44.434,-57.007
0.323,-2.447,0.454,87.891,-11.414,-84.473
0.306,-2.713,0.262,95.337,33.325,-100.159
0.445,-2.708,0.103,63.416,83.069,-101.746
0.718,-2.335,-0.005,3.357,120.972,-92.651
1.087,-1.784,-0.113,-60.059,134.216,-80.322
1.311,-1.228,-0.237,-106.201,119.934,-66.833
1.307,-0.768,-0.301,-125.610,84.351,-50.415
1.168,-0.399,-0.347,-123.413,39.490,-30.579
1.004,-0.146,-0.419,-101.746,-3.601,-9.460
0.879,-0.023,-0.483,-67.505,-38.940,12.024
0.775,-0.006,-0.543,-27.100,-65.369,33.081
0.673,-0.077,-0.551,14.465,-80.994,51.697
0.610,-0.221,-0.505,53.772,-86.060,67.078
0.593,-0.392,-0.427,86.731,-85.388,77.637
0.575,-0.549,-0.334,111.084,-83.435,84.045
0.585,-0.708,-0.280,127.625,-83.008,87.280
0.602,-0.850,-0.252,135.864,-83.252,86.792
0.593,-0.948,-0.241,136.475,-83.374,82.947
0.562,-0.998,-0.255,130.310,-81.787,74.829
0.516,-0.997,-0.282,119.629,-75.012,62.439
0.453,-0.965,-0.312,109.680,-60.913,47.668
0.374,-0.943,-0.339,104.126,-39.246,32.166
0.312,-0.940,-0.372,103.210,-11.169,15.198
0.293,-0.940,-0.389,106.873,21.057,-3.235
0.322,-0.915,-0.395,113.953,56.152,-22.034
0.354,-0.864,-0.406,125.122,90.515,-40.833
0.385,-0.806,-0.422,139.709,120.422,-57.800
0.449,-0.793,-0.463,157.104,142.700,-71.472
0.552,-0.879,-0.506,171.814,159.973,-84.106
0.611,-0.906,-0.496,180.664,170.837,-98.755
0.646,-0.891,-0.489,187.439,173.523,-109.192
0.676,-0.865,-0.488,193.359,168.518,-112.793
0.700,-0.846,-0.536,197.449,156.128,-110.718
0.736,-0.801,-0.563,200.317,139.709,-103.455
0.795,-0.732,-0.540,201.904,120.239,-88.989
0.842,-0.695,-0.524,204.102,94.727,-69.031
0.861,-0.671,-0.532,205.444,64.270,-46.631
0.881,-0.635,-0.574,202.637,32.043,-24.231
0.853,-0.599,-0.591,197.388,2.136,-2.930
0.781,-0.634,-0.656,192.749,-25.635,17.700
0.704,-0.664,-0.722,186.096,-48.279,35.461
0.623,-0.646,-0.740,174.744,-64.941,46.997
0.547,-0.605,-0.753,162.476,-76.599,53.650
0.480,-0.552,-0.774,151.062,-81.177,56.213
0.425,-0.476,-0.797,142.090,-79.102,55.298
0.391,-0.413,-0.823,136.414,-71.655,52.002
0.374,-0.396,-0.870,133.057,-58.350,46.814
0.357,-0.341,-0.905,128.906,-39.368,37.781
0.363,-0.233,-0.871,124.817,-16.235,28.748
0.401,-0.159,-0.896,124.207,4.700,22.583
0.450,-0.119,-0.887,126.587,23.499,19.897
0.508,-0.057,-0.872,128.601,39.001,22.034
0.545,-0.050,-0.859,131.958,46.997,27.771
0.580,-0.077,-0.827,132.935,49.744,34.180
0.594,-0.099,-0.823,129.211,48.889,38.696
0.569,-0.106,-0.872,122.437,45.898,39.429
0.546,-0.049,-0.894,114.990,45.410,38.696
0.516,0.034,-0.872,108.887,46.204,39.307
0.472,0.076,-0.861,104.858,46.509,41.443
0.449,0.100,-0.872,100.037,48.401,42.603
0.438,0.129,-0.879,94.177,51.270,41.931
0.441,0.169,-0.873,88.135,53.833,40.833
0.446,0.218,-0.858,82.275,54.138,39.368
0.457,0.267,-0.849,77.393,52.002,38.574
0.475,0.312,-0.827,73.181,48.035,39.368
0.467,0.359,-0.812,69.519,43.091,40.588
0.407,0.391,-0.777,66.162,39.734,40.649
0.346,0.413,-0.703,62.561,39.001,39.001
0.307,0.429,-0.651,57.617,38.330,35.339
0.287,0.445,-0.646,51.453,38.025,30.212
0.279,0.462,-0.652,44.373,38.391,25.330
0.285,0.484,-0.643,36.133,37.964,21.790
0.303,0.508,-0.617,27.405,36.316,20.325
0.339,0.539,-0.603,18.372,33.020,19.470
0.366,0.569,-0.614,9.521,27.832,18.311
0.366,0.587,-0.627,1.282,21.912,18.066
0.371,0.603,-0.637,-6.470,16.296,18.494
0.368,0.611,-0.665,-13.672,10.681,18.311
0.359,0.617,-0.709,-20.325,5.554,17.334
0.349,0.627,-0.739,-25.757,2.197,16.602
0.350,0.645,-0.748,-29.114,0.854,15.686
0.355,0.653,-0.761,-29.968,-0.061,14.404
0.351,0.653,-0.790,-28.564,-1.465,13.245
0.350,0.649,-0.802,-25.818,-2.441,12.390
0.347,0.647,-0.819,-22.888,-1.892,11.230
0.335,0.638,-0.849,-20.752,-0.183,9.705
0.335,0.629,-0.899,-21.362,2.991,8.179
0.355,0.619,-0.928,-22.583,7.507,8.118
0.378,0.617,-0.938,-22.949,12.085,8.972
0.400,0.609,-0.948,-23.682,15.808,9.094
0.425,0.591,-0.953,-25.269,18.799,8.423
0.435,0.576,-0.970,-27.222,20.081,6.592
0.466,0.570,-0.985,-28.625,19.653,5.249
0.491,0.556,-0.986,-27.954,16.541,4.700
0.495,0.534,-0.987,-25.085,11.475,4.639
0.499,0.505,-0.996,-21.729,5.920,4.272
0.500,0.480,-1.005,-17.883,0.671,3.784
0.482,0.459,-1.012,-14.221,-3.906,2.563
0.469,0.436,-1.007,-10.498,-6.958,0.977
0.466,0.417,-0.995,-6.775,-8.789,-0.977
0.464,0.395,-0.983,-2.991,-10.376,-2.686
0.452,0.369,-0.980,0.549,-11.536,-3.662
0.445,0.347,-0.968,3.113,-11.841,-4.639
0.441,0.324,-0.945,5.310,-11.414,-5.493
0.432,0.299,-0.942,6.653,-11.047,-6.287
0.428,0.284,-0.966,7.629,-10.498,-7.141
0.443,0.277,-0.962,9.277,-9.583,-5.676
0.447,0.274,-0.950,11.658,-8.362,-3.906
0.437,0.263,-0.926,14.099,-6.714,-3.113
0.430,0.244,-0.912,16.235,-5.127,-2.991
0.436,0.225,-0.906,16.907,-3.845,-3.235
0.454,0.213,-0.881,17.395,-3.113,-3.601
0.469,0.201,-0.852,17.700,-3.906,-4.028
0.475,0.185,-0.818,17.456,-6.348,-4.883

0.994,-1.343,1.107,-209.473,-120.239,40.771
1.092,-1.905,1.310,-184.753,-131.042,45.715
1.176,-2.475,1.414,-169.434,-139.771,39.795
1.234,-2.822,1.338,-167.725,-142.090,22.278
1.186,-2.839,1.070,-175.781,-132.507,-5.737
1.000,-2.623,0.720,-189.331,-98.267,-43.152
0.756,-2.264,0.310,-204.529,-34.851,-82.397
0.524,-1.879,-0.150,-210.266,46.021,-112.732
0.382,-1.474,-0.468,-206.726,129.028,-129.333
0.432,-1.103,-0.627,-191.711,193.787,-130.798
0.620,-0.843,-0.668,-162.109,222.046,-125.366
0.748,-0.568,-0.591,-125.122,209.473,-119.751
0.812,-0.348,-0.474,-79.346,167.114,-114.380
0.835,-0.285,-0.378,-26.550,115.906,-107.544
0.864,-0.388,-0.316,21.606,70.068,-97.534
0.832,-0.473,-0.235,57.678,36.377,-83.862
0.762,-0.533,-0.125,83.679,19.714,-64.636
0.724,-0.583,-0.018,100.830,13.672,-43.640
0.687,-0.593,0.053,111.877,13.062,-21.545
0.676,-0.581,0.086,120.361,12.512,-0.122
0.702,-0.565,0.099,128.540,8.667,18.921
0.690,-0.566,0.096,137.451,0.610,34.424
0.650,-0.600,0.083,148.193,-9.338,44.800
0.631,-0.645,0.038,159.058,-19.470,49.011
0.602,-0.689,-0.032,171.570,-29.175,47.729
0.521,-0.743,-0.109,186.157,-35.645,40.710
0.426,-0.788,-0.175,202.576,-34.729,26.367
0.355,-0.813,-0.209,220.703,-23.682,6.104
0.321,-0.833,-0.223,239.319,-4.883,-17.517
0.333,-0.821,-0.237,256.714,17.822,-42.908
0.375,-0.828,-0.254,274.109,40.466,-66.406
0.427,-0.880,-0.266,289.490,60.486,-86.914
0.482,-0.973,-0.286,300.659,76.111,-103.577
0.539,-1.063,-0.301,306.030,85.938,-116.394
0.605,-1.097,-0.304,305.420,89.600,-123.840
0.672,-1.133,-0.331,298.767,86.548,-124.695
0.738,-1.168,-0.340,286.377,78.064,-121.704
0.778,-1.144,-0.327,269.165,63.354,-115.051
0.808,-1.088,-0.369,250.610,42.542,-101.318
0.829,-1.036,-0.425,229.919,18.982,-82.520
0.834,-0.967,-0.478,205.383,-4.517,-60.791
0.832,-0.826,-0.484,181.274,-27.649,-35.828
0.827,-0.701,-0.492,163.513,-53.528,-8.362
0.823,-0.680,-0.536,153.748,-82.214,16.785
0.794,-0.688,-0.581,147.217,-105.896,34.058
0.719,-0.702,-0.634,141.663,-123.596,42.542
0.630,-0.714,-0.695,137.573,-133.484,43.579
0.554,-0.681,-0.711,134.338,-133.179,39.673
0.512,-0.604,-0.711,132.507,-124.695,33.508
0.451,-0.555,-0.752,133.362,-110.718,26.978
0.386,-0.534,-0.768,136.658,-89.172,20.081
0.389,-0.507,-0.758,138.672,-61.035,15.259
0.416,-0.487,-0.754,138.062,-31.799,12.512
0.461,-0.454,-0.749,135.742,-4.822,10.925
0.530,-0.395,-0.717,131.409,18.494,12.451
0.587,-0.344,-0.672,125.671,34.363,16.846
0.626,-0.289,-0.648,119.202,43.823,23.071
0.650,-0.241,-0.665,112.122,47.729,28.931
0.654,-0.230,-0.699,105.774,47.546,34.424
0.636,-0.216,-0.718,97.839,46.570,38.757
0.619,-0.194,-0.731,88.684,45.410,41.504
0.628,-0.167,-0.774,78.674,44.617,41.809
0.639,-0.147,-0.784,68.420,43.274,40.100
0.646,-0.100,-0.805,57.556,41.077,37.537
0.650,-0.059,-0.832,47.485,37.781,33.936
0.670,-0.026,-0.862,38.574,33.386,30.090
0.680,0.010,-0.862,30.090,28.442,26.306
0.690,0.058,-0.857,22.156,23.132,22.400
0.700,0.094,-0.864,15.930,16.296,19.043
0.710,0.125,-0.861,11.475,7.935,17.822
0.705,0.146,-0.871,8.667,-1.160,18.005
0.685,0.146,-0.919,7.080,-9.521,18.799
0.653,0.138,-0.957,5.249,-14.587,19.592
0.619,0.172,-0.973,2.197,-13.672,20.142
0.604,0.230,-0.998,-0.183,-9.338,20.813
0.601,0.277,-1.000,-0.183,-4.272,22.522
0.589,0.323,-0.978,0.610,1.526,24.963
0.572,0.363,-0.941,3.662,7.751,26.550
0.559,0.373,-0.912,8.423,11.719,27.405
0.539,0.375,-0.880,12.878,14.526,27.039
0.527,0.380,-0.835,17.273,17.273,26.001
0.524,0.376,-0.788,21.301,17.761,24.658
0.515,0.364,-0.741,22.400,16.357,22.095
0.513,0.359,-0.716,22.095,13.184,18.799
0.519,0.362,-0.737,19.653,8.911,15.808
0.524,0.380,-0.758,15.686,3.906,13.245
0.520,0.392,-0.746,11.841,-0.488,12.146
0.511,0.407,-0.753,8.057,-3.906,11.047
0.500,0.407,-0.749,4.272,-6.836,10.559
0.487,0.411,-0.737,1.038,-8.545,10.803
0.468,0.409,-0.747,-1.221,-9.705,10.254
0.453,0.395,-0.754,-1.709,-10.071,9.399
0.438,0.378,-0.759,-1.587,-8.728,8.057
0.429,0.360,-0.766,-1.831,-5.371,5.859
0.432,0.349,-0.770,-2.258,-0.977,3.479
0.453,0.338,-0.781,-2.686,3.540,1.709
0.480,0.328,-0.785,-3.113,6.897,0.854
0.502,0.315,-0.789,-3.357,9.460,0.305
0.515,0.295,-0.785,-4.211,11.230,-0.183
0.521,0.274,-0.778,-5.859,12.878,-1.099
0.516,0.248,-0.772,-7.935,14.099,-2.197
0.523,0.216,-0.769,-10.254,15.259,-3.174
0.542,0.187,-0.781,-13.062,15.747,-4.089
0.584,0.167,-0.816,-16.846,14.954,-5.493
0.623,0.161,-0.829,-18.982,11.841,-6.531
0.651,0.167,-0.839,-19.775,7.690,-7.019
0.671,0.165,-0.863,-18.677,1.892,-7.751
0.681,0.162,-0.886,-16.968,-3.845,-8.423
0.670,0.150,-0.893,-13.733,-8.667,-8.972
0.648,0.130,-0.898,-10.193,-12.451,-9.277
0.627,0.109,-0.883,-5.859,-14.343,-9.399
0.609,0.086,-0.876,-2.625,-13.977,-9.155
0.595,0.062,-0.867,0.061,-12.817,-8.789
0.591,0.048,-0.856,1.953,-10.620,-7.812
0.589,0.038,-0.845,2.136,-8.118,-6.775
0.592,0.031,-0.838,1.892,-5.737,-5.310
0.602,0.015,-0.831,1.526,-3.723,-3.723
