aX,aY,aZ,gX,gY,gZ
-0.090,2.103,1.016,5.310,40.222,-1.587
-0.126,2.755,1.032,-7.568,57.678,-2.136
0.038,3.380,1.026,-21.179,75.500,-2.197
0.326,3.803,1.021,-33.447,86.426,-2.991
0.561,3.999,1.037,-46.021,85.205,-3.784
0.869,3.999,0.928,-57.861,67.810,-4.272
1.175,3.936,0.721,-62.500,33.752,-8.667
1.452,3.878,0.518,-58.105,-14.099,-12.695
1.473,3.789,0.190,-45.654,-78.308,-4.089
1.258,3.772,-0.210,-31.250,-148.010,17.212
0.862,3.881,-0.553,-20.264,-202.698,40.405
0.318,3.922,-0.870,-7.935,-231.995,58.716
-0.096,3.725,-0.998,9.888,-227.722,63.171
-0.537,3.257,-1.005,26.306,-190.857,66.895
-0.895,2.672,-0.960,29.968,-135.376,82.703
-1.115,2.093,-0.837,37.354,-67.993,85.632
-1.242,1.089,-0.751,60.669,-2.869,75.134
-1.338,-0.132,-0.584,79.407,46.082,75.195
-1.328,-1.290,-0.472,82.886,73.303,68.420
-1.318,-2.249,-0.197,82.703,84.595,40.527
-1.083,-3.380,0.092,94.666,75.073,-4.517
-0.849,-4.000,0.322,119.873,42.358,-57.983
-1.005,-4.000,0.466,152.405,-2.014,-105.347
-1.105,-4.000,0.876,215.698,-20.081,-146.484
-0.693,-4.000,1.664,309.448,6.592,-165.527
0.468,-4.000,2.339,406.921,51.208,-158.508
1.841,-4.000,2.497,466.309,77.026,-151.489
2.591,-3.400,2.636,456.421,79.163,-153.931
2.948,-1.843,3.373,358.887,55.481,-122.192
3.080,-0.255,4.000,244.995,-6.775,-57.739
2.378,-0.542,4.000,168.945,-99.121,-2.502
1.006,-1.245,3.254,82.092,-169.800,24.719
0.109,-1.172,2.205,-58.899,-175.293,42.969
-0.338,-0.935,1.365,-187.805,-124.451,44.495
-0.521,-0.810,0.856,-255.859,-44.434,30.029
-0.370,-0.629,0.485,-277.222,20.020,27.527
-0.144,-0.676,0.123,-266.846,39.124,41.626
-0.156,-0.636,-0.143,-242.493,14.771,50.537
-0.414,-0.505,-0.421,-211.548,-33.691,51.208
-0.728,-0.316,-0.685,-173.584,-78.308,45.044
-0.933,-0.146,-0.784,-131.775,-93.872,30.090
-0.792,-0.034,-0.715,-90.332,-80.872,13.123
-0.485,0.062,-0.547,-52.673,-60.364,4.272
-0.392,0.146,-0.236,-26.123,-38.696,6.714
-0.062,0.200,0.031,-6.592,-14.526,11.841
-0.124,0.041,0.297,19.043,-6.409,21.851
-0.211,0.073,0.654,30.029,6.592,20.874
-0.229,-0.089,0.866,44.617,17.883,14.587
-0.151,-0.124,1.047,46.692,31.006,0.854
0.058,-0.142,1.133,38.086,39.246,-10.986
0.339,-0.046,1.198,21.790,38.940,-18.433
0.477,0.071,1.206,5.554,23.804,-17.029
0.409,0.119,1.158,-4.456,0.244,-6.531
0.228,0.138,1.079,-9.277,-19.226,6.042
0.063,0.134,1.013,-10.742,-28.259,14.099
-0.026,0.110,0.992,-10.742,-27.832,17.334
-0.072,0.086,0.974,-10.864,-25.757,18.188
-0.146,0.073,0.939,-12.939,-25.635,18.616
-0.241,0.067,0.877,-15.381,-26.550,17.456
-0.312,0.059,0.809,-16.418,-24.170,13.672
-0.322,0.052,0.764,-16.785,-17.029,8.789
-0.333,0.061,0.734,-17.456,-7.690,5.371
-0.292,0.089,0.718,-17.883,1.038,3.845
-0.239,0.134,0.722,-17.151,7.874,0.671
-0.175,0.182,0.748,-13.123,9.521,-3.113
-0.115,0.201,0.778,-5.676,5.310,-5.493
-0.092,0.197,0.804,2.258,-3.540,-5.676
-0.119,0.178,0.823,7.751,-13.611,-4.944
-0.172,0.154,0.834,10.864,-20.569,-4.517
-0.205,0.141,0.834,10.132,-20.996,-3.479
-0.221,0.111,0.818,6.470,-15.076,-3.418
-0.187,0.145,0.838,1.465,-4.517,-6.042
-0.048,0.140,0.854,-3.540,4.333,-7.446
0.047,0.218,0.881,-6.775,4.089,-5.981
0.081,0.198,0.844,-7.629,-4.822,-1.892
0.005,0.233,0.812,-6.104,-17.639,3.296
-0.103,0.273,0.801,-2.563,-26.489,6.592
-0.190,0.273,0.822,2.991,-29.236,9.094
-0.251,0.244,0.831,8.362,-28.381,10.986
-0.280,0.216,0.858,12.390,-25.818,10.803
-0.333,0.197,0.858,13.733,-22.217,7.263
-0.345,0.174,0.860,11.475,-15.747,2.075
-0.318,0.190,0.886,8.545,-9.399,-1.892
-0.250,0.184,0.896,6.104,-5.188,-3.296
-0.172,0.195,0.909,3.601,-3.723,-3.723
-0.131,0.223,0.916,1.709,-6.287,-3.845
-0.139,0.243,0.908,2.502,-10.254,-3.418
-0.174,0.223,0.872,4.700,-12.207,-3.052
-0.218,0.218,0.844,6.226,-9.155,-3.052
-0.275,0.194,0.761,6.104,-0.305,-3.052
-0.307,0.209,0.775,4.700,16.846,-3.235
-0.058,0.116,0.881,5.310,31.250,-0.916
0.002,0.204,0.979,5.127,29.114,0.549
0.045,0.215,1.015,0.854,18.311,1.526
0.002,0.194,1.002,0.977,-0.122,3.479
-0.095,0.226,0.981,0.671,-13.794,3.662
-0.172,0.216,0.965,1.099,-20.142,3.296
-0.197,0.200,0.951,0.183,-18.921,1.953
-0.217,0.205,0.929,-3.113,-13.123,1.099
-0.209,0.240,0.939,-5.920,-5.005,0.488
-0.175,0.253,0.946,-5.981,2.014,-0.854
-0.125,0.250,0.958,-4.211,6.042,-1.831
-0.094,0.245,0.968,-2.380,6.165,-1.770
-0.094,0.253,0.965,-0.427,2.747,-1.160
-0.123,0.243,0.960,1.343,-0.916,-0.854
-0.134,0.227,0.966,3.174,-2.930,-1.343
-0.142,0.202,0.961,4.333,-4.272,-2.686
-0.150,0.191,0.945,3.784,-4.639,-3.235
-0.163,0.206,0.932,2.197,-3.784,-4.150
-0.163,0.220,0.928,1.709,-1.404,-5.005
-0.149,0.219,0.929,2.808,1.709,-5.371
-0.107,0.216,0.947,4.150,4.089,-5.676
-0.075,0.216,0.967,5.615,3.784,-5.920
-0.067,0.213,0.972,6.897,1.282,-5.676
-0.067,0.206,0.967,7.812,-1.038,-5.371
-0.064,0.206,0.969,8.179,-1.770,-5.371
-0.060,0.203,0.983,8.118,-1.648,-5.066
-0.044,0.188,1.000,8.179,-1.404,-3.967
-0.038,0.169,1.000,6.653,-2.075,-1.465

0.248,1.578,1.149,41.565,8.911,5.310
0.322,1.893,1.156,36.987,-2.502,7.202
0.339,2.292,1.152,29.358,-16.602,11.841
0.342,2.777,1.166,22.339,-32.166,18.921
0.302,3.207,1.154,18.982,-48.523,25.024
0.146,3.521,1.083,17.151,-65.125,29.053
0.036,3.774,0.952,11.719,-78.125,33.142
0.009,3.981,0.822,2.991,-84.473,33.630
0.073,4.000,0.663,-5.798,-86.304,28.015
0.181,4.000,0.463,-14.587,-89.966,19.653
0.270,4.000,0.310,-23.865,-97.168,14.282
0.274,3.810,0.207,-35.156,-108.398,19.226
0.079,3.331,0.022,-50.354,-121.399,40.527
-0.400,2.687,-0.262,-63.477,-122.192,67.749
-0.991,1.975,-0.607,-68.420,-87.219,85.022
-1.223,1.381,-0.697,-60.730,-9.277,84.045
-1.009,0.558,-0.556,-38.391,78.491,71.106
-0.557,-0.293,-0.133,-7.263,135.010,51.819
-0.240,-1.115,0.283,23.560,144.043,31.860
-0.099,-1.935,0.609,41.321,108.032,16.663
-0.008,-2.770,0.820,39.001,36.926,3.479
-0.319,-3.511,0.867,33.081,-47.607,-13.062
-0.918,-3.908,0.902,38.452,-114.624,-33.752
-1.401,-4.000,0.854,71.655,-138.855,-56.091
-1.653,-4.000,0.799,133.362,-108.215,-86.975
-1.329,-4.000,0.791,208.984,-24.170,-138.000
-0.299,-3.919,0.847,268.982,88.135,-203.552
0.998,-3.042,0.810,293.152,191.223,-254.944
1.909,-2.376,0.939,282.959,249.023,-261.536
2.880,-1.564,1.310,242.676,238.220,-199.402
3.241,-0.736,1.737,189.270,146.790,-103.149
2.563,-0.458,1.912,152.466,4.761,-6.775
1.339,-0.578,1.803,136.841,-134.216,76.843
-0.092,-0.543,1.823,133.301,-219.788,126.648
-1.391,-0.539,1.597,139.099,-232.361,128.479
-1.802,-0.703,1.902,130.188,-170.227,95.032
-1.600,-1.217,1.217,93.872,-107.971,38.574
-1.104,-1.056,1.235,29.419,-30.334,-25.635
-0.638,-0.878,1.042,-36.987,20.569,-62.195
-0.281,-0.599,0.832,-88.074,36.499,-57.556
-0.086,-0.438,0.693,-118.835,34.424,-28.748
-0.005,-0.246,0.597,-125.000,19.897,0.793
0.002,-0.214,0.469,-112.854,2.136,22.034
-0.014,-0.177,0.372,-92.468,-14.404,29.724
-0.052,-0.098,0.367,-70.068,-26.917,27.222
-0.119,-0.078,0.399,-46.021,-36.011,25.208
-0.193,-0.125,0.450,-23.804,-38.696,28.992
-0.294,-0.151,0.550,-5.432,-32.715,33.691
-0.319,-0.135,0.738,10.132,-17.822,36.133
-0.312,-0.155,0.937,22.888,-1.343,37.048
-0.338,-0.205,1.099,31.860,12.268,34.058
-0.357,-0.221,1.235,35.278,24.292,25.940
-0.330,-0.260,1.306,32.471,34.302,17.212
-0.233,-0.293,1.324,21.790,41.138,9.888
-0.167,-0.260,1.293,5.310,42.236,3.052
-0.077,-0.139,1.283,-12.085,38.269,-0.854
-0.065,-0.056,1.200,-23.315,26.794,1.404
-0.049,0.029,1.138,-26.184,13.306,7.996
-0.011,0.077,1.094,-21.057,1.282,14.160
-0.057,0.055,1.043,-11.780,-11.658,17.090
-0.182,0.033,1.005,-3.662,-22.583,18.005
-0.334,0.020,0.970,2.747,-26.855,16.357
-0.458,0.008,0.951,8.057,-21.179,11.597
-0.500,-0.022,0.966,12.939,-7.202,6.409
-0.469,-0.067,0.996,15.930,10.132,2.014
-0.387,-0.107,1.036,15.564,26.245,-1.648
-0.253,-0.125,1.083,11.597,36.499,-3.479
-0.159,-0.103,1.112,4.517,37.415,-4.822
-0.121,-0.061,1.130,-1.709,30.273,-5.554
-0.100,-0.046,1.119,-5.371,19.897,-5.127
-0.105,-0.058,1.094,-7.019,10.071,-4.517
-0.114,-0.068,1.063,-9.277,2.930,-3.906
-0.132,-0.064,1.029,-12.451,-0.610,-3.662
-0.156,-0.060,0.981,-15.747,-0.610,-3.235
-0.181,-0.055,0.934,-18.799,3.113,-2.869
-0.203,-0.041,0.898,-20.996,10.742,-2.686
-0.231,-0.040,0.861,-20.996,20.630,-3.235
-0.242,-0.030,0.832,-19.348,33.264,-4.395
-0.226,-0.035,0.823,-18.188,48.096,-5.493
-0.132,-0.059,0.854,-17.944,62.805,-5.066
-0.017,-0.062,0.904,-19.897,71.045,-3.601
0.062,-0.055,0.942,-23.437,69.458,-1.526
0.126,-0.039,0.975,-26.062,59.448,1.648
0.131,-0.023,0.987,-26.917,42.786,3.662
0.076,-0.009,0.967,-26.489,23.926,4.944
-0.011,0.010,0.918,-25.330,8.850,5.432
-0.108,0.056,0.871,-24.292,2.991,5.493
-0.125,0.083,0.891,-22.278,6.531,6.592
-0.096,0.047,0.881,-17.822,13.733,7.080
-0.060,0.054,0.931,-14.282,21.484,5.371
-0.024,0.049,0.965,-12.207,24.414,3.235
-0.017,0.052,0.996,-9.888,21.912,0.183
-0.023,0.063,1.014,-7.935,16.968,-2.258
-0.039,0.045,1.016,-6.470,12.817,-3.479
-0.047,0.028,1.017,-5.737,11.963,-5.066
-0.030,0.014,1.018,-6.348,14.709,-6.897
-0.022,0.048,1.015,-9.338,19.409,-8.118
-0.002,0.041,1.001,-11.902,25.757,-6.409
0.067,0.016,1.022,-13.428,32.593,-5.066
0.139,0.077,1.057,-14.771,34.058,-6.775
0.137,0.035,1.029,-14.709,28.076,-4.333
0.107,0.047,1.023,-15.442,21.362,-2.319
0.077,0.101,1.033,-14.771,16.541,-2.014
0.066,0.078,1.019,-11.475,13.550,-0.610
0.052,0.057,1.001,-9.155,13.977,0.549
0.040,0.036,0.992,-8.667,18.921,1.648
0.002,0.014,0.961,-9.827,27.649,0.610
0.000,0.051,0.964,-12.207,39.551,-2.136
0.048,0.049,0.976,-13.977,52.063,-2.563
0.160,0.029,0.999,-14.832,60.425,-0.916
0.275,0.055,1.031,-17.273,57.983,1.770
0.326,0.089,1.033,-19.287,42.175,4.883
0.302,0.103,1.005,-18.372,19.226,7.996
0.229,0.132,0.980,-15.991,-2.869,10.193
0.141,0.155,0.948,-12.817,-19.287,12.756
0.057,0.124,0.930,-8.728,-27.405,14.648
0.001,0.105,0.928,-4.883,-26.367,14.099
-0.006,0.098,0.947,-1.953,-19.409,11.902
0.009,0.104,0.979,-0.122,-11.230,9.583

0.502,1.790,0.736,18.738,32.471,-40.771
0.602,2.096,0.798,26.672,41.138,-40.588
0.766,2.516,0.847,25.574,48.035,-37.781
1.022,2.893,0.886,16.602,51.270,-32.471
1.335,3.222,0.872,1.953,46.875,-21.667
1.575,3.471,0.784,-19.653,32.166,-3.784
1.754,3.621,0.699,-44.739,7.080,22.339
1.787,3.692,0.600,-63.843,-26.306,48.706
1.579,3.619,0.384,-73.853,-65.796,70.190
1.178,3.558,0.078,-78.552,-101.990,90.210
0.658,3.603,-0.284,-81.543,-124.939,112.549
0.142,3.692,-0.640,-81.970,-127.991,138.489
-0.333,3.600,-0.994,-76.477,-108.398,161.865
-0.693,3.548,-1.179,-65.491,-67.505,176.208
-0.891,3.237,-1.287,-40.833,-15.625,181.335
-0.870,2.750,-1.217,-4.700,24.658,174.500
-0.747,2.068,-0.911,35.156,33.569,150.085
-0.566,0.815,-0.638,76.599,3.296,111.633
-0.446,-0.298,-0.294,100.403,-48.828,70.679
-0.513,-1.173,0.047,94.116,-104.797,44.006
-0.598,-1.832,0.212,78.491,-141.907,30.579
-0.842,-2.267,0.400,67.627,-127.686,29.541
-0.940,-2.713,0.448,64.087,-49.866,54.077
-0.802,-3.156,0.529,77.209,66.223,84.717
0.100,-3.572,1.042,114.685,172.668,78.491
0.947,-3.949,1.690,180.420,203.308,26.001
1.373,-4.000,2.362,260.254,142.517,-59.387
1.307,-3.986,2.536,333.069,27.466,-144.043
0.924,-3.722,2.391,366.699,-84.656,-193.054
0.561,-3.243,2.060,348.206,-148.315,-208.313
0.351,-2.560,1.663,287.109,-144.348,-214.722
0.297,-1.923,1.407,204.712,-79.712,-213.440
0.631,-1.270,1.296,118.408,14.465,-196.045
1.210,-0.703,1.214,45.410,94.482,-167.542
1.633,-0.290,1.180,-2.869,129.150,-133.423
1.802,0.010,1.192,-26.489,114.746,-91.736
1.788,0.176,1.192,-27.405,62.805,-46.753
1.289,0.163,0.963,-14.771,-9.155,-1.099
1.325,0.231,1.131,1.038,-78.735,46.875
0.454,-0.758,0.650,25.940,-139.954,79.041
-0.067,0.030,0.754,19.043,-149.841,53.589
-0.381,-0.263,0.717,29.480,-150.391,50.415
-0.701,-0.344,0.695,29.053,-132.812,43.152
-0.872,-0.426,0.615,14.343,-97.839,39.368
-0.935,-0.527,0.560,-6.897,-51.453,33.813
-0.893,-0.143,0.504,-28.687,3.479,15.442
-0.430,-0.384,0.718,-45.349,47.668,12.390
-0.079,-0.356,0.688,-51.208,60.608,5.371
0.116,0.085,0.785,-59.570,60.059,-12.146
0.229,-0.094,0.555,-51.270,36.377,-8.850
0.227,0.161,0.647,-41.077,20.935,-14.526
0.172,0.215,0.599,-24.658,5.798,-11.169
0.092,0.335,0.729,-3.967,-1.282,0.732
0.040,0.174,0.781,19.897,-5.737,15.137
-0.027,0.106,0.859,38.269,-1.282,21.301
-0.055,0.036,1.031,47.729,9.583,21.912
-0.012,-0.091,1.105,48.584,16.968,19.226
0.004,-0.150,1.186,40.344,20.081,9.644
0.004,-0.053,1.224,25.757,19.226,-2.563
0.041,-0.003,1.247,11.047,15.747,-8.484
0.131,0.064,1.227,0.916,10.254,-9.216
0.158,0.080,1.151,-3.052,1.587,-8.057
0.140,0.122,1.086,-3.601,-4.211,-7.385
0.112,0.135,1.031,-0.977,-5.371,-7.385
0.111,0.148,1.004,2.502,-2.563,-5.493
0.107,0.114,0.997,6.775,1.038,-2.441
0.088,0.104,0.992,11.108,4.883,-1.038
0.057,0.077,0.976,15.076,8.972,-1.221
0.008,0.035,0.947,17.334,14.709,-2.319
-0.007,0.003,0.952,17.578,24.170,-3.662
0.061,-0.031,0.976,14.526,34.485,-3.174
0.182,-0.053,1.031,8.850,39.185,-2.502
0.273,-0.036,1.071,2.258,33.142,-0.366
0.274,-0.007,1.060,-2.197,16.968,1.831
0.197,0.024,1.012,-3.052,-0.183,2.380
0.093,0.046,0.962,-0.916,-9.277,1.892
0.005,0.043,0.934,1.831,-7.385,1.587
-0.034,0.016,0.920,4.211,4.395,0.732
-0.032,-0.009,0.918,5.615,22.217,-1.343
0.001,-0.031,0.927,4.578,41.382,-3.601
0.044,-0.038,0.927,1.892,58.472,-5.615
0.156,-0.032,0.937,-2.502,72.510,-5.676
0.261,0.003,0.942,-8.240,78.186,-4.028
0.335,0.045,0.956,-12.268,72.876,-1.526
0.373,0.093,0.974,-13.550,59.570,2.625
0.338,0.125,0.978,-11.963,40.405,7.019
0.273,0.125,0.976,-7.874,22.400,10.254
0.211,0.095,0.980,-3.357,10.010,11.780
0.163,0.063,0.986,0.000,4.028,11.597
0.122,0.034,0.982,1.038,4.700,9.827
0.100,0.004,0.977,-0.244,11.353,7.751
0.085,0.005,0.968,-3.906,21.851,5.859
0.082,0.020,0.959,-8.667,35.706,4.211
0.123,0.019,0.954,-13.062,51.025,3.113
0.194,0.028,0.966,-16.724,63.416,2.075
0.264,0.042,0.980,-19.287,69.763,1.160
0.391,0.045,1.006,-20.386,70.007,1.587
0.533,0.053,1.044,-21.179,60.791,4.578
0.580,0.069,1.035,-21.240,39.063,8.667
0.547,0.104,1.010,-21.057,13.000,13.916
0.432,0.116,0.967,-18.677,-9.338,19.897
0.297,0.102,0.921,-15.015,-21.912,24.963
0.187,0.091,0.894,-12.268,-22.217,26.367
0.114,0.086,0.891,-10.742,-12.451,24.231
0.092,0.081,0.902,-10.559,2.441,20.508
0.110,0.091,0.928,-11.536,19.104,16.418
0.141,0.101,0.953,-12.451,33.508,11.658
0.177,0.100,0.967,-13.000,44.495,6.836
0.263,0.089,0.994,-13.550,51.575,2.869
0.386,0.092,1.019,-15.381,51.697,0.610
0.463,0.116,1.028,-17.822,42.664,0.732
0.472,0.147,1.004,-19.409,27.344,2.991
0.449,0.168,0.967,-18.860,11.719,6.165
0.413,0.176,0.928,-17.212,-0.549,8.301
0.377,0.177,0.901,-14.832,-7.690,9.399
0.345,0.176,0.891,-12.390,-9.583,9.644
0.340,0.162,0.898,-9.399,-7.935,9.827
0.332,0.144,0.912,-7.141,-4.700,10.193
0.313,0.129,0.928,-5.615,-0.854,10.132

1.189,2.252,0.214,-17.212,42.419,-63.354
1.481,2.604,0.100,-19.775,24.048,-62.744
1.699,2.849,-0.025,-23.621,1.038,-56.702
1.821,3.108,-0.156,-30.090,-19.043,-42.114
1.881,3.406,-0.234,-38.391,-32.898,-18.738
1.839,3.523,-0.361,-40.344,-39.612,11.719
1.711,3.537,-0.516,-39.001,-38.818,45.410
1.551,3.474,-0.635,-36.438,-33.447,76.599
1.309,3.312,-0.777,-31.128,-29.968,106.201
0.980,3.236,-0.945,-25.757,-31.494,140.869
0.695,3.147,-1.056,-19.653,-36.438,180.786
0.364,2.909,-1.216,-7.446,-41.138,214.539
-0.073,2.652,-1.379,4.639,-41.443,239.868
-0.348,2.558,-1.362,20.020,-32.776,249.573
-0.521,2.349,-1.136,55.664,-18.311,234.619
-0.516,1.812,-0.774,99.915,-21.545,204.834
-0.365,1.027,-0.368,131.104,-54.688,168.030
-0.321,0.103,-0.051,140.747,-108.582,129.761
-0.527,-0.670,0.269,127.686,-166.199,103.882
-0.853,-1.289,0.625,104.675,-201.233,94.910
-1.093,-1.726,0.768,94.238,-191.528,89.417
-1.141,-1.915,0.895,107.178,-112.244,85.266
-0.797,-2.045,0.951,151.062,19.409,98.694
0.078,-2.519,1.207,229.065,157.715,106.018
1.124,-3.402,1.674,310.547,244.568,82.092
1.967,-4.000,2.113,352.661,240.295,22.888
2.335,-4.000,2.363,345.947,157.166,-63.782
2.189,-3.781,2.456,303.467,36.743,-158.630
1.806,-3.160,2.195,250.061,-77.332,-224.731
1.250,-2.597,1.736,188.965,-148.743,-249.817
0.741,-1.996,1.240,121.582,-155.090,-248.779
0.470,-1.454,0.835,57.922,-99.426,-233.826
0.509,-1.110,0.498,4.944,-5.615,-215.698
0.818,-0.874,0.194,-42.175,92.712,-194.397
1.251,-0.529,0.107,-82.703,165.588,-166.687
1.648,-0.090,0.243,-103.821,189.331,-128.723
1.762,0.500,0.522,-93.262,160.278,-84.045
1.733,0.622,0.519,-45.349,87.952,-27.893
1.271,0.237,0.485,15.259,7.080,15.869
1.002,0.431,0.628,61.584,-57.983,38.025
0.539,-0.008,0.588,103.394,-109.985,64.636
0.182,-0.151,0.937,119.202,-135.559,76.233
0.077,-0.276,1.144,118.042,-147.034,88.440
-0.105,-0.713,1.012,106.079,-154.419,100.098
-0.459,-0.664,1.125,68.420,-140.381,87.341
-0.679,-0.484,1.010,23.254,-106.628,67.383
-0.731,-0.328,1.041,-10.925,-55.115,41.809
-0.571,-0.230,0.919,-33.813,0.000,17.639
-0.305,-0.132,0.862,-46.509,45.410,0.916
-0.074,-0.066,0.798,-50.903,76.965,-9.644
0.126,-0.004,0.752,-46.997,91.858,-17.212
0.283,0.048,0.699,-39.001,93.384,-23.376
0.396,0.123,0.721,-28.564,86.121,-27.283
0.508,0.171,0.769,-15.808,71.960,-26.062
0.566,0.150,0.785,-0.916,51.941,-21.301
0.523,0.163,0.842,13.245,32.471,-17.578
0.490,0.079,0.860,26.306,17.151,-13.123
0.441,0.127,0.974,34.302,8.362,-9.766
0.491,0.047,1.012,39.551,1.526,-3.540
0.458,0.071,1.081,41.016,-5.554,0.061
0.454,0.082,1.117,39.551,-13.062,2.991
0.381,0.055,1.097,38.330,-20.630,5.249
0.327,0.041,1.082,35.156,-21.545,5.798
0.266,0.006,1.034,30.579,-15.747,4.028
0.250,0.047,1.085,24.170,-4.517,0.305
0.311,0.047,1.084,18.982,3.784,-0.732
0.331,0.014,1.075,13.794,6.592,-0.183
0.299,0.042,1.064,7.690,6.531,-1.709
0.283,0.031,1.038,4.272,5.066,-3.113
0.285,0.031,1.015,2.808,4.089,-5.493
0.297,0.028,1.000,2.869,3.296,-8.118
0.309,-0.003,0.964,2.563,3.906,-7.874
0.287,-0.023,0.923,0.793,6.348,-7.141
0.252,-0.025,0.880,-2.075,11.841,-8.362
0.263,-0.019,0.866,-4.883,20.752,-11.292
0.310,-0.012,0.853,-7.812,29.846,-13.672
0.347,0.011,0.847,-10.925,36.743,-13.794
0.362,0.042,0.847,-12.878,41.809,-13.245
0.367,0.038,0.836,-12.878,44.861,-11.658
0.357,0.033,0.823,-11.841,46.997,-10.498
0.351,0.035,0.811,-11.047,48.706,-9.644
0.336,0.028,0.806,-10.498,50.110,-8.972
0.345,0.001,0.804,-9.766,50.964,-9.277
0.389,0.002,0.826,-9.460,51.514,-10.620
0.444,0.017,0.851,-9.583,48.828,-12.024
0.490,0.018,0.862,-8.606,42.664,-13.123
0.510,0.025,0.865,-8.057,34.790,-13.367
0.518,0.039,0.854,-7.690,26.855,-12.634
0.509,0.055,0.844,-8.118,20.935,-10.864
0.501,0.062,0.848,-8.057,17.639,-8.484
0.498,0.061,0.857,-7.202,15.991,-7.080
0.504,0.057,0.872,-5.981,14.832,-7.446
0.530,0.045,0.886,-5.310,13.794,-8.728
0.547,0.040,0.893,-5.371,11.414,-9.460
0.553,0.049,0.888,-6.226,7.568,-8.850
0.544,0.057,0.883,-6.531,4.150,-7.568
0.524,0.059,0.876,-5.737,1.831,-6.592
0.505,0.041,0.868,-4.272,1.282,-5.371
0.473,0.019,0.870,-4.395,3.723,-4.517
0.448,0.013,0.882,-6.409,8.606,-3.784
0.456,0.005,0.895,-9.460,14.160,-3.235
0.469,-0.001,0.896,-12.451,18.372,-3.601
0.484,0.005,0.894,-15.442,20.996,-5.127
0.507,0.025,0.894,-17.456,22.461,-6.592
0.542,0.031,0.888,-18.250,22.400,-7.263
0.583,0.037,0.878,-18.616,20.325,-7.019
0.610,0.051,0.872,-18.555,16.724,-6.104
0.625,0.065,0.870,-17.761,12.634,-4.028
0.627,0.065,0.866,-15.381,8.484,-1.343
0.619,0.052,0.864,-13.245,5.371,2.014
0.613,0.041,0.862,-11.719,4.456,5.188
0.586,0.042,0.857,-10.864,5.188,8.118
0.549,0.039,0.861,-10.742,7.507,11.047
0.527,0.030,0.867,-10.864,11.414,14.160
0.521,0.026,0.879,-11.230,15.564,15.564
0.516,0.026,0.885,-12.207,18.616,15.259
0.528,0.025,0.893,-13.611,19.653,14.832
0.546,0.025,0.893,-15.747,18.433,14.832
0.554,0.034,0.881,-17.578,15.320,15.320

0.873,1.967,0.160,14.465,14.771,-43.457
1.075,2.132,0.143,13.428,22.461,-40.588
1.319,2.305,0.167,9.094,26.855,-29.724
1.509,2.497,0.190,1.892,23.315,-8.057
1.619,2.677,0.186,-4.456,10.437,22.705
1.645,2.825,0.152,-6.653,-7.690,56.274
1.599,2.974,0.124,-4.822,-26.367,88.501
1.477,3.030,0.086,0.183,-44.495,118.713
1.300,3.062,0.041,9.033,-61.707,142.273
1.103,3.004,-0.014,22.461,-77.576,153.687
0.909,2.884,-0.120,38.574,-92.651,151.001
0.737,2.751,-0.225,54.626,-105.896,138.428
0.615,2.552,-0.285,67.200,-116.516,125.061
0.493,2.319,-0.328,71.777,-122.986,119.690
0.338,2.052,-0.370,64.026,-125.549,125.000
0.123,1.776,-0.462,50.842,-123.108,133.301
-0.081,1.565,-0.505,41.870,-111.816,132.751
-0.250,1.365,-0.526,44.983,-95.947,121.704
-0.346,1.109,-0.542,63.416,-86.609,102.661
-0.364,0.753,-0.534,95.642,-87.402,74.524
-0.434,0.309,-0.460,135.986,-97.778,44.006
-0.565,-0.236,-0.315,175.720,-112.122,23.621
-0.740,-0.816,-0.213,204.956,-118.713,15.198
-0.876,-1.353,-0.107,222.168,-101.563,13.306
-0.852,-1.878,0.069,224.915,-50.720,22.705
-0.586,-2.367,0.318,213.501,25.146,47.241
-0.308,-2.855,0.623,191.040,98.450,73.547
0.127,-3.368,0.990,166.260,146.606,72.876
0.701,-3.633,1.328,143.677,153.198,29.968
1.082,-3.531,1.650,125.061,110.291,-40.527
1.282,-3.094,1.876,119.629,29.114,-112.915
1.236,-2.490,1.926,132.629,-62.988,-168.701
1.004,-2.016,1.840,152.039,-137.207,-196.594
0.667,-1.767,1.614,162.964,-175.720,-194.824
0.360,-1.556,1.353,150.146,-167.847,-176.453
0.223,-1.299,1.134,113.770,-115.417,-157.410
0.283,-1.018,0.961,63.599,-33.447,-145.386
0.454,-0.798,0.824,11.658,54.688,-138.000
0.653,-0.655,0.669,-33.630,130.066,-127.930
1.016,-0.384,0.709,-67.688,182.068,-114.319
1.393,-0.116,0.880,-82.703,195.190,-98.206
1.606,0.094,0.874,-76.050,157.654,-74.219
1.424,0.019,0.769,-58.228,90.942,-41.382
1.218,0.254,0.758,-39.246,24.475,-16.174
0.870,0.183,0.691,-11.047,-33.081,6.226
0.786,0.060,0.716,14.954,-69.824,29.053
0.428,-0.217,0.519,36.865,-89.722,37.415
0.272,-0.033,0.794,43.457,-84.778,29.785
0.133,-0.122,0.796,52.429,-77.087,29.724
0.117,-0.252,0.847,51.575,-60.730,32.593
-0.038,-0.314,0.798,40.710,-40.771,31.189
-0.065,-0.240,0.918,20.630,-12.024,30.579
-0.052,-0.314,0.767,3.540,13.855,28.931
-0.048,-0.139,0.850,-12.634,43.091,16.724
0.065,-0.037,0.817,-20.386,66.345,3.357
0.182,0.018,0.862,-19.531,79.956,-7.080
0.339,0.069,0.883,-13.916,82.642,-14.160
0.393,0.071,0.861,-5.798,75.317,-18.738
0.437,0.112,0.906,0.549,64.026,-20.447
0.473,0.112,0.919,7.324,48.035,-19.348
0.509,0.080,0.921,13.062,30.396,-17.578
0.533,0.067,0.924,17.395,13.489,-18.860
0.546,0.098,0.963,21.118,-1.099,-22.461
0.595,0.070,0.984,24.658,-14.038,-22.095
0.618,0.059,1.005,26.794,-26.733,-18.555
0.589,0.038,1.003,26.489,-37.903,-13.367
0.529,0.016,0.986,23.376,-44.678,-7.080
0.483,0.015,0.972,18.433,-45.593,-1.709
0.446,0.021,0.957,14.526,-42.114,1.343
0.418,0.024,0.948,11.841,-35.889,2.258
0.386,0.012,0.943,10.132,-28.137,2.747
0.353,-0.001,0.926,8.423,-18.982,3.540
0.322,-0.011,0.898,5.981,-9.399,3.845
0.309,-0.009,0.885,3.296,0.366,3.357
0.330,-0.004,0.879,1.099,8.240,2.197
0.357,0.001,0.876,0.061,12.939,-0.122
0.382,0.013,0.870,0.488,13.855,-2.563
0.402,0.027,0.866,2.197,11.963,-4.883
0.421,0.022,0.860,5.432,7.812,-6.592
0.443,0.002,0.866,9.033,1.831,-7.324
0.454,-0.005,0.876,11.353,-5.066,-6.836
0.447,-0.019,0.873,11.719,-12.451,-4.761
0.414,-0.021,0.868,10.986,-18.860,-1.892
0.373,-0.024,0.857,10.193,-22.156,0.488
0.335,-0.026,0.866,10.071,-21.545,1.831
0.305,-0.023,0.883,9.277,-17.639,3.967
0.293,-0.033,0.897,8.423,-12.512,7.141
0.283,-0.035,0.915,6.714,-7.568,8.972
0.279,-0.030,0.934,4.761,-3.479,9.155
0.286,-0.025,0.950,3.357,0.122,8.057
0.301,-0.024,0.961,2.441,2.747,5.920
0.322,-0.015,0.965,1.648,4.333,3.601
0.325,-0.001,0.963,0.549,5.371,1.587
0.324,-0.005,0.949,-0.244,6.653,1.099
0.338,0.001,0.943,-1.831,8.972,1.831
0.354,0.013,0.952,-4.089,11.230,2.502
0.370,0.020,0.960,-5.310,11.841,2.625
0.374,0.027,0.969,-5.554,10.986,2.869
0.374,0.023,0.976,-4.944,9.155,3.235
0.367,0.014,0.969,-4.272,6.958,3.296
0.359,0.010,0.961,-4.639,5.493,2.991
0.343,0.008,0.952,-5.493,5.005,1.892
0.344,0.005,0.943,-6.836,5.371,0.183
0.350,0.017,0.938,-9.155,6.470,-1.648
0.355,0.030,0.931,-11.169,7.385,-2.930
0.364,0.040,0.925,-12.024,8.362,-3.601
0.369,0.040,0.924,-11.658,9.216,-4.456
0.396,0.038,0.928,-10.803,9.827,-5.493
0.427,0.038,0.922,-9.949,9.094,-6.165
0.451,0.036,0.917,-9.766,6.714,-5.859
0.478,0.040,0.913,-10.132,4.089,-5.310
0.497,0.049,0.904,-10.010,1.099,-4.639
0.496,0.051,0.896,-10.010,-1.648,-3.479
0.479,0.047,0.885,-9.827,-3.662,-2.136
0.456,0.042,0.876,-9.460,-3.784,-0.488
0.439,0.038,0.868,-9.033,-2.319,0.977
0.426,0.039,0.862,-9.094,-0.061,1.648
0.425,0.039,0.858,-9.033,2.808,1.404
0.439,0.030,0.859,-9.094,5.615,0.793

0.503,1.378,0.643,-0.366,1.282,79.468
0.443,1.445,0.609,4.578,-0.610,79.224
0.394,1.515,0.583,8.301,-2.197,77.393
0.379,1.586,0.542,9.094,-5.493,74.890
0.353,1.656,0.493,7.385,-10.193,70.740
0.310,1.777,0.395,2.869,-16.235,64.026
0.276,1.964,0.279,-2.747,-20.020,56.091
0.240,2.116,0.156,-4.944,-20.325,47.974
0.265,2.216,0.060,-2.869,-18.372,38.147
0.346,2.311,-0.020,3.479,-18.311,24.109
0.436,2.447,-0.071,15.259,-24.963,7.812
0.564,2.420,-0.122,32.166,-40.466,-4.272
0.666,2.235,-0.197,49.011,-66.467,-10.986
0.667,1.979,-0.267,57.434,-96.741,-10.315
0.540,1.657,-0.351,53.162,-123.169,1.526
0.315,1.365,-0.407,42.236,-137.756,16.541
0.024,1.037,-0.410,31.860,-135.559,25.146
-0.265,0.613,-0.355,23.560,-117.493,24.780
-0.485,0.220,-0.232,15.259,-88.684,13.672
-0.583,0.013,-0.047,10.742,-56.702,-6.470
-0.589,-0.220,0.175,16.846,-31.006,-27.100
-0.427,-0.492,0.443,31.677,-17.639,-39.673
-0.081,-0.754,0.806,51.880,-24.048,-41.992
0.141,-1.026,1.066,76.294,-62.073,-36.743
0.061,-1.316,1.159,104.370,-121.826,-29.297
-0.212,-1.543,1.153,134.827,-170.166,-18.372
-0.484,-1.805,1.175,168.762,-184.998,-8.118
-0.640,-2.158,1.236,204.590,-161.682,-6.409
-0.717,-2.409,1.296,232.239,-106.995,-19.287
-0.619,-2.499,1.317,242.004,-26.917,-42.969
-0.276,-2.484,1.373,231.812,64.209,-70.007
0.223,-2.288,1.434,199.158,146.179,-99.976
0.750,-1.960,1.460,147.217,201.660,-131.531
1.147,-1.499,1.414,82.520,222.900,-153.259
1.401,-1.013,1.303,18.982,211.548,-157.715
1.498,-0.590,1.177,-32.898,176.208,-146.484
1.453,-0.239,1.024,-66.162,129.150,-127.014
1.322,0.045,0.886,-79.163,82.825,-103.882
1.170,0.225,0.745,-73.547,42.969,-79.285
0.988,0.275,0.624,-54.993,12.939,-54.138
0.819,0.262,0.553,-30.762,-4.883,-29.785
0.712,0.229,0.551,-6.042,-12.634,-8.240
0.663,0.190,0.623,17.273,-17.883,7.080
0.517,0.067,0.649,36.011,-24.231,20.325
0.491,-0.031,0.765,45.776,-27.588,31.006
0.341,-0.125,0.802,49.011,-29.419,34.790
0.358,-0.074,0.919,41.748,-27.405,34.973
0.170,-0.190,0.835,31.250,-27.100,36.987
0.117,-0.137,0.860,14.099,-18.860,35.339
0.083,-0.027,0.894,0.671,-6.409,27.588
0.186,-0.017,0.879,-4.395,4.211,20.935
0.256,-0.012,0.855,-7.080,10.620,14.465
0.274,0.022,0.836,-9.705,12.390,8.484
0.330,0.037,0.825,-11.719,12.207,5.249
0.423,0.048,0.814,-11.047,8.850,3.357
0.472,0.091,0.808,-9.949,1.343,2.563
0.497,0.122,0.793,-7.446,-8.179,4.456
0.478,0.124,0.766,-3.296,-17.273,7.324
0.445,0.170,0.791,1.404,-22.949,8.789
0.436,0.131,0.805,7.324,-26.611,11.047
0.414,0.107,0.818,12.695,-29.358,12.939
0.385,0.115,0.835,15.686,-29.907,12.878
0.347,0.127,0.859,17.456,-28.381,12.024
0.315,0.135,0.885,19.348,-24.902,10.437
0.300,0.135,0.928,20.813,-19.592,7.629
0.298,0.107,0.965,21.545,-14.771,4.700
0.309,0.086,1.002,20.569,-10.864,2.563
0.326,0.074,1.026,17.151,-7.812,1.770
0.330,0.076,1.030,11.841,-4.822,1.526
0.318,0.091,1.008,5.798,-1.526,0.549
0.306,0.111,0.992,-0.244,3.174,-1.343
0.316,0.124,0.963,-4.456,9.277,-3.113
0.343,0.143,0.942,-6.958,15.076,-4.639
0.368,0.162,0.927,-8.423,19.653,-5.981
0.399,0.168,0.927,-8.118,22.583,-6.531
0.450,0.171,0.932,-6.165,23.010,-6.714
0.508,0.177,0.949,-3.113,19.897,-5.981
0.553,0.167,0.966,0.610,12.207,-3.906
0.561,0.150,0.967,3.174,1.404,-1.099
0.541,0.138,0.962,4.395,-8.972,2.625
0.515,0.120,0.953,5.066,-16.724,5.859
0.484,0.109,0.945,5.798,-21.973,7.751
0.455,0.098,0.936,6.165,-23.804,8.667
0.428,0.079,0.927,6.287,-22.461,9.277
0.410,0.070,0.925,5.066,-18.372,10.010
0.381,0.073,0.925,2.136,-12.878,11.292
0.345,0.075,0.915,-1.953,-6.897,13.062
0.311,0.088,0.898,-5.981,0.122,13.916
0.296,0.102,0.875,-10.193,8.240,13.062
0.312,0.115,0.858,-12.878,15.442,10.986
0.343,0.136,0.861,-14.709,20.020,8.179
0.383,0.158,0.863,-15.320,21.118,5.554
0.412,0.170,0.866,-14.709,18.982,4.211
0.433,0.178,0.866,-13.367,14.526,4.150
0.430,0.193,0.864,-12.146,9.399,4.822
0.425,0.200,0.856,-9.216,5.432,5.066
0.434,0.192,0.844,-5.188,3.418,4.700
0.437,0.175,0.845,-1.526,2.258,4.089
0.440,0.152,0.852,0.854,1.343,4.395
0.438,0.136,0.858,1.465,0.977,5.920
0.427,0.127,0.857,0.488,0.732,7.568
0.427,0.118,0.856,-1.343,0.977,8.606
0.413,0.131,0.839,-2.747,1.160,7.812
0.386,0.145,0.810,-3.845,2.686,6.836
0.387,0.147,0.793,-3.967,6.287,5.127
0.408,0.164,0.813,-2.441,10.315,1.648
0.427,0.157,0.818,0.610,11.719,-0.610
0.450,0.129,0.828,3.296,10.742,-0.793
0.452,0.100,0.828,3.479,8.057,1.282
0.456,0.095,0.839,0.366,4.700,5.493
0.459,0.082,0.846,-3.845,0.854,9.705
0.463,0.073,0.841,-8.362,-3.235,12.695
0.459,0.078,0.843,-13.306,-7.446,13.855
0.440,0.097,0.852,-17.334,-11.536,13.855
0.407,0.103,0.842,-18.921,-14.771,14.038
0.375,0.089,0.827,-18.616,-16.174,14.648
0.339,0.088,0.808,-18.066,-14.282,14.709
0.329,0.079,0.805,-18.250,-9.216,13.855
0.349,0.091,0.811,-18.555,-2.991,12.390

0.848,1.262,0.657,12.634,19.470,-11.169
0.864,1.301,0.702,17.761,1.770,-6.165
0.808,1.291,0.740,20.020,-12.085,2.686
0.713,1.263,0.749,17.578,-19.470,14.832
0.612,1.270,0.716,9.766,-19.348,25.696
0.518,1.367,0.652,-0.793,-12.939,32.104
0.470,1.493,0.562,-11.536,-2.869,35.889
0.452,1.682,0.443,-20.691,8.545,38.513
0.446,1.972,0.313,-25.146,17.456,38.452
0.488,2.278,0.210,-22.949,22.827,36.682
0.585,2.409,0.125,-14.282,23.071,34.302
0.711,2.448,0.006,-3.113,15.198,30.579
0.798,2.404,-0.076,4.944,-2.136,24.475
0.814,2.271,-0.214,9.705,-28.259,19.836
0.796,2.155,-0.371,12.024,-60.242,17.639
0.748,2.047,-0.510,10.559,-93.384,16.724
0.626,1.970,-0.626,10.376,-124.084,17.761
0.409,1.845,-0.694,10.132,-146.362,25.269
0.164,1.524,-0.731,6.897,-156.799,43.396
-0.086,1.156,-0.716,0.122,-154.175,62.134
-0.338,0.798,-0.647,-4.395,-142.517,67.322
-0.459,0.497,-0.491,-0.244,-127.625,58.289
-0.425,0.158,-0.242,13.794,-116.455,41.809
-0.373,-0.146,-0.012,32.349,-117.126,30.151
-0.347,-0.451,0.283,52.246,-128.479,26.245
-0.452,-0.828,0.537,76.111,-143.494,24.414
-0.640,-1.208,0.721,102.112,-150.452,19.531
-0.741,-1.622,0.954,128.662,-136.719,8.606
-0.673,-1.990,1.241,153.992,-98.511,-0.793
-0.408,-2.078,1.513,173.706,-49.805,0.793
-0.127,-2.055,1.669,196.533,-10.315,5.615
0.080,-2.072,1.746,225.586,14.832,1.831
0.226,-2.079,1.731,251.160,29.785,-17.517
0.337,-2.095,1.688,260.559,42.542,-48.645
0.492,-2.023,1.646,245.911,57.922,-80.933
0.717,-1.795,1.675,206.604,70.923,-103.943
0.906,-1.431,1.714,151.001,73.059,-111.267
1.006,-1.033,1.665,93.506,57.800,-102.478
0.982,-0.643,1.551,42.847,28.137,-82.947
0.820,-0.353,1.369,6.714,-6.165,-61.951
0.602,-0.173,1.162,-14.709,-34.912,-44.922
0.392,-0.046,0.968,-24.902,-50.781,-33.630
0.213,0.057,0.822,-27.588,-51.575,-27.039
0.121,0.134,0.766,-23.621,-39.124,-23.743
0.130,0.162,0.762,-12.573,-20.142,-23.682
0.167,0.132,0.750,1.709,-2.747,-24.475
0.389,0.090,0.847,14.526,9.460,-22.766
0.460,0.028,0.833,25.635,7.141,-22.034
0.524,0.119,0.978,30.579,-2.869,-21.851
0.496,0.081,0.960,35.767,-20.264,-14.099
0.372,-0.035,0.945,36.438,-35.767,-0.916
0.229,-0.031,0.922,29.724,-40.466,9.338
0.145,-0.014,0.949,24.475,-34.363,13.672
0.154,-0.057,0.948,21.301,-23.254,12.817
0.119,-0.056,0.955,17.334,-10.742,5.249
0.085,-0.029,0.961,12.268,1.770,-4.639
0.111,-0.026,0.964,8.484,15.259,-13.428
0.184,-0.019,0.949,5.371,27.832,-21.362
0.273,-0.003,0.936,2.136,36.865,-27.588
0.369,0.024,0.937,-0.793,40.649,-30.518
0.441,0.051,0.935,-1.282,38.635,-30.823
0.481,0.106,0.966,0.610,31.921,-29.663
0.510,0.106,0.972,4.517,21.667,-23.376
0.495,0.118,0.975,7.202,10.620,-15.076
0.442,0.115,0.974,8.972,1.648,-7.507
0.380,0.102,0.972,10.742,-3.113,-3.357
0.335,0.118,0.995,12.573,-3.906,-3.113
0.315,0.117,1.011,14.038,-2.808,-3.723
0.306,0.102,1.022,14.160,-0.977,-4.333
0.312,0.108,1.048,13.306,1.343,-5.737
0.329,0.077,1.042,12.939,2.991,-6.897
0.329,0.062,1.036,10.193,4.578,-7.996
0.324,0.066,1.027,5.737,7.202,-9.155
0.331,0.066,1.007,1.404,10.498,-9.521
0.348,0.078,0.983,-2.808,14.465,-9.521
0.358,0.097,0.958,-6.104,18.555,-9.644
0.357,0.102,0.935,-8.179,22.156,-8.972
0.362,0.113,0.930,-9.583,26.123,-7.385
0.371,0.119,0.938,-9.094,29.053,-5.310
0.392,0.119,0.940,-7.019,29.480,-3.479
0.424,0.106,0.950,-4.700,27.283,-2.197
0.445,0.084,0.963,-3.296,22.766,-0.732
0.443,0.070,0.962,-3.418,16.479,1.465
0.423,0.074,0.956,-5.676,9.766,4.456
0.401,0.088,0.950,-7.751,4.883,7.568
0.379,0.078,0.940,-8.301,2.258,9.521
0.349,0.069,0.927,-9.277,2.075,10.437
0.321,0.070,0.918,-10.742,4.517,10.864
0.297,0.078,0.905,-12.451,8.789,10.437
0.287,0.091,0.892,-13.855,14.465,9.460
0.309,0.090,0.882,-14.282,20.203,7.141
0.341,0.100,0.882,-14.465,23.621,4.395
0.367,0.127,0.887,-14.282,23.743,1.831
0.383,0.142,0.882,-13.794,20.691,0.793
0.385,0.151,0.877,-12.817,16.113,1.099
0.374,0.157,0.870,-11.719,11.780,1.282
0.366,0.151,0.861,-10.132,8.240,0.732
0.356,0.144,0.856,-9.399,6.226,0.183
0.345,0.142,0.856,-9.460,5.798,0.183
0.351,0.139,0.863,-9.827,6.409,0.427
0.360,0.140,0.870,-10.071,7.080,-0.549
0.386,0.146,0.878,-10.010,6.897,-2.075
0.405,0.147,0.877,-8.972,5.432,-3.235
0.404,0.132,0.858,-8.728,3.052,-3.357
0.399,0.136,0.855,-9.705,1.343,-3.235
0.405,0.148,0.857,-10.071,0.977,-3.174
0.424,0.146,0.857,-9.827,0.244,-2.502
0.434,0.141,0.857,-9.644,-0.793,-1.099
0.430,0.134,0.858,-9.399,-2.502,-0.061
0.423,0.130,0.865,-8.972,-3.845,0.305
0.417,0.123,0.867,-8.667,-4.639,0.183
0.412,0.118,0.864,-8.728,-5.005,-0.244
0.411,0.118,0.872,-10.010,-5.005,-0.183
0.403,0.132,0.879,-11.353,-4.517,0.183
0.401,0.143,0.884,-12.024,-3.357,0.732
0.410,0.142,0.896,-11.963,-1.953,1.343
0.419,0.140,0.909,-11.963,-1.465,1.465
0.416,0.135,0.910,-11.780,-1.404,1.282
0.411,0.129,0.906,-12.268,-0.610,1.526

0.669,1.520,0.748,-3.906,65.918,2.319
0.705,1.750,0.709,-7.751,58.228,9.155
0.706,2.025,0.635,-11.597,46.448,17.151
0.656,2.391,0.524,-15.137,33.875,25.635
0.598,2.781,0.396,-16.907,24.841,30.823
0.562,2.985,0.273,-14.709,21.667,32.471
0.567,2.941,0.168,-11.047,23.071,32.471
0.636,2.676,0.096,-8.789,25.818,31.189
0.746,2.513,0.045,-12.024,25.024,26.794
0.859,2.403,-0.001,-18.616,17.700,22.217
0.947,2.296,-0.075,-24.536,1.038,23.987
0.943,2.204,-0.148,-29.785,-23.499,31.555
0.820,2.172,-0.202,-32.837,-52.246,44.373
0.620,2.013,-0.283,-32.288,-80.261,62.683
0.369,1.772,-0.381,-28.931,-103.027,81.482
0.103,1.398,-0.397,-25.208,-118.408,94.238
-0.093,0.912,-0.361,-20.691,-129.272,101.501
-0.221,0.467,-0.272,-17.456,-142.395,104.858
-0.287,0.063,-0.135,-10.742,-162.292,103.271
-0.342,-0.331,0.050,7.263,-187.988,94.543
-0.440,-0.687,0.222,38.513,-215.759,78.552
-0.631,-1.012,0.407,81.482,-237.488,58.289
-0.844,-1.303,0.637,133.118,-240.479,36.438
-0.984,-1.534,0.890,194.031,-217.834,12.695
-1.031,-1.871,1.096,258.667,-172.607,-13.428
-0.898,-2.286,1.300,314.575,-114.136,-34.485
-0.727,-2.570,1.489,356.018,-56.396,-47.241
-0.485,-2.721,1.635,386.230,-6.775,-56.519
-0.204,-2.835,1.649,400.940,35.400,-69.580
0.091,-2.828,1.492,385.498,74.768,-96.985
0.494,-2.611,1.360,331.177,117.065,-138.489
0.888,-2.123,1.333,246.826,154.114,-182.861
1.179,-1.491,1.295,155.396,171.875,-210.693
1.396,-0.892,1.246,77.698,167.358,-208.008
1.524,-0.431,1.205,20.691,142.273,-179.626
1.515,-0.125,1.133,-12.695,102.417,-140.442
1.347,-0.021,0.978,-26.001,54.565,-98.083
1.100,-0.011,0.808,-28.870,9.277,-57.129
0.864,-0.034,0.680,-27.405,-24.780,-21.118
0.625,-0.009,0.603,-23.804,-48.950,9.155
0.389,-0.014,0.560,-19.043,-61.951,37.415
0.269,-0.010,0.603,-10.925,-64.148,58.289
0.152,-0.127,0.614,1.648,-61.890,70.007
-0.087,-0.180,0.555,12.573,-54.016,69.397
-0.065,-0.151,0.826,18.738,-34.485,64.819
-0.028,-0.359,0.737,26.611,-22.583,56.396
-0.030,-0.321,0.816,19.836,-6.714,40.344
-0.014,-0.304,0.833,4.822,8.423,28.931
-0.013,-0.306,0.798,-12.024,24.780,21.667
-0.048,-0.195,0.766,-28.931,44.922,14.648
0.037,-0.086,0.790,-40.894,69.214,9.644
0.187,-0.056,0.829,-44.312,88.074,5.493
0.330,-0.030,0.881,-42.114,95.032,1.343
0.473,-0.011,0.927,-38.147,88.318,-0.061
0.542,-0.010,0.920,-33.752,69.275,0.977
0.569,0.021,0.918,-30.151,43.945,3.052
0.574,0.048,0.903,-24.963,16.541,5.554
0.530,0.053,0.877,-18.005,-8.606,7.812
0.460,0.080,0.853,-10.559,-27.527,10.132
0.374,0.126,0.839,-1.831,-38.208,11.902
0.293,0.130,0.857,7.690,-38.940,12.939
0.228,0.134,0.906,16.296,-30.823,13.000
0.215,0.125,0.965,23.499,-18.188,13.123
0.215,0.080,1.003,27.893,-4.028,11.963
0.223,0.020,1.042,28.442,10.193,8.301
0.262,0.015,1.110,25.146,23.865,1.221
0.340,0.012,1.147,19.897,33.020,-5.371
0.400,0.009,1.164,13.123,36.560,-11.108
0.427,0.024,1.146,4.883,36.560,-14.099
0.441,0.057,1.129,-3.967,35.278,-12.878
0.492,0.076,1.103,-10.620,33.264,-8.118
0.509,0.060,1.050,-15.015,29.419,-3.540
0.513,0.080,1.024,-18.433,25.024,-0.732
0.502,0.094,0.992,-19.226,19.653,1.343
0.483,0.107,0.965,-17.761,14.038,3.174
0.463,0.120,0.946,-15.442,8.667,5.615
0.438,0.125,0.935,-11.902,3.784,7.629
0.420,0.119,0.931,-7.751,-0.183,9.155
0.403,0.107,0.929,-4.150,-3.113,11.047
0.382,0.086,0.929,-2.563,-5.127,13.062
0.356,0.073,0.928,-2.502,-5.371,14.099
0.342,0.063,0.932,-3.784,-3.967,13.855
0.343,0.059,0.943,-5.188,-1.160,13.000
0.355,0.072,0.957,-6.592,1.526,11.902
0.370,0.073,0.967,-7.935,3.174,11.414
0.386,0.076,0.972,-9.644,2.563,11.719
0.390,0.080,0.971,-11.475,0.793,12.085
0.379,0.081,0.951,-13.672,-1.831,13.123
0.353,0.087,0.925,-16.235,-3.540,13.428
0.322,0.097,0.905,-18.311,-2.869,12.573
0.324,0.119,0.904,-18.616,-0.061,10.193
0.353,0.113,0.891,-17.212,2.930,7.996
0.373,0.120,0.896,-16.174,4.395,6.165
0.391,0.143,0.887,-16.113,3.662,5.371
0.395,0.140,0.885,-14.709,2.319,5.371
0.388,0.160,0.884,-13.550,0.977,5.371
0.388,0.170,0.887,-12.573,-0.366,5.371
0.395,0.157,0.891,-11.902,-1.709,6.470
0.395,0.148,0.892,-12.085,-3.601,7.812
0.383,0.155,0.892,-12.756,-5.432,8.484
0.364,0.158,0.894,-13.611,-6.531,8.911
0.355,0.158,0.891,-14.648,-6.653,8.911
0.352,0.160,0.888,-15.686,-6.165,8.484
0.350,0.167,0.888,-16.602,-5.432,7.080
0.358,0.170,0.888,-16.602,-4.333,5.188
0.367,0.172,0.891,-16.541,-2.991,3.418
0.377,0.170,0.899,-16.357,-2.075,2.380
0.391,0.163,0.904,-16.235,-1.526,2.502
0.396,0.151,0.903,-16.357,-1.587,2.563
0.394,0.138,0.898,-16.479,-1.343,2.014
0.389,0.132,0.895,-17.273,-0.366,1.709
0.396,0.125,0.894,-18.311,1.221,1.709
0.406,0.126,0.896,-19.592,3.357,2.441
0.420,0.138,0.895,-20.874,5.249,3.540
0.436,0.138,0.893,-21.667,6.165,5.066
0.448,0.136,0.893,-22.644,6.348,6.897
0.459,0.145,0.897,-23.865,5.676,8.789
0.474,0.151,0.909,-24.048,4.517,10.071
0.497,0.148,0.922,-23.499,2.380,11.597

0.679,1.141,0.893,2.197,6.897,13.245
0.706,1.104,0.924,2.563,-0.916,17.212
0.722,1.069,0.944,2.747,-9.705,22.888
0.689,1.022,0.935,2.197,-20.691,29.297
0.617,1.027,0.900,1.953,-32.410,32.959
0.515,1.089,0.847,2.869,-42.358,31.982
0.406,1.158,0.788,6.653,-48.889,29.114
0.309,1.274,0.738,14.526,-49.683,26.489
0.205,1.392,0.679,25.146,-45.044,25.024
0.123,1.500,0.606,36.499,-34.119,25.391
0.105,1.556,0.556,46.021,-17.639,27.954
0.125,1.609,0.497,49.255,0.732,31.006
0.210,1.762,0.453,42.358,18.127,33.203
0.372,1.971,0.419,28.320,29.419,32.227
0.524,2.196,0.363,10.193,30.273,27.893
0.625,2.407,0.265,-9.705,18.433,21.667
0.624,2.453,0.091,-27.588,-2.869,12.939
0.542,2.419,-0.150,-43.640,-25.391,2.014
0.441,2.377,-0.387,-56.274,-43.762,-7.446
0.388,2.386,-0.552,-62.256,-59.631,-11.047
0.337,2.407,-0.609,-54.932,-81.055,-9.766
0.213,2.230,-0.604,-22.034,-114.990,-6.653
-0.001,1.850,-0.535,32.471,-160.828,-4.700
-0.301,1.274,-0.453,98.633,-211.914,-4.517
-0.655,0.561,-0.350,159.485,-253.235,-3.601
-0.993,-0.195,-0.219,202.637,-269.470,0.671
-1.199,-0.957,0.013,227.173,-251.404,6.775
-1.260,-1.764,0.313,231.140,-192.200,25.818
-1.031,-2.263,0.526,217.163,-103.333,72.449
-0.687,-2.528,0.769,211.914,-16.663,116.821
-0.282,-2.909,1.000,229.431,53.284,114.807
0.031,-3.382,1.231,247.437,96.680,66.956
0.253,-3.591,1.413,247.620,109.009,-8.057
0.472,-3.428,1.578,226.196,100.525,-78.247
0.733,-2.957,1.766,189.331,79.041,-128.113
0.857,-2.388,1.775,146.301,45.776,-156.921
0.858,-1.874,1.564,99.854,11.841,-167.664
0.865,-1.404,1.235,48.157,-6.897,-165.344
0.919,-0.973,0.956,-2.747,-6.958,-155.090
0.986,-0.608,0.809,-46.021,3.784,-137.268
1.026,-0.287,0.748,-77.148,15.015,-111.084
1.087,-0.016,0.823,-90.271,19.287,-79.773
1.100,0.250,0.913,-82.764,9.277,-46.509
0.968,0.401,0.946,-57.434,-14.404,-9.766
0.797,0.219,0.919,-24.292,-45.044,31.860
0.582,0.054,0.852,2.136,-76.599,61.951
0.167,-0.129,0.682,16.113,-102.478,81.238
-0.021,-0.216,0.792,18.738,-109.741,89.417
-0.198,-0.236,0.757,20.203,-108.521,78.857
-0.266,-0.217,0.765,19.653,-102.112,61.401
-0.497,-0.316,0.663,14.160,-88.806,45.227
-0.474,-0.113,0.784,3.601,-59.875,26.917
-0.469,-0.112,0.721,-2.563,-32.776,15.564
-0.280,-0.093,0.748,-8.545,-7.141,9.460
-0.191,-0.056,0.750,-12.817,12.207,1.221
-0.114,-0.024,0.760,-13.733,24.048,-5.859
-0.063,0.004,0.758,-11.658,32.043,-12.512
0.002,0.054,0.802,-6.287,38.757,-19.043
0.066,0.057,0.818,1.343,41.809,-21.545
0.109,0.054,0.846,8.301,42.908,-20.569
0.143,0.047,0.874,14.771,42.419,-18.433
0.164,0.026,0.895,20.203,40.283,-15.991
0.185,0.018,0.930,23.132,36.804,-14.343
0.200,0.002,0.965,24.963,31.372,-13.489
0.197,-0.013,0.999,24.597,25.330,-11.841
0.182,-0.023,1.005,22.156,19.958,-8.606
0.156,-0.041,1.003,18.005,16.418,-5.188
0.123,-0.030,1.001,11.841,15.564,-3.723
0.125,-0.002,1.013,5.737,16.724,-4.395
0.150,0.024,1.015,1.587,17.578,-6.531
0.180,0.047,1.012,-1.038,16.785,-8.423
0.212,0.059,1.008,-1.770,14.160,-9.827
0.235,0.058,0.994,-1.343,10.742,-10.559
0.252,0.068,0.985,-0.244,8.179,-10.620
0.257,0.077,0.982,1.831,6.531,-9.277
0.250,0.078,0.982,4.517,5.188,-6.348
0.240,0.078,0.976,7.202,4.883,-2.930
0.231,0.068,0.981,9.888,5.005,0.305
0.236,0.041,0.995,12.085,4.883,3.113
0.241,0.017,1.013,13.000,3.418,4.883
0.242,0.011,1.037,12.451,0.061,6.470
0.241,0.002,1.060,11.108,-5.432,8.240
0.232,-0.012,1.071,9.155,-12.207,9.888
0.210,-0.013,1.067,6.836,-19.836,10.864
0.178,-0.005,1.053,3.906,-26.123,11.597
0.147,-0.002,1.034,1.282,-29.419,12.329
0.112,-0.000,1.016,-1.160,-29.785,12.695
0.072,0.001,1.001,-3.357,-26.978,12.878
0.032,-0.000,0.988,-5.493,-20.996,13.184
0.008,-0.002,0.976,-7.019,-12.451,13.062
-0.001,-0.007,0.965,-8.240,-2.380,11.536
0.000,-0.004,0.953,-9.766,7.996,9.155
0.011,0.010,0.944,-11.047,17.944,6.714
0.028,0.023,0.938,-12.390,26.672,4.517
0.050,0.027,0.927,-13.367,34.241,2.197
0.080,0.026,0.922,-13.855,40.161,0.122
0.123,0.031,0.922,-14.404,43.884,-0.977
0.170,0.034,0.932,-14.221,45.288,-1.282
0.220,0.040,0.945,-13.306,42.664,-0.854
0.255,0.054,0.961,-12.268,36.438,-0.183
0.276,0.062,0.972,-10.986,27.344,1.282
0.286,0.060,0.978,-9.888,16.052,3.540
0.270,0.064,0.972,-9.399,3.723,6.287
0.224,0.055,0.954,-9.338,-6.714,9.521
0.168,0.035,0.932,-9.155,-12.756,11.292
0.130,0.045,0.935,-9.216,-13.733,10.254
0.115,0.036,0.933,-9.338,-11.902,8.911
0.121,0.018,0.941,-9.949,-9.033,8.240
0.117,0.023,0.934,-11.597,-5.798,7.141
0.117,0.041,0.937,-13.794,-2.075,5.859
0.129,0.049,0.949,-15.259,1.038,5.066
0.154,0.036,0.958,-16.174,3.052,4.761
0.176,0.024,0.962,-16.724,4.089,4.150
0.189,0.028,0.971,-17.578,4.272,3.296
0.208,0.023,0.979,-18.738,3.479,3.235
0.221,0.022,0.994,-20.081,1.282,4.150
0.221,0.033,0.996,-21.423,-1.648,5.737
0.217,0.042,0.999,-22.583,-4.944,8.057
0.198,0.039,1.000,-23.193,-8.301,10.498

0.336,1.406,0.750,10.071,7.996,17.273
0.311,1.458,0.688,4.395,2.808,20.813
0.244,1.502,0.614,-6.531,-0.122,27.222
0.153,1.549,0.527,-19.714,0.488,33.020
0.141,1.653,0.430,-32.043,5.005,34.485
0.168,1.770,0.333,-40.161,11.963,29.419
0.232,1.935,0.251,-42.786,18.066,22.156
0.320,2.146,0.201,-38.452,20.935,15.808
0.369,2.295,0.188,-25.452,18.982,13.306
0.404,2.379,0.180,-5.249,11.108,15.320
0.429,2.440,0.197,19.531,-1.587,16.357
0.450,2.274,0.252,48.706,-17.334,14.587
0.492,2.041,0.269,73.425,-36.560,14.221
0.475,1.889,0.289,86.060,-56.702,17.273
0.359,1.727,0.288,92.346,-73.853,25.391
0.191,1.530,0.250,95.642,-84.290,39.368
-0.073,1.298,0.206,98.694,-85.938,57.007
-0.420,0.990,0.141,104.187,-77.698,72.144
-0.774,0.605,0.111,111.938,-56.152,80.872
-1.021,0.102,0.120,121.399,-21.240,77.881
-1.116,-0.475,0.193,130.310,27.527,62.988
-0.985,-1.010,0.343,132.507,83.069,41.992
-0.710,-1.459,0.527,125.427,125.916,19.958
-0.392,-1.956,0.711,110.962,141.907,0.488
-0.153,-2.362,0.861,92.102,128.601,-19.836
-0.012,-2.597,0.985,76.294,95.215,-50.110
0.043,-2.713,1.058,72.327,54.626,-87.219
0.029,-2.749,1.102,81.299,17.334,-123.047
0.001,-2.685,1.111,100.891,-6.714,-155.029
0.109,-2.452,1.103,124.512,-11.902,-182.495
0.333,-2.140,1.008,143.494,-1.587,-204.529
0.533,-1.832,0.923,147.400,20.874,-218.323
0.703,-1.390,0.969,133.301,51.086,-212.036
0.895,-0.967,1.050,114.258,75.989,-184.326
1.082,-0.670,1.105,95.398,87.524,-148.193
1.172,-0.385,1.195,77.454,85.938,-116.577
1.210,-0.106,1.371,64.453,72.693,-90.393
1.240,-0.029,1.473,61.951,48.584,-69.824
1.174,-0.175,1.437,59.143,16.846,-54.871
1.005,-0.356,1.277,46.021,-16.846,-38.452
0.761,-0.477,1.101,17.700,-41.260,-18.005
0.523,-0.385,0.948,-15.442,-49.866,-0.183
0.383,-0.314,0.856,-39.246,-44.250,13.855
0.358,-0.190,0.830,-49.438,-31.311,18.127
0.303,-0.172,0.729,-50.293,-19.775,20.691
0.162,-0.302,0.582,-49.866,-9.399,26.917
0.051,-0.167,0.657,-52.368,9.644,26.245
0.087,-0.126,0.718,-46.326,27.527,25.391
0.199,-0.282,0.698,-32.593,35.339,26.794
0.243,-0.195,0.793,-28.931,39.978,21.057
0.312,-0.222,0.801,-26.367,35.706,17.822
0.350,-0.153,0.899,-26.794,25.696,14.587
0.348,-0.108,0.870,-25.940,8.667,11.597
0.296,-0.084,0.875,-23.499,-7.507,9.583
0.239,-0.076,0.860,-19.958,-18.188,6.714
0.175,-0.098,0.845,-13.794,-21.484,2.502
0.159,-0.077,0.851,-8.240,-16.846,-3.418
0.144,-0.047,0.847,-2.319,-7.568,-10.193
0.156,-0.008,0.880,2.563,4.639,-14.832
0.200,-0.024,0.895,7.202,18.005,-15.808
0.252,-0.030,0.937,10.254,31.128,-15.503
0.319,-0.007,0.983,10.742,40.405,-14.404
0.360,0.016,1.014,10.620,42.908,-12.573
0.418,0.005,1.060,10.132,39.978,-9.644
0.485,-0.020,1.080,8.911,31.982,-5.981
0.501,-0.029,1.080,4.211,19.592,-2.563
0.466,-0.036,1.047,-1.770,5.859,0.061
0.417,-0.017,1.015,-6.653,-3.174,-0.122
0.390,-0.015,0.983,-9.094,-6.104,-1.892
0.400,-0.013,0.960,-10.010,-4.700,-2.808
0.416,-0.007,0.929,-10.925,-1.221,-1.526
0.408,0.006,0.912,-12.207,2.930,1.221
0.394,0.025,0.903,-12.390,7.690,4.395
0.384,0.037,0.915,-11.108,12.817,6.775
0.389,0.041,0.940,-8.057,17.151,8.545
0.396,0.017,0.957,-4.761,18.921,10.742
0.391,-0.019,0.964,-2.319,18.799,12.390
0.379,-0.042,0.959,-2.441,17.822,12.329
0.377,-0.051,0.952,-4.211,16.968,11.902
0.392,-0.047,0.950,-7.690,15.991,11.658
0.416,-0.037,0.945,-11.047,13.367,12.512
0.420,-0.028,0.931,-13.733,8.423,13.672
0.409,-0.022,0.918,-16.113,2.502,15.137
0.390,-0.010,0.903,-17.273,-2.808,16.174
0.358,0.007,0.894,-17.517,-6.531,17.029
0.323,0.026,0.880,-16.968,-7.935,17.700
0.291,0.037,0.861,-15.198,-7.080,17.883
0.269,0.034,0.852,-13.428,-4.028,17.456
0.263,0.035,0.851,-12.573,1.038,16.968
0.260,0.026,0.853,-12.634,6.958,15.991
0.266,0.053,0.873,-13.306,12.451,14.099
0.300,0.061,0.900,-13.367,16.357,12.390
0.355,0.044,0.922,-12.390,16.907,11.414
0.388,0.029,0.924,-11.841,13.550,10.315
0.389,0.051,0.928,-13.306,8.179,8.728
0.382,0.071,0.923,-14.771,2.441,7.812
0.376,0.076,0.897,-15.320,-2.075,8.118
0.359,0.084,0.877,-16.296,-4.761,7.996
0.339,0.097,0.869,-16.785,-4.456,7.629
0.330,0.094,0.869,-15.747,-2.563,7.568
0.330,0.085,0.869,-13.855,0.183,7.141
0.334,0.078,0.869,-11.841,3.662,5.859
0.342,0.061,0.869,-10.376,7.690,5.127
0.351,0.050,0.867,-10.071,11.414,5.249
0.373,0.052,0.867,-10.986,14.709,5.676
0.398,0.069,0.871,-12.512,16.418,6.042
0.420,0.073,0.880,-14.221,16.235,6.836
0.443,0.074,0.892,-16.113,13.062,8.240
0.457,0.081,0.902,-17.883,8.301,10.010
0.450,0.090,0.898,-18.494,2.686,11.353
0.438,0.088,0.892,-18.433,-2.319,12.878
0.430,0.095,0.887,-18.616,-6.042,14.221
0.411,0.097,0.880,-18.982,-8.545,15.381
0.380,0.099,0.872,-19.043,-9.399,16.052
0.357,0.111,0.870,-19.043,-7.568,16.235
0.347,0.107,0.869,-18.066,-3.662,15.808
0.351,0.104,0.874,-17.212,1.221,15.747
0.363,0.107,0.883,-17.090,6.165,15.991
0.376,0.113,0.890,-16.541,10.437,15.625

0.311,1.489,0.794,-3.357,-10.498,58.228
0.294,1.561,0.747,3.845,-24.963,54.626
0.258,1.696,0.679,8.057,-38.147,51.636
0.202,1.837,0.609,10.742,-45.593,47.424
0.054,1.981,0.498,10.315,-44.128,43.762
-0.130,2.186,0.335,7.263,-29.602,40.039
-0.287,2.418,0.157,7.202,1.526,32.715
-0.312,2.455,0.007,13.733,47.058,21.729
-0.286,2.333,-0.108,22.888,94.910,9.338
-0.151,2.079,-0.101,30.762,132.324,0.488
0.119,1.814,0.027,37.292,144.897,-3.662
0.243,1.533,0.141,47.791,118.652,-9.949
0.191,1.116,0.237,62.134,62.317,-13.306
-0.067,0.563,0.246,76.599,-6.470,-16.724
-0.410,0.012,0.185,88.562,-64.453,-31.738
-0.723,-0.433,0.092,91.675,-95.032,-51.880
-0.982,-0.781,0.011,86.060,-94.971,-67.627
-1.090,-1.144,0.012,86.121,-65.796,-83.008
-0.910,-1.521,0.244,102.173,-10.620,-104.980
-0.611,-1.897,0.489,128.296,52.551,-125.977
-0.297,-2.266,0.676,150.330,105.164,-135.376
-0.051,-2.542,0.823,162.048,143.433,-135.193
0.310,-2.725,1.089,164.368,174.561,-134.705
0.812,-2.724,1.357,156.250,187.439,-132.507
1.193,-2.408,1.551,137.695,164.062,-132.080
1.393,-1.941,1.673,116.821,113.342,-132.507
1.399,-1.554,1.572,95.093,50.354,-128.540
1.264,-1.308,1.370,65.979,-5.188,-123.474
1.094,-1.031,1.157,25.513,-38.940,-119.202
0.990,-0.712,0.980,-16.357,-50.781,-112.610
0.907,-0.442,0.856,-50.964,-46.570,-100.647
0.856,-0.196,0.779,-71.045,-34.912,-82.397
0.829,0.019,0.751,-73.853,-20.386,-59.387
0.815,0.097,0.750,-59.875,-8.179,-36.255
0.804,0.036,0.729,-38.086,-0.977,-17.883
0.733,-0.014,0.686,-20.020,2.014,-6.958
0.628,-0.031,0.665,-11.963,5.859,2.991
0.574,-0.052,0.669,-8.850,13.428,12.756
0.469,-0.054,0.679,-5.859,22.705,16.724
0.416,-0.031,0.749,-3.784,33.691,18.433
0.410,-0.042,0.806,0.610,41.443,21.912
0.390,-0.120,0.825,4.578,44.556,24.719
0.306,-0.191,0.790,4.639,42.542,26.611
0.203,-0.204,0.728,-0.061,41.260,24.963
0.123,-0.166,0.684,-5.859,44.250,17.639
0.112,-0.125,0.660,-10.620,51.697,8.118
0.160,-0.083,0.648,-12.939,59.692,-1.221
0.237,-0.060,0.640,-13.794,65.796,-9.216
0.300,-0.033,0.645,-13.428,69.702,-17.029
0.374,0.005,0.674,-11.902,71.594,-24.292
0.435,0.013,0.690,-7.751,70.435,-28.503
0.501,0.019,0.720,-3.601,67.505,-29.663
0.568,-0.004,0.735,0.061,62.439,-28.809
0.614,0.009,0.764,2.075,54.565,-27.161
0.666,0.022,0.783,1.953,43.457,-23.315
0.694,0.035,0.804,1.038,30.334,-18.738
0.699,0.054,0.810,0.488,16.418,-14.160
0.690,0.073,0.818,0.183,3.540,-10.010
0.661,0.082,0.829,0.854,-7.507,-6.836
0.628,0.074,0.838,2.441,-15.991,-4.150
0.606,0.063,0.836,4.639,-22.156,-2.747
0.582,0.059,0.831,5.615,-25.085,-1.770
0.561,0.059,0.832,5.981,-25.024,-0.916
0.560,0.062,0.840,5.493,-22.278,0.305
0.568,0.060,0.854,5.249,-18.677,1.526
0.571,0.061,0.860,4.944,-16.174,3.296
0.562,0.052,0.862,4.089,-14.526,5.676
0.542,0.041,0.860,3.113,-12.939,7.568
0.527,0.037,0.851,2.075,-11.047,8.057
0.521,0.034,0.837,0.366,-8.606,7.385
0.520,0.037,0.825,-1.404,-5.920,6.226
0.524,0.042,0.811,-3.418,-3.357,5.493
0.528,0.047,0.796,-4.700,-1.038,4.944
0.531,0.051,0.784,-4.944,1.160,3.967
0.536,0.063,0.772,-4.761,3.845,2.930
0.544,0.073,0.770,-3.967,6.531,2.136
0.561,0.084,0.776,-2.563,8.789,1.648
0.575,0.085,0.786,-0.977,10.437,1.221
0.583,0.084,0.799,0.000,11.230,2.563
0.586,0.078,0.817,-0.244,11.108,5.615
0.577,0.072,0.822,-1.770,10.254,8.423
0.565,0.070,0.822,-4.028,9.399,10.010
0.564,0.071,0.819,-6.226,9.583,9.888
0.570,0.077,0.814,-8.118,10.315,8.484
0.583,0.084,0.807,-9.338,11.536,7.385
0.598,0.095,0.798,-10.559,12.817,6.714
0.611,0.095,0.789,-11.475,14.038,6.714
0.631,0.087,0.781,-13.123,14.709,7.629
0.653,0.092,0.773,-14.771,14.587,8.850
0.663,0.103,0.766,-16.113,14.404,9.827
0.671,0.111,0.766,-16.968,13.184,10.803
0.678,0.104,0.766,-16.663,11.230,11.719
0.683,0.114,0.760,-15.503,8.911,12.939
0.669,0.110,0.745,-13.977,6.592,14.221
0.666,0.099,0.739,-12.329,5.371,15.381
0.669,0.084,0.731,-11.108,5.066,16.479
0.680,0.066,0.731,-10.742,5.127,18.433
0.686,0.058,0.735,-11.963,4.761,21.790
0.698,0.065,0.746,-14.526,3.601,26.489
0.742,0.056,0.773,-16.296,0.732,31.616
0.828,0.034,0.802,-18.250,-7.202,36.926
0.885,0.002,0.845,-19.348,-23.193,40.894
0.886,-0.033,0.863,-20.142,-45.471,43.152
0.816,-0.070,0.835,-20.386,-69.458,44.128
0.730,-0.086,0.810,-21.912,-87.158,44.128
0.635,-0.093,0.776,-24.353,-97.534,42.358
0.533,-0.045,0.729,-27.893,-100.830,38.940
0.435,0.011,0.688,-31.067,-96.863,34.851
0.344,0.058,0.660,-32.593,-85.693,32.471
0.282,0.112,0.642,-32.593,-67.566,32.227
0.266,0.149,0.645,-32.532,-44.495,33.936
0.291,0.186,0.669,-32.227,-21.790,36.072
0.319,0.204,0.701,-31.250,-3.418,37.781
0.369,0.194,0.741,-30.212,8.972,38.940
0.424,0.190,0.776,-28.870,14.709,38.086
0.462,0.194,0.801,-26.733,14.099,35.095
0.504,0.192,0.811,-24.536,9.216,31.494
0.526,0.223,0.808,-22.156,2.197,28.259
0.539,0.247,0.798,-21.057,-4.333,27.588

0.255,1.859,0.488,-2.991,4.944,58.167
0.223,2.013,0.420,-3.784,-2.319,52.490
0.244,2.247,0.332,-2.502,-9.827,42.969
0.263,2.516,0.265,2.869,-17.456,31.494
0.277,2.757,0.203,14.465,-25.574,22.217
0.332,2.850,0.153,30.823,-34.241,16.296
0.395,2.777,0.125,47.424,-43.884,10.559
0.488,2.656,0.137,59.448,-57.556,3.479
0.591,2.419,0.124,68.176,-78.247,-3.357
0.610,2.156,0.075,74.036,-105.896,-9.155
0.542,1.934,0.025,75.623,-135.681,-10.864
0.403,1.636,-0.028,76.050,-162.842,-5.249
0.179,1.283,-0.121,75.989,-181.885,4.272
-0.093,0.928,-0.174,74.768,-188.049,14.771
-0.352,0.538,-0.180,73.486,-178.406,25.330
-0.579,0.086,-0.164,74.158,-153.137,36.743
-0.693,-0.355,-0.062,75.745,-115.784,49.194
-0.731,-0.726,0.097,77.820,-80.811,57.739
-0.725,-1.024,0.284,85.266,-58.594,57.617
-0.679,-1.338,0.510,103.882,-50.720,46.814
-0.589,-1.666,0.744,129.517,-57.861,28.931
-0.507,-1.975,0.922,156.555,-80.444,7.812
-0.542,-2.243,1.035,181.702,-109.741,-11.780
-0.609,-2.408,1.115,203.430,-134.338,-27.466
-0.717,-2.425,1.130,222.107,-142.761,-41.382
-0.788,-2.295,1.111,236.633,-125.854,-57.495
-0.748,-2.146,1.068,243.896,-81.421,-77.637
-0.525,-2.024,1.045,239.929,-15.076,-100.037
-0.104,-1.780,1.116,218.872,56.763,-117.676
0.302,-1.514,1.193,185.181,112.305,-124.573
0.667,-1.206,1.284,144.348,140.564,-119.080
0.922,-0.893,1.346,105.042,138.794,-107.361
1.056,-0.627,1.401,71.411,112.793,-92.773
1.130,-0.402,1.439,46.448,69.031,-74.829
1.080,-0.226,1.413,31.799,13.855,-56.335
0.919,-0.167,1.273,23.987,-39.673,-38.025
0.687,-0.155,1.094,16.663,-79.163,-19.470
0.400,-0.235,0.943,8.057,-95.886,-1.892
0.201,-0.179,0.880,-0.183,-88.562,9.521
-0.001,-0.221,0.778,-4.456,-65.369,18.372
-0.177,-0.280,0.691,-8.423,-30.518,25.818
-0.271,-0.206,0.731,-13.062,12.573,26.550
-0.151,-0.168,0.817,-13.550,51.086,27.283
-0.027,-0.252,0.826,-10.254,70.251,29.541
0.003,-0.233,0.846,-12.390,74.646,28.931
-0.037,-0.219,0.827,-15.869,68.665,26.184
-0.095,-0.196,0.810,-17.883,61.340,20.203
-0.097,-0.140,0.815,-17.639,56.519,12.878
-0.058,-0.124,0.796,-14.709,52.917,8.057
-0.073,-0.075,0.810,-11.230,50.537,2.991
-0.091,-0.052,0.819,-5.920,50.293,-0.305
-0.098,-0.065,0.822,-0.366,52.795,-0.793
-0.091,-0.063,0.840,2.808,57.617,-0.671
-0.054,-0.063,0.870,3.845,62.683,-0.610
0.005,-0.048,0.895,4.150,64.819,-1.953
0.097,-0.035,0.945,4.578,62.561,-4.822
0.174,-0.007,0.987,6.348,52.856,-8.057
0.212,0.017,1.007,8.789,36.316,-9.033
0.219,0.033,1.016,11.841,16.785,-7.202
0.195,0.036,1.016,14.954,-0.610,-4.761
0.154,0.035,1.017,17.578,-12.878,-3.113
0.101,0.030,1.020,19.348,-20.203,-1.770
0.057,0.021,1.020,20.874,-21.545,-1.221
0.026,0.012,1.029,22.583,-17.639,-2.136
0.015,-0.015,1.043,23.560,-10.254,-3.296
0.015,-0.042,1.052,22.827,-1.465,-4.211
0.012,-0.047,1.051,21.057,7.690,-6.226
0.026,-0.049,1.056,18.555,17.334,-8.850
0.066,-0.061,1.064,15.564,26.245,-10.315
0.134,-0.060,1.075,11.597,32.104,-10.376
0.188,-0.047,1.087,6.897,32.715,-8.789
0.228,-0.042,1.095,2.930,28.625,-6.714
0.266,-0.047,1.102,0.671,19.958,-5.310
0.274,-0.047,1.080,-1.648,7.751,-3.723
0.238,-0.029,1.050,-4.395,-5.066,-1.831
0.196,-0.007,1.021,-5.859,-14.771,1.099
0.157,-0.042,0.977,-5.188,-20.203,4.089
0.109,-0.036,0.963,-4.822,-19.653,4.517
0.088,-0.023,0.969,-4.272,-15.869,3.723
0.087,-0.043,0.962,-2.991,-11.414,3.296
0.085,-0.051,0.954,-2.502,-7.141,2.258
0.073,-0.039,0.952,-2.502,-2.625,0.061
0.068,-0.027,0.948,-2.808,2.808,-1.770
0.074,-0.028,0.945,-2.808,8.606,-2.808
0.076,-0.029,0.943,-3.113,14.343,-3.418
0.090,-0.017,0.951,-2.747,19.470,-4.761
0.128,-0.010,0.959,-2.502,23.193,-5.615
0.165,-0.021,0.965,-3.174,24.414,-4.272
0.187,-0.009,0.978,-5.249,22.949,-3.174
0.194,0.004,0.981,-6.592,18.616,-2.563
0.205,0.001,0.976,-6.409,13.794,-2.075
0.212,0.011,0.976,-6.104,8.362,-1.709
0.201,0.030,0.980,-6.042,2.747,-1.526
0.190,0.022,0.973,-5.432,-2.380,-0.610
0.170,0.015,0.957,-5.188,-6.042,-0.122
0.152,0.030,0.950,-5.615,-7.812,-0.671
0.135,0.029,0.938,-6.042,-7.568,-0.916
0.125,0.024,0.933,-5.432,-5.432,-0.732
0.114,0.031,0.933,-5.066,-1.526,-1.404
0.108,0.030,0.944,-3.784,3.662,-2.869
0.142,0.019,0.968,-2.869,9.827,-3.235
0.187,0.007,0.986,-2.197,13.184,-3.418
0.218,0.006,0.995,-2.686,12.634,-3.418
0.234,0.004,0.992,-3.906,9.277,-3.296
0.243,-0.001,0.992,-5.249,4.211,-3.052
0.261,0.014,0.976,-7.141,-1.343,-2.197
0.265,0.012,0.969,-8.606,-7.019,-0.793
0.257,0.038,0.975,-9.521,-12.878,0.610
0.233,0.043,0.968,-8.545,-18.005,2.319
0.206,0.041,0.952,-6.409,-21.057,4.272
0.169,0.035,0.951,-5.066,-21.179,5.615
0.147,0.025,0.952,-4.089,-18.738,6.165
0.133,0.014,0.952,-3.845,-14.587,6.165
0.135,0.010,0.949,-4.272,-9.949,5.798
0.145,0.011,0.954,-5.554,-5.005,5.493
0.169,0.009,0.963,-6.836,-0.916,5.554
0.213,0.013,0.978,-7.935,0.977,6.348
0.256,0.018,0.993,-8.667,-0.977,7.202
0.279,0.023,1.001,-9.460,-6.836,8.728

0.801,1.771,0.399,-48.828,254.395,-21.851
0.909,1.859,0.319,-51.086,257.019,-12.756
0.901,2.034,0.202,-58.289,251.099,-1.343
0.819,2.226,0.058,-66.162,244.934,11.169
0.743,2.364,-0.000,-72.693,245.361,25.391
0.917,2.467,0.005,-81.665,247.498,40.344
1.038,2.509,0.085,-90.454,230.347,54.565
1.016,2.483,0.131,-95.764,190.552,67.444
1.022,2.442,0.153,-99.121,137.695,81.848
0.920,2.362,0.115,-99.426,76.965,93.628
0.696,2.225,-0.001,-92.896,19.592,99.243
0.493,2.063,-0.137,-78.125,-21.851,98.328
0.371,2.008,-0.157,-55.115,-42.114,88.013
0.241,1.925,-0.142,-27.283,-42.175,74.463
0.228,1.650,-0.091,1.099,-28.687,66.467
0.367,1.264,0.029,22.766,-12.024,61.890
0.489,0.901,0.198,34.424,-9.521,55.359
0.617,0.531,0.393,38.391,-25.085,47.729
0.658,0.199,0.544,39.368,-56.091,35.461
0.639,-0.092,0.663,38.635,-93.140,18.494
0.537,-0.337,0.711,36.560,-126.709,4.395
0.388,-0.516,0.741,32.715,-149.109,-3.845
0.236,-0.616,0.776,33.264,-154.480,-12.268
0.111,-0.694,0.831,41.565,-145.935,-21.240
0.077,-0.789,0.894,54.565,-131.836,-25.574
0.102,-0.883,0.949,70.068,-119.324,-23.499
0.098,-0.945,1.005,89.905,-111.511,-19.104
0.068,-0.999,1.035,113.770,-106.140,-12.939
0.062,-1.092,1.030,140.076,-99.365,-6.104
0.049,-1.242,1.014,167.358,-86.975,-5.798
0.032,-1.412,1.024,190.308,-65.491,-17.273
0.052,-1.548,1.050,201.538,-35.889,-40.161
0.189,-1.627,1.098,197.021,-3.296,-68.909
0.408,-1.553,1.151,176.331,23.987,-96.985
0.625,-1.361,1.222,145.203,38.513,-119.934
0.830,-1.124,1.273,112.122,39.124,-132.874
0.957,-0.897,1.239,80.505,28.137,-138.000
0.962,-0.635,1.156,52.429,13.184,-135.010
0.894,-0.406,1.071,31.799,3.540,-123.657
0.830,-0.250,0.991,20.203,4.150,-108.826
0.802,-0.149,0.917,15.198,13.977,-94.910
0.865,-0.146,0.865,12.146,28.320,-81.177
0.924,-0.104,0.821,6.897,38.330,-68.054
0.922,-0.025,0.820,1.038,41.016,-54.260
0.899,0.077,0.840,-1.526,37.964,-40.710
0.844,0.091,0.809,2.502,31.494,-27.588
0.789,0.080,0.801,7.263,27.344,-17.700
0.697,0.030,0.760,11.597,27.222,-12.756
0.583,0.015,0.721,10.864,34.180,-11.230
0.542,-0.001,0.716,7.324,49.500,-11.353
0.615,-0.034,0.720,2.502,67.993,-11.658
0.687,-0.009,0.749,-4.517,79.956,-12.756
0.757,0.022,0.768,-11.230,81.665,-12.695
0.787,0.061,0.770,-14.954,74.463,-10.193
0.813,0.093,0.755,-17.700,60.608,-5.310
0.818,0.116,0.722,-18.311,42.725,-0.549
0.786,0.125,0.670,-17.700,24.902,3.479
0.729,0.166,0.624,-17.212,10.498,6.409
0.669,0.206,0.603,-14.282,1.709,8.240
0.632,0.240,0.605,-8.362,-2.319,9.338
0.608,0.234,0.610,-0.671,-4.089,10.010
0.592,0.214,0.624,6.775,-4.822,10.010
0.562,0.202,0.638,12.329,-4.822,8.423
0.531,0.198,0.648,16.418,-3.601,5.615
0.508,0.194,0.664,18.616,-0.549,1.709
0.503,0.185,0.689,19.348,4.333,-2.136
0.524,0.173,0.717,17.822,10.437,-3.723
0.562,0.153,0.736,14.832,15.869,-5.615
0.593,0.138,0.743,10.681,19.165,-8.850
0.634,0.145,0.745,6.531,20.752,-12.817
0.676,0.168,0.740,3.174,20.081,-15.991
0.720,0.179,0.729,1.038,17.395,-16.541
0.742,0.194,0.715,-0.183,13.123,-14.648
0.740,0.207,0.703,0.183,8.362,-10.986
0.724,0.200,0.683,2.258,4.700,-7.080
0.712,0.184,0.674,4.883,2.502,-4.700
0.710,0.169,0.674,7.446,1.526,-3.601
0.714,0.163,0.690,8.606,0.977,-2.380
0.720,0.156,0.704,8.423,0.366,0.305
0.720,0.153,0.716,7.751,-0.671,3.479
0.707,0.150,0.717,6.836,-2.258,6.409
0.687,0.150,0.719,5.493,-3.296,8.545
0.666,0.145,0.716,4.639,-3.357,9.583
0.646,0.150,0.711,3.418,-1.953,9.766
0.632,0.160,0.704,2.319,0.000,10.010
0.631,0.164,0.701,1.526,3.052,10.376
0.639,0.161,0.704,0.854,6.165,10.681
0.642,0.162,0.705,0.244,8.240,10.132
0.639,0.161,0.703,-0.183,9.338,9.766
0.642,0.163,0.700,-1.465,9.521,9.521
0.646,0.168,0.695,-2.502,9.521,8.240
0.675,0.167,0.694,-3.113,8.911,6.653
0.705,0.174,0.696,-4.089,6.348,6.042
0.714,0.186,0.700,-4.883,1.953,7.019
0.707,0.192,0.694,-5.005,-2.441,9.033
0.688,0.202,0.689,-5.432,-6.104,11.536
0.676,0.199,0.682,-4.944,-8.179,13.123
0.670,0.186,0.680,-4.395,-8.545,13.062
0.667,0.184,0.676,-4.089,-7.629,11.597
0.672,0.183,0.677,-4.028,-6.104,10.376
0.681,0.183,0.678,-3.967,-4.028,10.193
0.697,0.181,0.682,-4.761,-1.770,11.108
0.706,0.177,0.685,-5.066,-0.549,11.841
0.707,0.185,0.687,-5.005,0.366,12.817
0.716,0.191,0.695,-5.432,1.526,14.038
0.724,0.190,0.703,-5.615,2.441,14.771
0.724,0.185,0.710,-5.127,3.052,15.381
0.721,0.182,0.716,-5.310,4.028,16.357
0.727,0.167,0.723,-5.676,5.493,17.334
0.722,0.140,0.734,-6.287,7.446,18.066
0.717,0.145,0.724,-7.690,9.521,18.005
0.703,0.138,0.713,-9.705,12.329,18.250
0.692,0.139,0.711,-12.817,15.564,18.433
0.697,0.158,0.689,-16.418,18.616,18.738
0.708,0.153,0.668,-19.531,20.752,19.226
0.724,0.186,0.657,-22.400,22.339,20.020
0.734,0.225,0.650,-24.536,22.034,20.996
0.736,0.240,0.648,-25.024,19.592,23.193
0.725,0.255,0.639,-24.475,16.052,25.818

0.939,1.511,0.461,-3.662,1.892,4.333
1.014,1.703,0.484,-1.160,-4.272,8.911
1.049,1.853,0.483,4.456,-13.916,15.869
1.029,1.963,0.493,11.108,-26.001,25.818
0.954,2.086,0.490,17.700,-38.879,38.025
0.853,2.220,0.469,23.376,-51.392,50.049
0.730,2.396,0.439,31.128,-61.768,58.594
0.635,2.501,0.409,42.725,-68.787,61.157
0.614,2.456,0.331,55.969,-74.280,55.481
0.652,2.339,0.226,65.125,-80.627,41.504
0.719,2.217,0.139,68.054,-90.454,21.912
0.802,2.138,0.059,65.125,-105.408,4.395
0.884,2.089,-0.036,60.913,-126.160,-5.920
0.913,2.083,-0.157,58.655,-152.161,-8.423
0.925,2.091,-0.240,61.340,-180.115,-4.822
0.844,2.020,-0.336,69.702,-206.360,3.845
0.629,1.824,-0.479,79.285,-226.624,19.348
0.374,1.567,-0.602,85.449,-233.948,37.231
0.061,1.324,-0.699,90.332,-225.708,47.729
-0.226,1.023,-0.743,98.450,-202.209,47.302
-0.406,0.702,-0.703,109.619,-166.382,37.903
-0.520,0.416,-0.583,120.544,-126.831,24.963
-0.505,0.095,-0.384,130.371,-92.957,14.771
-0.397,-0.301,-0.141,138.611,-72.083,7.874
-0.337,-0.715,0.098,142.822,-69.397,0.061
-0.346,-1.079,0.308,139.648,-83.496,-8.484
-0.402,-1.426,0.489,129.883,-107.605,-12.878
-0.457,-1.782,0.594,116.638,-134.460,-11.902
-0.535,-2.082,0.645,104.736,-156.860,-8.911
-0.629,-2.297,0.719,100.403,-167.419,-9.521
-0.623,-2.404,0.864,111.023,-163.147,-20.447
-0.563,-2.346,0.997,133.850,-147.522,-41.870
-0.523,-2.129,1.095,162.231,-121.887,-64.026
-0.359,-1.913,1.220,189.941,-86.426,-78.308
-0.066,-1.760,1.308,206.482,-48.279,-85.449
0.194,-1.587,1.335,198.242,-15.503,-87.280
0.429,-1.317,1.336,164.307,10.620,-84.351
0.611,-1.031,1.356,117.310,28.687,-78.003
0.716,-0.765,1.382,67.932,36.316,-69.885
0.748,-0.575,1.390,24.292,32.471,-61.157
0.729,-0.389,1.327,-7.935,19.531,-52.917
0.711,-0.223,1.257,-29.541,2.380,-43.762
0.626,-0.054,1.117,-40.771,-16.357,-31.982
0.546,-0.036,1.048,-43.274,-32.471,-12.268
0.458,0.021,0.941,-38.818,-46.387,5.188
0.275,-0.049,0.828,-30.151,-52.856,22.766
0.129,0.021,0.831,-21.790,-47.241,32.898
0.068,0.008,0.884,-10.559,-34.790,39.978
0.046,-0.149,0.874,1.526,-24.597,44.067
-0.115,-0.118,0.858,4.639,-12.939,42.114
-0.135,-0.078,0.977,3.357,1.160,43.274
-0.099,-0.216,0.904,3.357,11.658,44.006
-0.198,-0.281,0.829,-2.563,23.499,38.330
-0.219,-0.150,0.833,-15.198,41.687,28.625
-0.161,-0.045,0.847,-23.254,58.228,22.705
-0.054,-0.081,0.783,-26.123,68.665,21.118
-0.009,0.127,0.914,-27.039,74.036,15.503
0.133,0.082,0.893,-21.484,65.430,17.212
0.127,0.046,0.883,-14.587,49.255,17.883
0.110,0.102,0.896,-12.268,33.386,15.259
0.094,0.082,0.861,-8.545,16.357,14.893
0.053,0.114,0.855,-5.432,4.150,12.146
0.066,0.156,0.888,-1.282,-3.479,9.033
0.084,0.139,0.902,4.333,-9.827,7.568
0.095,0.152,0.946,8.301,-14.648,6.653
0.085,0.136,0.970,12.329,-18.738,5.554
0.057,0.121,0.991,15.259,-20.325,3.601
0.036,0.103,1.002,16.724,-18.005,1.648
0.023,0.090,1.025,17.334,-12.268,0.061
0.025,0.071,1.042,16.541,-4.395,-0.671
0.033,0.049,1.052,13.794,4.456,-0.183
0.036,0.044,1.055,8.667,13.062,0.305
0.046,0.039,1.044,2.808,20.142,0.732
0.066,0.050,1.022,-3.113,25.696,0.610
0.088,0.081,1.001,-7.690,29.663,-0.793
0.118,0.112,0.993,-10.193,31.799,-2.502
0.163,0.122,0.987,-10.193,32.166,-3.113
0.194,0.123,0.968,-8.240,29.968,-3.052
0.201,0.139,0.962,-5.920,26.184,-2.869
0.210,0.142,0.974,-2.441,21.851,-1.770
0.239,0.119,0.988,1.770,16.174,0.122
0.256,0.111,1.000,4.395,7.996,2.197
0.240,0.105,1.004,5.310,-1.709,4.150
0.206,0.090,1.003,5.066,-10.498,6.287
0.163,0.078,0.995,4.089,-16.785,7.874
0.124,0.074,0.983,1.892,-19.165,8.606
0.096,0.071,0.964,-0.732,-18.005,8.240
0.071,0.074,0.946,-3.845,-13.489,6.897
0.065,0.101,0.929,-6.470,-6.714,5.127
0.081,0.123,0.917,-7.568,0.916,3.967
0.100,0.133,0.913,-7.874,7.751,3.418
0.117,0.138,0.917,-7.019,13.245,3.357
0.134,0.135,0.920,-5.432,16.785,3.357
0.147,0.135,0.924,-3.723,18.372,3.662
0.160,0.134,0.930,-2.014,18.616,4.456
0.176,0.119,0.929,-0.488,17.334,5.188
0.185,0.119,0.934,0.305,15.320,4.150
0.201,0.137,0.953,0.366,12.451,2.441
0.235,0.131,0.965,0.061,8.240,2.197
0.256,0.121,0.973,-1.770,2.747,3.906
0.260,0.129,0.974,-4.150,-3.235,6.104
0.239,0.133,0.960,-6.348,-8.606,8.179
0.209,0.147,0.941,-8.240,-11.902,8.789
0.190,0.158,0.929,-9.521,-12.878,9.094
0.170,0.166,0.911,-10.437,-12.085,8.972
0.154,0.182,0.900,-11.169,-9.460,8.545
0.148,0.205,0.902,-10.681,-5.798,7.324
0.153,0.203,0.909,-7.935,-1.648,6.897
0.162,0.193,0.922,-5.188,1.404,6.653
0.165,0.183,0.932,-2.869,3.113,6.104
0.168,0.177,0.932,-1.465,3.967,5.005
0.170,0.171,0.935,-1.343,4.639,3.662
0.176,0.169,0.938,-1.709,5.188,2.136
0.193,0.172,0.945,-2.136,5.615,0.854
0.212,0.167,0.951,-2.625,4.761,0.671
0.224,0.159,0.956,-3.967,2.563,2.258
0.224,0.150,0.952,-5.981,0.061,4.822
0.211,0.157,0.945,-8.911,-2.380,6.897
0.192,0.162,0.938,-11.108,-4.639,7.568

0.339,1.627,0.888,36.499,36.438,-28.259
0.346,1.789,0.926,38.025,24.841,-27.405
0.349,1.874,0.915,37.231,9.277,-27.100
0.334,1.892,0.842,33.936,-7.751,-29.602
0.329,1.980,0.717,26.733,-24.231,-34.241
0.336,2.089,0.549,17.883,-39.001,-39.429
0.299,2.216,0.362,10.559,-51.025,-42.175
0.262,2.340,0.183,5.188,-59.692,-39.978
0.209,2.427,0.038,2.747,-65.002,-32.349
0.182,2.414,-0.052,4.639,-66.467,-20.142
0.139,2.307,-0.100,8.118,-65.369,-3.479
0.070,2.140,-0.153,7.690,-65.002,19.043
0.049,1.990,-0.183,2.380,-64.941,42.542
-0.032,1.809,-0.204,-5.554,-64.270,61.035
-0.149,1.581,-0.281,-14.832,-62.683,76.294
-0.269,1.401,-0.343,-23.071,-56.030,89.722
-0.398,1.197,-0.402,-27.283,-45.898,106.628
-0.549,0.950,-0.409,-23.254,-33.936,118.164
-0.569,0.681,-0.238,-10.681,-18.250,112.122
-0.504,0.303,-0.026,1.343,-7.446,93.445
-0.387,-0.057,0.175,3.235,-4.150,70.007
-0.304,-0.289,0.384,-9.155,-5.432,48.889
-0.238,-0.438,0.575,-27.588,-8.972,34.363
-0.144,-0.595,0.721,-41.321,-11.597,24.658
-0.041,-0.688,0.842,-44.983,-16.235,15.381
0.069,-0.764,0.997,-34.668,-31.311,6.226
0.224,-0.881,1.152,-5.432,-64.209,-1.831
0.265,-0.992,1.313,43.030,-112.305,-9.583
0.099,-1.121,1.377,103.333,-161.438,-15.442
-0.184,-1.335,1.382,166.504,-191.223,-22.583
-0.482,-1.646,1.418,223.816,-184.265,-39.612
-0.635,-2.030,1.467,261.841,-137.451,-63.965
-0.486,-2.255,1.618,272.888,-60.974,-86.670
-0.100,-2.185,1.788,262.085,19.775,-105.530
0.336,-1.906,1.930,237.610,81.116,-120.483
0.718,-1.491,2.053,206.787,111.206,-126.404
0.922,-1.074,2.076,175.842,106.628,-121.155
1.042,-0.733,2.000,145.752,77.515,-108.337
1.058,-0.444,1.851,115.784,36.133,-90.698
0.957,-0.207,1.632,88.501,-6.836,-71.838
0.768,-0.089,1.444,68.176,-39.368,-55.176
0.570,0.114,1.253,55.298,-58.594,-43.945
0.392,0.169,1.200,48.950,-63.110,-27.893
0.249,0.139,1.061,49.438,-60.486,-10.864
0.183,0.130,1.053,55.969,-52.734,-2.014
0.094,0.019,0.998,65.491,-48.218,-0.549
0.023,-0.208,0.927,71.289,-44.983,-0.671
-0.192,-0.258,0.791,64.880,-35.095,-7.202
-0.190,-0.136,1.065,50.110,-14.221,-8.850
0.033,-0.300,0.897,44.922,-8.789,-3.967
0.079,-0.293,0.900,34.058,-8.972,-4.639
-0.018,-0.169,0.847,20.325,-13.123,-8.972
-0.071,-0.105,0.813,14.282,-15.381,-10.803
-0.099,-0.068,0.761,15.320,-13.977,-10.986
-0.115,-0.100,0.727,16.846,-7.324,-7.874
-0.162,0.007,0.781,16.174,2.502,-5.737
-0.074,-0.013,0.810,17.944,9.705,-0.427
-0.069,-0.020,0.833,22.034,11.963,0.610
-0.079,-0.003,0.868,24.780,12.634,-1.038
-0.092,0.006,0.913,28.137,12.512,-2.869
-0.082,0.019,0.976,32.715,11.230,-3.845
-0.071,-0.004,1.029,36.438,7.324,-3.296
-0.053,-0.061,1.065,36.926,0.916,-0.122
-0.059,-0.089,1.075,32.776,-5.615,2.258
-0.073,-0.083,1.081,25.330,-10.986,2.075
-0.086,-0.060,1.086,16.968,-14.160,-0.183
-0.103,-0.021,1.075,10.620,-15.198,-2.380
-0.118,-0.002,1.052,6.775,-13.184,-3.174
-0.099,-0.005,1.041,4.761,-8.179,-3.479
-0.063,0.001,1.036,3.784,-2.075,-4.089
-0.029,-0.003,1.036,2.563,2.625,-3.540
-0.022,-0.013,1.023,1.282,5.127,-2.930
-0.029,-0.015,1.022,0.610,7.568,-2.991
-0.017,-0.015,1.030,0.488,10.010,-2.625
0.004,-0.016,1.039,0.366,11.108,-1.526
0.032,-0.022,1.055,-0.122,10.071,0.732
0.039,-0.032,1.053,-2.319,6.287,3.723
0.006,-0.029,1.037,-4.700,0.854,5.920
-0.038,-0.024,1.020,-6.592,-2.686,6.165
-0.060,-0.013,1.024,-7.141,-3.723,4.761
-0.057,-0.017,1.027,-6.653,-3.662,3.418
-0.039,-0.027,1.024,-6.104,-4.272,3.052
-0.040,-0.029,1.014,-7.019,-4.944,2.625
-0.066,-0.025,0.997,-8.240,-5.066,1.465
-0.094,-0.017,0.987,-9.277,-2.502,-0.122
-0.102,-0.014,0.980,-9.277,2.930,-1.709
-0.094,-0.023,0.967,-8.850,10.254,-3.235
-0.069,-0.013,0.969,-8.423,18.921,-5.310
0.010,-0.007,0.995,-8.484,26.489,-7.446
0.106,0.006,1.025,-9.338,28.381,-7.019
0.163,0.006,1.027,-10.376,21.790,-4.150
0.169,0.014,1.024,-11.169,9.644,-1.343
0.140,0.051,1.006,-11.536,-3.540,1.770
0.087,0.019,0.964,-10.071,-14.709,5.493
0.015,0.067,0.964,-8.667,-20.325,6.104
-0.014,0.048,0.951,-6.104,-21.423,6.409
-0.040,0.040,0.955,-3.357,-19.104,6.409
-0.064,0.034,0.958,-1.526,-14.526,5.371
-0.075,0.022,0.964,-0.854,-8.545,3.601
-0.074,0.006,0.960,-1.526,-1.831,1.282
-0.059,-0.003,0.955,-3.540,5.676,-1.221
-0.033,0.012,0.965,-5.859,13.733,-3.601
0.011,0.018,0.975,-7.324,20.386,-5.188
0.074,0.019,0.998,-8.301,23.682,-5.371
0.134,0.021,1.027,-7.935,23.010,-4.211
0.177,0.018,1.046,-7.263,17.456,-2.502
0.196,0.009,1.054,-6.775,8.484,0.610
0.180,-0.002,1.051,-7.324,-1.526,5.249
0.143,-0.000,1.037,-8.667,-9.827,10.498
0.098,-0.002,1.022,-10.803,-14.771,14.709
0.055,-0.005,1.006,-12.939,-16.174,17.334
0.014,-0.000,1.001,-15.503,-14.465,18.860
-0.016,0.001,0.999,-17.456,-10.437,19.897
-0.031,-0.002,0.997,-18.677,-5.188,20.264
-0.041,-0.018,0.989,-19.226,-0.122,19.470
-0.046,-0.022,0.975,-19.958,4.883,18.005
-0.042,-0.013,0.961,-21.118,9.888,15.747
-0.027,-0.000,0.949,-22.095,14.404,13.611
-0.001,0.022,0.941,-22.034,17.883,11.963

0.553,1.345,0.946,2.930,28.259,5.981
0.616,1.487,1.007,5.249,30.457,10.681
0.720,1.640,1.059,4.333,29.785,13.550
0.858,1.863,1.091,-0.305,25.879,16.052
1.035,2.081,1.079,-7.629,17.639,19.897
1.147,2.258,1.016,-16.724,3.723,24.719
1.170,2.371,0.885,-23.865,-13.794,27.649
1.086,2.382,0.720,-28.564,-31.067,28.870
0.919,2.421,0.566,-31.799,-46.204,31.616
0.706,2.486,0.419,-32.898,-56.519,38.208
0.482,2.539,0.264,-27.771,-61.279,47.119
0.317,2.550,0.134,-18.616,-60.120,55.664
0.191,2.487,0.015,-8.179,-56.030,60.303
0.133,2.457,-0.054,2.441,-52.307,57.983
0.120,2.403,-0.083,15.869,-52.185,49.988
0.125,2.240,-0.124,31.921,-58.411,40.405
0.131,1.909,-0.175,44.861,-70.740,32.898
0.109,1.476,-0.216,49.622,-85.938,27.771
0.081,0.983,-0.224,42.542,-99.915,23.865
0.002,0.397,-0.231,20.020,-110.779,24.841
-0.207,-0.249,-0.234,-17.029,-115.051,34.973
-0.473,-0.851,-0.194,-63.599,-106.201,51.758
-0.703,-1.388,-0.040,-104.797,-80.566,66.284
-0.781,-1.762,0.258,-126.282,-39.978,70.190
-0.698,-2.101,0.599,-118.774,-4.395,64.575
-0.562,-2.270,1.023,-80.750,5.737,53.467
-0.383,-2.274,1.421,-9.155,-14.648,36.377
-0.269,-2.099,1.641,96.741,-57.495,10.498
-0.371,-2.101,1.839,214.844,-105.103,-15.808
-0.505,-2.386,1.816,316.895,-136.108,-34.058
-0.530,-2.586,1.705,374.207,-138.062,-44.067
-0.473,-2.495,1.616,379.578,-108.276,-51.331
-0.279,-2.163,1.564,342.834,-52.795,-54.688
-0.050,-1.740,1.529,280.762,10.986,-53.406
0.196,-1.355,1.518,208.679,67.383,-45.166
0.465,-0.984,1.521,135.620,102.722,-29.419
0.730,-0.615,1.573,74.585,108.276,-16.602
0.849,-0.310,1.620,35.217,82.214,-11.780
0.844,-0.149,1.604,16.479,31.738,-7.751
0.755,-0.157,1.483,10.193,-28.564,1.221
0.457,-0.418,1.228,7.812,-82.703,8.606
0.326,-0.238,1.073,2.502,-117.493,3.662
0.244,-0.233,1.049,-3.357,-136.230,5.493
-0.115,-0.466,0.699,-12.390,-139.648,15.564
-0.272,-0.227,0.758,-28.076,-110.229,22.766
-0.303,-0.180,0.664,-31.799,-73.792,24.902
-0.341,-0.234,0.597,-29.297,-38.452,28.687
-0.406,-0.352,0.503,-29.236,-3.967,26.855
-0.400,-0.083,0.733,-28.564,27.527,13.367
-0.190,-0.157,0.697,-18.127,41.626,7.935
-0.042,-0.205,0.748,-4.883,38.452,1.221
0.015,-0.169,0.760,2.502,30.029,-7.263
0.005,-0.120,0.810,8.728,17.456,-10.925
-0.012,-0.070,0.833,14.648,8.118,-10.132
0.014,-0.059,0.896,20.752,3.479,-5.981
0.057,-0.063,0.960,25.146,0.244,-1.526
0.023,-0.081,0.965,26.489,-3.418,2.747
-0.029,-0.023,1.049,25.085,-4.578,5.493
-0.046,-0.042,1.046,25.146,-7.690,8.972
-0.082,-0.056,1.066,24.475,-9.644,10.986
-0.119,-0.040,1.070,22.888,-10.132,9.949
-0.151,-0.045,1.048,21.240,-8.850,7.629
-0.183,-0.021,1.035,18.494,-3.601,4.150
-0.181,0.003,1.040,16.174,5.127,0.977
-0.151,0.027,1.048,14.648,14.526,-0.854
-0.091,0.008,1.060,13.367,20.813,-0.488
-0.022,0.040,1.113,12.024,22.339,0.427
0.062,-0.056,1.078,11.414,15.625,4.639
0.027,-0.017,1.100,8.911,4.883,5.127
-0.034,-0.000,1.066,6.348,-5.981,5.615
-0.088,0.021,1.076,5.920,-13.733,7.751
-0.102,-0.039,1.030,7.080,-18.127,10.742
-0.168,-0.052,1.003,7.019,-17.883,11.230
-0.234,-0.080,0.958,5.310,-12.512,10.254
-0.279,-0.056,0.957,2.808,-1.953,6.042
-0.270,-0.073,0.949,1.892,10.681,2.319
-0.208,-0.099,0.974,0.732,22.827,-0.610
-0.149,-0.108,0.980,-0.916,30.334,-2.869
-0.117,-0.110,0.971,-2.869,32.776,-5.066
-0.075,-0.099,0.985,-4.639,33.691,-7.263
0.014,-0.073,1.004,-5.188,31.311,-7.751
0.070,-0.073,0.997,-5.188,22.522,-5.981
0.069,-0.059,0.975,-5.066,10.620,-3.540
0.022,-0.036,0.957,-4.395,0.244,-1.404
-0.029,-0.040,0.942,-2.563,-5.432,1.343
-0.068,-0.059,0.932,-0.549,-6.531,4.028
-0.102,-0.064,0.927,0.793,-4.089,5.371
-0.134,-0.065,0.923,1.526,1.160,5.005
-0.147,-0.065,0.930,1.587,8.850,3.113
-0.094,-0.079,0.948,0.977,16.785,1.770
-0.030,-0.074,0.966,-0.671,21.118,0.549
0.007,-0.053,0.976,-2.563,20.020,-0.366
0.021,-0.038,0.974,-3.418,14.893,-0.610
0.021,-0.020,0.985,-2.625,8.667,-0.183
0.045,-0.014,0.996,-0.916,1.648,1.465
0.062,-0.032,1.000,0.977,-6.653,3.723
0.043,-0.037,1.000,1.831,-15.869,5.615
-0.010,-0.040,0.978,1.465,-23.926,7.324
-0.078,-0.046,0.949,1.099,-27.588,8.423
-0.135,-0.041,0.932,0.549,-24.719,8.057
-0.157,-0.042,0.930,0.183,-15.747,6.470
-0.134,-0.048,0.948,-0.366,-4.639,5.005
-0.064,-0.055,0.969,-1.343,4.456,4.822
-0.005,-0.053,0.995,-3.967,8.667,5.676
0.022,-0.045,1.008,-6.409,6.531,7.141
0.037,-0.035,1.008,-7.812,1.038,7.996
0.073,-0.030,1.012,-8.301,-5.798,8.057
0.119,-0.026,1.023,-8.057,-15.137,8.789
0.129,-0.019,1.019,-8.484,-27.466,11.108
0.121,-0.002,1.005,-9.583,-40.588,14.709
0.099,-0.007,0.990,-10.071,-52.429,18.372
0.044,-0.008,0.974,-10.742,-62.500,21.240
-0.023,-0.001,0.956,-11.047,-68.420,23.132
-0.094,-0.010,0.939,-10.742,-69.092,23.987
-0.160,0.001,0.927,-10.803,-63.293,23.865
-0.192,-0.004,0.909,-10.559,-52.368,21.973
-0.208,-0.003,0.915,-10.010,-38.391,18.982
-0.193,0.012,0.933,-10.437,-23.376,15.808
-0.153,0.008,0.956,-10.315,-10.071,13.672

0.517,1.676,1.042,11.902,34.302,-31.738
0.708,1.829,1.066,11.292,23.743,-29.724
0.800,2.054,1.075,9.338,5.615,-23.132
0.833,2.265,1.085,8.423,-15.808,-11.169
0.765,2.433,1.094,8.362,-35.950,8.301
0.665,2.548,1.065,5.615,-50.415,30.029
0.583,2.642,1.008,0.183,-55.603,44.250
0.540,2.654,0.939,-6.653,-51.392,49.561
0.515,2.609,0.846,-14.648,-42.175,47.913
0.607,2.580,0.745,-24.536,-32.532,40.833
0.721,2.558,0.607,-32.654,-27.893,30.396
0.843,2.546,0.460,-37.415,-32.227,20.874
0.898,2.416,0.280,-39.185,-47.302,15.991
0.812,2.189,0.086,-39.185,-72.021,17.822
0.634,1.891,-0.090,-36.499,-98.938,27.710
0.405,1.482,-0.228,-29.175,-122.192,44.250
0.107,0.998,-0.270,-19.775,-137.878,64.514
-0.210,0.419,-0.259,-14.221,-144.653,84.961
-0.441,-0.247,-0.217,-14.709,-142.639,101.807
-0.632,-0.914,-0.096,-19.775,-132.690,109.436
-0.754,-1.431,0.120,-26.855,-117.554,103.210
-0.725,-1.755,0.401,-25.269,-98.022,81.665
-0.533,-2.038,0.656,-7.935,-77.881,51.636
-0.384,-2.304,0.864,17.517,-66.467,28.931
-0.257,-2.586,1.080,44.617,-67.810,21.790
-0.129,-2.783,1.322,76.355,-81.665,25.696
-0.118,-2.770,1.578,116.333,-104.797,29.785
-0.283,-2.512,1.703,164.001,-127.014,29.846
-0.500,-2.140,1.658,210.083,-134.277,28.198
-0.681,-1.876,1.513,244.202,-117.920,28.259
-0.782,-1.707,1.354,256.592,-74.524,23.499
-0.722,-1.565,1.247,241.211,-6.958,7.507
-0.444,-1.401,1.154,199.768,70.740,-20.508
-0.038,-1.175,1.157,139.221,138.977,-52.734
0.337,-0.865,1.224,71.777,180.237,-72.998
0.718,-0.509,1.310,12.817,184.082,-69.824
0.955,-0.209,1.402,-23.071,148.804,-48.950
0.904,-0.076,1.346,-33.875,85.449,-20.386
0.730,0.077,1.316,-25.818,13.977,3.357
0.641,0.026,1.240,-8.179,-53.223,21.423
0.213,-0.023,0.897,7.080,-107.605,31.860
-0.097,-0.202,0.929,9.827,-126.892,44.373
-0.328,-0.100,0.809,10.010,-125.061,43.823
-0.479,-0.250,0.724,12.451,-102.539,42.297
-0.500,-0.169,0.793,10.132,-63.049,27.832
-0.472,-0.215,0.777,9.583,-25.757,15.442
-0.471,-0.313,0.697,4.456,7.507,7.507
-0.378,-0.166,0.828,-4.333,40.405,-1.892
-0.188,-0.221,0.766,-4.150,59.387,-8.179
-0.025,-0.184,0.832,-2.197,68.298,-15.137
0.115,-0.121,0.863,0.977,65.979,-20.264
0.215,-0.098,0.918,6.042,55.603,-19.592
0.286,-0.033,0.965,10.803,40.161,-14.343
0.265,0.014,1.015,17.151,19.836,-5.859
0.218,0.018,1.050,23.437,0.610,4.944
0.093,-0.035,1.045,29.114,-14.343,14.771
-0.052,-0.025,1.073,31.677,-20.874,19.043
-0.187,-0.029,1.073,32.471,-19.592,19.104
-0.300,-0.060,1.072,32.043,-9.399,15.259
-0.372,-0.081,1.077,29.785,7.935,7.446
-0.365,-0.104,1.096,25.513,29.663,-1.465
-0.298,-0.125,1.109,19.043,50.537,-9.094
-0.210,-0.130,1.121,11.353,67.078,-16.235
-0.106,-0.106,1.116,3.174,77.820,-20.935
0.006,-0.078,1.093,-4.028,81.116,-22.400
0.062,-0.031,1.114,-9.644,78.369,-22.949
0.207,0.019,1.124,-12.573,69.092,-19.409
0.287,-0.014,1.090,-11.230,49.988,-11.841
0.256,0.005,1.062,-11.902,28.442,-4.700
0.208,0.035,1.039,-11.963,8.118,3.052
0.133,0.021,0.997,-9.094,-7.812,10.193
0.063,0.002,0.959,-5.798,-16.968,14.771
-0.005,0.004,0.953,-3.296,-19.165,16.541
-0.063,0.004,0.963,-1.282,-16.052,16.907
-0.078,-0.020,0.979,0.122,-9.827,17.822
-0.092,-0.051,0.990,-0.610,-3.052,17.822
-0.117,-0.025,1.012,-3.723,3.235,15.320
-0.117,-0.029,1.013,-6.104,8.972,11.597
-0.077,-0.044,1.016,-7.385,13.611,7.568
-0.025,-0.020,1.027,-9.460,15.686,3.601
0.012,0.002,1.017,-11.597,13.855,1.892
0.025,0.006,1.005,-12.695,9.094,2.502
0.040,0.065,1.015,-13.245,3.723,3.174
0.035,0.079,0.965,-12.146,-3.113,5.615
0.009,0.096,0.981,-9.521,-8.240,7.324
-0.005,0.092,0.987,-6.104,-11.841,7.568
-0.035,0.084,0.980,-2.258,-14.099,7.568
-0.063,0.056,0.982,0.671,-14.099,8.423
-0.094,0.049,1.005,2.380,-11.658,8.057
-0.114,0.052,1.044,3.052,-8.179,8.301
-0.094,0.023,1.064,3.357,-5.737,9.827
-0.059,0.000,1.062,2.808,-6.165,10.132
-0.044,0.014,1.067,-0.244,-8.728,7.263
-0.053,0.017,1.049,-1.648,-12.817,3.174
-0.063,0.031,1.031,-2.075,-15.564,-0.366
-0.070,0.031,1.032,-0.671,-14.160,-2.808
-0.030,0.016,1.039,2.625,-10.132,-4.456
-0.011,-0.038,1.025,6.042,-5.371,-5.066
0.036,-0.063,1.022,5.981,0.122,-4.517
0.051,-0.041,1.050,4.028,4.456,-3.052
0.058,-0.066,1.063,2.502,7.812,-0.549
0.076,-0.067,1.082,1.343,10.132,1.831
0.079,-0.059,1.087,0.549,10.315,4.150
0.095,-0.110,1.068,0.061,9.094,7.812
0.103,-0.143,1.057,-2.441,8.484,10.559
0.089,-0.147,1.059,-5.981,7.874,11.108
0.085,-0.155,1.065,-8.179,7.324,11.047
0.087,-0.160,1.061,-8.179,7.629,10.925
0.079,-0.193,1.045,-5.615,8.301,9.888
0.049,-0.224,1.022,-2.441,9.705,8.423
0.045,-0.235,1.014,0.061,14.343,6.897
0.088,-0.262,1.030,1.343,20.142,7.324
0.126,-0.306,1.036,-1.343,23.560,12.634
0.115,-0.331,1.038,-9.094,23.865,20.508
0.075,-0.323,1.037,-18.921,24.536,27.344
0.030,-0.324,1.024,-27.649,27.344,30.762
-0.005,-0.317,1.012,-33.508,33.264,30.640
-0.021,-0.317,1.009,-36.743,42.114,27.710
0.002,-0.328,1.008,-37.048,52.307,23.865

0.801,1.382,0.908,19.775,31.128,4.883
0.987,1.588,0.950,21.423,29.480,7.812
1.180,1.758,0.982,18.921,22.217,15.137
1.338,1.996,0.991,11.169,7.629,25.085
1.401,2.216,0.957,1.953,-12.146,37.231
1.373,2.393,0.858,-6.836,-34.363,52.002
1.282,2.529,0.722,-15.503,-53.772,68.176
1.122,2.705,0.560,-23.621,-66.956,82.458
0.981,2.876,0.425,-29.968,-70.984,92.773
0.883,2.927,0.288,-30.579,-67.566,100.342
0.840,2.926,0.140,-30.273,-62.866,104.553
0.827,2.995,0.036,-32.043,-61.218,104.492
0.825,3.021,-0.040,-31.067,-66.528,104.614
0.736,2.947,-0.175,-25.208,-80.505,105.530
0.525,2.855,-0.287,-15.869,-97.107,107.178
0.222,2.695,-0.412,-0.610,-109.680,111.023
-0.075,2.362,-0.523,20.081,-112.305,115.417
-0.256,1.916,-0.554,43.701,-101.074,112.000
-0.281,1.349,-0.505,66.406,-81.604,99.487
-0.273,0.731,-0.374,83.069,-65.979,84.412
-0.369,0.101,-0.209,85.815,-59.326,75.867
-0.544,-0.572,-0.074,74.951,-58.594,76.294
-0.705,-1.268,0.056,58.655,-51.453,83.069
-0.817,-2.086,0.240,44.983,-33.020,88.074
-0.629,-2.881,0.525,39.612,-13.672,72.327
-0.183,-3.316,0.921,53.772,-9.094,24.231
0.118,-3.379,1.194,86.792,-28.137,-24.170
0.275,-3.341,1.372,130.981,-68.848,-44.617
0.225,-3.323,1.522,187.012,-115.356,-39.917
-0.066,-3.171,1.647,248.596,-149.963,-26.306
-0.282,-2.791,1.718,301.147,-158.997,-11.719
-0.409,-2.499,1.626,329.590,-138.855,-4.150
-0.415,-2.239,1.487,313.232,-89.478,-8.789
-0.260,-1.850,1.364,250.183,-18.799,-25.757
-0.068,-1.430,1.351,166.626,54.565,-48.645
0.293,-1.034,1.396,84.778,111.938,-64.392
0.654,-0.570,1.423,19.531,137.512,-69.031
0.920,-0.198,1.508,-13.977,127.380,-60.547
1.074,-0.072,1.509,-17.761,83.862,-39.795
1.053,-0.124,1.377,-8.728,16.541,-16.174
0.735,-0.347,0.960,-0.854,-52.124,2.625
0.530,-0.210,0.991,-2.991,-94.666,5.859
0.141,-0.263,0.592,-5.981,-121.033,5.310
-0.096,-0.169,1.062,-17.456,-117.310,13.062
-0.144,-0.255,0.764,-22.156,-110.107,27.100
-0.360,-0.387,0.633,-22.522,-92.651,36.682
-0.543,-0.208,0.609,-34.241,-60.059,30.640
-0.657,-0.209,0.528,-39.795,-20.386,22.400
-0.563,-0.146,0.711,-41.504,24.597,11.047
-0.285,-0.248,0.753,-36.926,53.345,4.028
-0.006,-0.275,0.747,-29.114,53.955,-0.793
-0.036,-0.212,0.632,-26.062,40.833,-11.108
-0.067,0.053,0.687,-24.780,31.067,-20.813
-0.033,0.023,0.616,-14.282,23.315,-18.127
-0.040,0.092,0.652,-1.770,22.339,-15.381
0.059,0.140,0.770,10.864,23.560,-11.719
0.130,0.018,0.823,25.879,17.578,-5.493
0.114,-0.003,0.903,33.630,7.751,-2.014
0.032,-0.026,0.952,36.438,-2.686,1.343
-0.041,-0.031,1.000,36.438,-8.301,3.357
-0.100,-0.034,1.016,35.034,-8.728,3.906
-0.157,-0.002,1.054,31.250,-3.113,2.808
-0.141,0.003,1.100,27.771,5.737,0.732
-0.090,-0.039,1.124,24.597,13.184,-1.404
-0.031,0.010,1.167,19.226,16.479,-4.578
0.058,0.033,1.198,14.709,12.573,-4.822
0.138,0.003,1.168,12.695,0.916,-2.808
0.113,0.026,1.146,9.583,-13.977,-2.258
0.053,0.036,1.125,7.385,-28.381,-1.526
-0.007,0.020,1.090,6.592,-38.330,1.343
-0.058,-0.010,1.039,5.676,-42.419,4.456
-0.128,-0.030,0.991,5.188,-39.856,4.211
-0.170,-0.048,0.981,3.967,-30.457,1.587
-0.163,-0.034,0.983,2.319,-17.456,-0.549
-0.134,-0.044,0.979,1.160,-5.310,-1.587
-0.102,-0.047,0.985,-0.488,5.066,-3.113
-0.044,-0.050,0.986,-1.465,11.841,-4.333
0.003,-0.038,0.989,-2.747,13.855,-5.066
0.028,-0.041,0.985,-3.357,11.169,-4.150
0.040,-0.046,0.981,-2.136,5.676,-3.174
0.038,-0.067,0.968,-0.488,-0.671,-1.709
0.011,-0.072,0.953,0.488,-6.531,0.793
-0.030,-0.069,0.931,0.488,-9.888,3.601
-0.076,-0.039,0.913,-0.427,-9.399,5.920
-0.110,-0.004,0.922,-0.916,-5.005,7.324
-0.108,-0.002,0.948,-0.549,1.282,8.850
-0.085,-0.014,0.988,-0.183,6.653,10.681
-0.073,-0.027,1.028,-1.099,8.118,12.207
-0.092,-0.025,1.048,-2.319,4.700,12.512
-0.119,-0.027,1.046,-3.174,-0.488,11.475
-0.157,-0.029,1.027,-4.211,-5.127,9.888
-0.197,-0.021,0.998,-5.615,-7.812,7.324
-0.214,-0.005,0.981,-6.226,-7.263,4.456
-0.197,-0.005,0.968,-5.432,-4.150,2.014
-0.165,-0.007,0.967,-4.517,-0.488,-0.183
-0.121,-0.008,0.980,-3.601,2.502,-2.319
-0.068,-0.000,1.000,-3.601,3.723,-2.625
-0.028,0.005,1.020,-3.662,1.404,-1.221
-0.008,-0.002,1.032,-2.808,-2.747,0.732
-0.013,-0.013,1.033,-2.502,-7.446,2.563
-0.042,-0.023,1.034,-2.625,-10.925,4.150
-0.066,-0.047,1.029,-2.563,-11.475,5.554
-0.088,-0.069,1.028,-4.272,-8.545,6.775
-0.083,-0.088,1.036,-7.751,-3.784,8.301
-0.069,-0.085,1.036,-12.085,0.916,9.460
-0.056,-0.070,1.030,-15.747,4.578,9.277
-0.032,-0.064,1.024,-18.616,7.507,9.216
-0.022,-0.069,1.018,-20.203,9.583,9.338
-0.020,-0.045,0.989,-21.912,11.902,10.315
-0.027,-0.034,0.984,-21.851,15.686,12.085
-0.025,-0.045,0.990,-21.545,20.386,14.038
-0.013,-0.066,1.009,-20.874,25.024,15.930
0.018,-0.096,1.034,-20.447,28.809,17.700
0.056,-0.134,1.070,-21.423,29.602,20.081
0.055,-0.125,1.069,-23.743,26.917,22.278
0.044,-0.111,1.053,-26.672,23.560,23.193
0.041,-0.123,1.036,-29.114,22.156,23.071
0.047,-0.124,1.019,-30.823,22.583,22.095
0.075,-0.114,1.015,-31.250,23.926,21.240

0.549,2.285,0.199,-22.034,99.609,28.931
0.584,2.581,0.113,-34.912,96.436,35.095
0.591,2.823,0.004,-50.476,90.820,41.199
0.627,3.012,-0.099,-67.017,84.167,44.922
0.700,3.195,-0.202,-82.214,74.646,44.006
0.772,3.367,-0.285,-90.820,59.265,40.588
0.753,3.385,-0.383,-87.769,39.734,37.354
0.677,3.390,-0.414,-76.233,23.315,39.307
0.557,3.184,-0.484,-59.937,15.076,52.063
0.336,2.898,-0.495,-44.861,20.691,67.444
0.094,2.641,-0.355,-36.560,43.396,78.003
0.025,2.283,-0.156,-29.114,71.777,79.651
0.015,1.738,0.005,-18.311,89.661,60.608
0.020,1.105,0.155,-7.690,92.468,24.231
0.004,0.493,0.296,0.244,90.210,-19.043
-0.014,-0.092,0.428,8.484,99.426,-59.448
0.067,-0.820,0.687,14.526,120.300,-80.322
0.401,-1.519,0.951,15.381,140.198,-72.571
0.784,-1.926,1.205,26.062,138.977,-55.786
0.964,-2.204,1.512,68.604,127.502,-47.791
0.872,-2.535,1.514,145.569,125.183,-37.354
0.985,-3.042,1.382,226.746,150.574,-30.518
1.332,-3.641,1.365,283.936,190.735,-49.988
1.711,-3.772,1.529,301.514,220.947,-110.413
2.117,-3.340,1.734,279.846,221.130,-175.415
2.246,-2.742,1.891,238.831,180.603,-206.543
2.018,-2.106,1.779,192.688,114.990,-199.951
1.598,-1.534,1.500,146.179,57.739,-177.490
1.167,-1.101,1.135,101.074,32.715,-155.151
0.930,-0.800,0.783,57.129,44.128,-133.179
0.955,-0.494,0.609,15.991,79.651,-109.802
1.262,-0.275,0.635,-12.085,110.413,-79.712
1.381,-0.077,0.609,-23.621,104.553,-49.683
1.355,-0.132,0.437,-20.081,70.007,-23.254
1.338,0.004,0.718,-8.789,28.809,-7.202
1.245,-0.199,0.514,10.071,-21.851,10.315
0.565,-0.421,0.202,20.081,-69.885,30.396
0.507,0.010,0.608,10.986,-79.712,43.823
0.321,-0.281,0.551,15.076,-69.153,55.664
0.365,-0.530,0.537,21.667,-57.861,65.918
0.116,-0.416,0.558,9.949,-47.546,51.941
0.201,-0.347,0.671,-1.526,-35.522,39.246
0.203,-0.393,0.536,-7.446,-26.611,24.170
0.250,-0.397,0.463,-17.395,-15.015,8.423
0.298,-0.054,0.590,-25.269,-1.404,-9.827
0.434,-0.154,0.487,-21.240,6.958,-14.099
0.479,-0.068,0.476,-17.578,13.489,-16.846
0.538,-0.027,0.506,-13.672,18.860,-17.761
0.657,-0.068,0.496,-6.287,21.057,-16.296
0.728,-0.015,0.524,-1.526,17.456,-18.066
0.800,-0.047,0.526,1.709,8.667,-15.808
0.801,0.023,0.584,3.845,-0.305,-14.038
0.802,0.069,0.601,7.019,-7.751,-10.376
0.764,0.037,0.600,10.193,-11.658,-4.517
0.712,0.041,0.612,10.498,-9.949,-1.770
0.708,0.073,0.661,9.338,-3.967,-0.671
0.714,0.052,0.691,9.949,2.563,0.305
0.695,0.044,0.716,10.315,9.155,0.549
0.711,0.044,0.763,10.132,16.907,-0.305
0.749,0.025,0.789,9.460,23.254,-1.587
0.843,0.049,0.831,6.836,26.733,-1.343
0.981,0.029,0.856,2.991,23.315,2.869
1.007,0.006,0.800,0.000,10.132,5.920
0.980,0.047,0.790,-2.991,-4.456,4.578
0.957,0.049,0.766,-1.892,-17.029,4.272
0.938,0.005,0.730,0.977,-25.757,8.179
0.897,-0.026,0.697,3.052,-28.564,13.184
0.853,-0.037,0.688,4.211,-25.940,16.296
0.833,-0.039,0.680,4.822,-20.203,18.494
0.832,-0.034,0.683,4.089,-13.855,21.667
0.828,-0.036,0.669,2.930,-8.240,26.245
0.827,-0.036,0.680,1.770,-3.784,30.151
0.854,-0.018,0.724,2.319,-1.709,32.166
0.873,-0.019,0.717,4.761,-4.761,33.875
0.871,-0.081,0.699,7.202,-11.047,36.621
0.847,-0.124,0.681,7.202,-17.212,38.208
0.802,-0.115,0.673,6.653,-20.203,38.635
0.791,-0.092,0.651,5.859,-19.836,39.185
0.811,-0.128,0.636,3.601,-18.066,41.443
0.813,-0.156,0.609,-0.732,-17.578,43.701
0.799,-0.102,0.601,-5.310,-17.456,44.556
0.796,-0.079,0.588,-6.653,-17.273,46.448
0.788,-0.106,0.557,-5.554,-16.174,47.852
0.781,-0.074,0.561,-3.662,-13.855,47.668
0.760,-0.055,0.568,-0.671,-11.230,47.241
0.741,-0.087,0.570,4.028,-8.789,47.607
0.745,-0.111,0.588,7.690,-5.554,47.363
0.744,-0.087,0.598,9.216,-2.625,48.157
0.739,-0.149,0.604,8.789,-1.221,50.720
0.765,-0.170,0.622,6.409,-0.916,53.162
0.759,-0.095,0.608,2.502,-2.930,54.932
0.751,-0.034,0.602,-2.380,-6.348,56.946
0.721,-0.062,0.577,-6.836,-10.376,60.547
0.672,-0.025,0.552,-12.451,-13.916,63.843
0.619,0.021,0.529,-17.090,-15.137,64.941
0.589,0.024,0.506,-18.494,-13.916,63.660
0.579,0.036,0.506,-17.822,-11.169,61.096
0.565,0.051,0.513,-14.587,-8.667,58.167
0.528,0.096,0.505,-9.399,-6.165,55.969
0.498,0.155,0.501,-2.563,-1.526,52.979
0.495,0.145,0.508,4.150,6.775,50.659
0.526,0.158,0.529,7.935,15.869,50.354
0.608,0.241,0.583,7.874,22.644,50.110
0.686,0.270,0.622,5.798,21.851,50.415
0.699,0.224,0.631,2.136,12.085,51.086
0.685,0.185,0.614,-3.784,-1.892,51.331
0.623,0.175,0.577,-10.498,-15.503,48.218
0.568,0.177,0.549,-15.381,-24.353,42.664
0.530,0.226,0.541,-18.616,-26.733,37.537
0.504,0.261,0.540,-19.958,-24.353,34.668
0.498,0.270,0.532,-18.372,-18.494,33.142
0.489,0.315,0.531,-16.357,-9.155,31.494
0.519,0.318,0.542,-14.221,3.235,30.334
0.609,0.297,0.568,-13.672,15.930,31.067
0.679,0.302,0.586,-16.479,23.132,32.898
0.707,0.302,0.589,-22.095,24.109,36.133
0.714,0.280,0.568,-29.602,21.118,40.039
0.678,0.287,0.528,-37.903,16.602,41.504
0.582,0.330,0.469,-43.884,14.282,38.757

0.786,1.937,0.386,10.681,26.550,-6.165
0.766,2.185,0.342,18.066,8.118,-1.343
0.697,2.558,0.223,21.118,-8.362,6.165
0.596,2.930,0.018,24.231,-19.409,14.648
0.439,3.276,-0.218,26.367,-22.400,26.001
0.252,3.505,-0.472,25.940,-17.639,42.236
0.115,3.573,-0.728,21.667,-6.531,60.913
0.063,3.628,-0.981,10.986,6.409,75.195
0.049,3.756,-1.175,-1.953,13.245,81.726
0.049,3.934,-1.317,-7.690,6.531,85.510
0.000,3.872,-1.482,-0.244,-14.160,89.233
-0.144,3.718,-1.566,14.099,-40.283,92.346
-0.392,3.388,-1.495,37.964,-62.073,91.858
-0.789,2.665,-1.437,74.097,-70.496,85.876
-1.226,1.662,-1.265,98.083,-58.228,79.407
-1.442,0.468,-0.725,103.760,-19.775,72.937
-1.162,-0.739,-0.147,108.154,41.870,55.969
-0.594,-1.910,0.435,111.694,127.380,39.490
0.151,-2.938,1.145,104.370,234.314,40.894
1.622,-3.914,1.734,91.431,329.529,9.094
3.153,-4.000,2.376,62.866,364.624,-96.313
4.000,-4.000,2.739,11.780,278.809,-208.069
4.000,-4.000,2.590,-27.100,94.421,-290.955
3.683,-4.000,1.831,-33.875,-84.290,-351.868
2.691,-3.252,0.967,-14.587,-169.250,-357.117
1.971,-2.568,0.106,6.897,-141.052,-309.082
2.022,-1.740,-0.138,15.442,-33.997,-245.850
2.409,-0.847,0.165,17.029,68.542,-181.458
2.550,-0.340,0.570,28.564,100.769,-114.563
2.169,-0.193,0.740,46.631,59.021,-55.481
1.564,-0.219,0.637,60.974,-9.949,-19.531
0.957,-0.221,0.631,62.012,-58.716,-1.648
0.388,-0.237,0.617,58.105,-72.510,11.414
0.036,-0.257,0.636,51.514,-55.664,23.132
-0.163,-0.269,0.739,41.382,-25.696,32.715
-0.240,-0.271,0.878,30.334,-0.183,33.508
-0.093,-0.106,1.116,20.203,14.526,23.682
0.018,-0.253,0.918,12.878,10.620,15.137
0.045,0.031,1.104,-0.916,2.014,1.831
0.509,-0.485,0.844,-9.766,-13.245,-9.521
0.349,0.068,0.750,-27.283,-16.663,-41.382
0.665,-0.006,0.577,-33.936,-15.808,-39.673
0.877,-0.042,0.421,-31.921,-12.756,-31.433
0.845,0.052,0.324,-30.823,-5.737,-30.762
0.845,-0.036,0.268,-26.245,7.812,-22.644
0.833,-0.050,0.249,-19.592,28.320,-19.165
0.802,0.014,0.272,-14.954,52.063,-18.677
0.967,0.018,0.383,-10.010,70.435,-9.460
0.983,-0.043,0.403,-4.639,76.965,-1.099
1.023,-0.006,0.467,-2.075,75.684,3.418
1.049,-0.042,0.504,0.488,65.735,7.263
1.040,-0.053,0.510,0.732,48.950,11.230
0.970,0.022,0.502,-0.793,28.320,12.573
0.917,0.106,0.512,-0.183,11.414,11.902
0.918,0.151,0.559,5.005,-1.221,9.460
0.857,0.155,0.580,12.207,-11.963,6.470
0.857,0.095,0.599,19.226,-19.775,4.761
0.762,0.049,0.557,22.522,-24.231,0.732
0.736,0.043,0.602,20.386,-20.142,-2.563
0.769,0.022,0.603,17.029,-13.489,-3.723
0.801,-0.007,0.593,10.437,-6.897,-3.723
0.875,0.041,0.615,1.770,-0.732,-4.211
0.944,0.035,0.589,-4.761,0.610,-3.296
0.993,0.079,0.590,-10.193,-1.526,-2.991
1.010,0.088,0.558,-12.878,-7.263,-1.648
0.998,0.108,0.522,-13.306,-13.977,0.183
0.971,0.124,0.492,-11.597,-18.677,2.869
0.900,0.132,0.454,-7.874,-19.470,6.897
0.830,0.142,0.437,-3.418,-15.442,10.620
0.802,0.118,0.426,2.319,-8.057,13.611
0.779,0.085,0.429,6.775,-0.061,15.015
0.796,0.064,0.444,9.399,7.812,14.771
0.827,0.050,0.466,10.132,13.489,13.306
0.862,0.039,0.481,9.583,14.954,11.597
0.893,0.013,0.484,7.690,12.878,11.169
0.911,0.012,0.476,5.432,8.179,11.353
0.906,0.039,0.465,3.113,2.625,10.986
0.899,0.058,0.463,2.014,-2.686,10.315
0.895,0.056,0.470,2.930,-6.653,10.864
0.891,0.075,0.470,5.310,-9.583,12.573
0.890,0.039,0.477,9.216,-11.475,14.709
0.895,-0.011,0.486,13.306,-12.146,16.907
0.873,-0.050,0.474,16.052,-11.230,18.066
0.833,-0.077,0.452,16.052,-7.996,18.921
0.808,-0.099,0.425,13.306,-1.953,20.264
0.813,-0.126,0.416,9.155,7.080,21.118
0.815,-0.141,0.425,5.066,16.296,21.912
0.819,-0.100,0.416,1.282,24.414,23.132
0.839,-0.065,0.431,-1.038,31.921,25.940
0.879,-0.048,0.440,-2.075,36.987,29.907
0.898,-0.033,0.447,-1.953,38.208,32.776
0.894,0.009,0.449,0.244,36.377,33.813
0.887,0.029,0.451,3.357,33.142,34.546
0.869,0.014,0.459,6.470,28.931,34.607
0.857,-0.007,0.459,9.583,24.414,33.997
0.867,0.010,0.474,10.193,19.592,34.302
0.875,0.003,0.483,8.423,12.512,36.377
0.859,-0.066,0.478,6.714,4.517,39.368
0.815,-0.066,0.451,2.319,-2.014,41.016
0.761,-0.034,0.442,-3.052,-3.601,41.382
0.714,-0.017,0.404,-7.324,0.183,41.565
0.679,0.044,0.373,-10.681,9.888,42.175
0.674,0.133,0.376,-12.695,23.926,42.786
0.727,0.160,0.385,-11.963,36.987,43.640
0.786,0.132,0.399,-8.911,45.166,42.969
0.834,0.113,0.416,-5.432,47.302,39.368
0.869,0.104,0.436,-2.441,44.861,35.767
0.879,0.072,0.437,-1.709,39.368,35.400
0.870,0.105,0.427,-4.395,32.043,38.208
0.853,0.167,0.408,-8.911,24.963,40.833
0.829,0.197,0.372,-14.221,17.944,41.809
0.818,0.190,0.336,-20.020,11.353,40.100
0.809,0.203,0.306,-24.414,6.287,35.278
0.793,0.232,0.282,-26.550,3.662,28.992
0.801,0.219,0.267,-25.269,4.272,24.475
0.833,0.207,0.262,-21.729,7.263,22.095
0.855,0.241,0.268,-17.456,11.353,20.874
0.880,0.283,0.269,-13.306,16.418,22.705
0.900,0.316,0.282,-10.254,20.935,28.625

0.508,2.260,0.042,19.531,0.793,16.052
0.528,2.667,-0.074,15.137,6.165,22.217
0.548,3.065,-0.173,9.766,4.456,31.128
0.491,3.291,-0.287,7.019,-6.592,41.077
0.378,3.361,-0.461,6.775,-27.649,50.171
0.261,3.437,-0.642,6.226,-54.504,54.382
0.183,3.473,-0.838,8.606,-80.200,53.284
0.074,3.608,-0.954,12.268,-103.943,53.650
-0.044,3.673,-1.026,16.846,-128.296,63.416
-0.284,3.459,-1.137,23.987,-151.306,81.787
-0.747,3.111,-1.201,25.574,-164.124,97.778
-1.307,2.664,-1.275,23.560,-155.029,99.792
-1.808,2.037,-1.250,22.705,-105.469,89.661
-1.814,1.227,-0.961,19.592,-15.869,73.914
-1.001,0.322,-0.564,20.142,90.088,53.345
0.187,-0.285,-0.080,34.851,183.838,47.729
1.115,-0.860,0.597,69.458,245.972,74.829
1.882,-1.843,1.262,122.253,272.400,125.366
2.911,-3.057,1.614,170.288,266.113,113.770
3.526,-3.560,1.945,155.701,230.225,26.367
3.372,-4.000,2.036,87.891,148.437,-56.885
2.946,-4.000,1.622,1.099,48.584,-128.296
2.475,-3.665,1.145,-86.792,-12.207,-218.262
1.998,-2.645,0.697,-139.648,-26.428,-280.457
1.714,-1.892,0.271,-146.790,-8.850,-288.696
1.831,-1.120,0.094,-118.958,24.353,-266.296
2.003,-0.518,0.086,-64.209,38.391,-236.816
2.117,-0.227,0.214,4.517,18.372,-202.881
1.989,-0.148,0.347,69.458,-29.053,-160.889
1.744,-0.138,0.467,115.112,-83.679,-116.211
1.488,-0.123,0.671,137.939,-122.803,-72.083
1.131,-0.190,0.799,141.357,-140.686,-32.776
0.943,-0.122,1.132,127.869,-135.803,-6.470
0.471,-0.248,0.941,106.689,-119.019,9.583
0.397,-0.291,1.048,73.059,-76.721,13.672
0.152,-0.265,0.922,35.889,-34.790,9.094
0.307,-0.465,0.674,-2.258,2.380,7.080
0.259,-0.170,0.639,-35.583,32.410,-13.245
0.193,-0.153,0.277,-54.749,45.593,-24.597
0.400,0.113,0.391,-59.204,54.626,-32.654
0.533,0.069,0.178,-43.945,46.387,-34.485
0.706,0.155,0.219,-22.217,36.682,-37.231
0.724,0.153,0.149,0.427,23.376,-43.396
0.899,0.121,0.260,19.958,14.709,-40.527
0.805,0.092,0.243,31.372,7.385,-36.377
0.795,0.135,0.351,33.264,9.766,-24.963
0.846,0.132,0.484,34.912,14.465,-15.320
0.908,0.050,0.580,37.048,17.639,-9.888
0.847,-0.094,0.603,34.668,19.165,-7.996
0.807,-0.077,0.637,25.818,22.217,-10.864
0.771,-0.168,0.533,12.634,25.879,-9.521
0.731,-0.063,0.492,-4.211,32.288,-8.972
0.711,0.093,0.451,-15.747,37.170,-8.667
0.790,0.202,0.489,-16.296,37.659,-8.850
0.892,0.220,0.489,-6.836,27.893,-11.414
0.898,0.235,0.494,4.578,10.315,-15.808
0.937,0.264,0.592,14.404,-7.202,-19.348
0.980,0.167,0.591,24.170,-24.048,-19.836
0.963,0.138,0.616,27.832,-34.729,-19.775
0.912,0.137,0.625,25.513,-36.743,-18.372
0.880,0.100,0.633,20.996,-30.334,-14.771
0.896,0.077,0.643,13.855,-18.738,-12.146
0.838,0.037,0.588,5.737,-6.836,-9.827
0.750,0.063,0.517,-4.150,7.812,-9.888
0.769,0.114,0.520,-12.268,26.794,-11.658
0.870,0.129,0.532,-16.235,41.748,-13.184
1.002,0.140,0.545,-16.541,47.058,-14.099
1.017,0.124,0.511,-15.930,42.480,-14.526
1.017,0.153,0.501,-15.503,35.095,-14.404
1.031,0.149,0.489,-13.855,27.222,-11.414
1.036,0.127,0.470,-12.268,19.165,-5.249
1.001,0.150,0.445,-12.451,12.634,2.747
0.970,0.182,0.444,-12.268,8.423,11.414
0.946,0.182,0.450,-10.010,6.165,17.639
0.896,0.171,0.446,-6.531,5.005,20.630
0.855,0.162,0.457,-4.089,6.287,21.362
0.838,0.153,0.470,-2.869,9.705,20.386
0.833,0.140,0.478,-3.418,13.916,18.555
0.846,0.140,0.493,-5.798,17.761,15.503
0.860,0.156,0.491,-9.155,19.348,12.268
0.884,0.154,0.483,-12.146,18.677,10.742
0.908,0.168,0.469,-15.686,15.137,10.437
0.907,0.181,0.443,-18.433,8.789,10.376
0.871,0.229,0.411,-20.447,1.892,10.254
0.854,0.259,0.390,-20.752,-2.930,9.766
0.853,0.255,0.371,-18.372,-5.615,9.338
0.842,0.243,0.370,-14.587,-6.470,8.728
0.839,0.229,0.360,-10.925,-5.066,8.057
0.843,0.166,0.359,-7.568,-1.526,7.202
0.838,0.135,0.358,-6.836,3.052,6.104
0.818,0.139,0.321,-7.690,9.399,4.761
0.816,0.141,0.297,-10.071,17.639,3.540
0.838,0.164,0.291,-13.245,27.161,3.418
0.885,0.201,0.291,-15.564,34.180,4.639
0.937,0.201,0.320,-16.113,35.645,7.080
0.991,0.179,0.348,-14.893,30.884,8.972
1.020,0.157,0.358,-12.085,20.874,9.338
1.016,0.130,0.354,-8.606,8.911,9.277
0.998,0.110,0.343,-6.165,-1.404,10.559
0.962,0.097,0.319,-3.967,-8.057,12.695
0.926,0.076,0.296,-2.258,-10.071,15.076
0.887,0.064,0.290,-1.221,-7.324,16.968
0.877,0.051,0.291,-0.732,-0.427,19.226
0.885,0.066,0.301,-1.404,9.460,21.667
0.926,0.042,0.323,-3.052,18.799,23.621
0.984,0.013,0.344,-5.127,24.353,25.513
1.036,0.018,0.363,-7.629,24.963,26.001
1.077,0.034,0.365,-9.399,19.409,25.452
1.082,0.043,0.358,-9.705,9.338,25.635
1.063,0.033,0.351,-8.972,-1.709,27.466
1.000,0.021,0.328,-6.714,-10.559,29.358
0.920,0.007,0.313,-3.845,-13.977,30.029
0.880,-0.018,0.317,-1.221,-10.193,31.616
0.852,-0.010,0.307,-0.183,-1.831,34.912
0.849,-0.000,0.303,-2.075,9.277,39.001
0.870,-0.014,0.311,-4.578,20.813,42.358
0.908,0.023,0.313,-7.080,30.640,44.006
0.956,0.119,0.322,-9.338,35.583,44.983
1.005,0.165,0.342,-9.460,34.363,46.509

0.978,1.548,0.119,6.348,17.273,-16.602
0.936,1.699,0.030,-0.610,3.723,-13.367
0.872,1.855,-0.067,-7.568,-6.897,-7.812
0.805,2.095,-0.162,-14.160,-16.663,-3.601
0.715,2.377,-0.272,-18.127,-27.832,-4.578
0.592,2.661,-0.403,-19.287,-38.635,-12.878
0.405,2.749,-0.560,-15.320,-45.837,-28.809
0.264,2.730,-0.720,-11.902,-40.222,-46.692
0.359,2.503,-0.816,-15.442,-23.804,-56.946
0.635,2.276,-0.852,-31.799,-11.047,-57.922
0.817,2.140,-0.847,-57.434,-13.367,-50.781
0.902,2.065,-0.806,-83.069,-30.945,-29.785
0.865,2.035,-0.705,-96.802,-58.228,-2.563
0.639,1.912,-0.591,-87.341,-88.440,18.616
0.242,1.688,-0.510,-54.077,-114.746,24.414
-0.277,1.390,-0.389,-8.850,-124.695,9.399
-0.657,0.856,-0.178,37.292,-106.262,-17.761
-0.678,0.123,0.194,65.857,-62.317,-43.457
-0.310,-0.392,0.584,61.462,-17.761,-65.369
0.040,-0.568,0.823,34.851,1.648,-73.975
0.180,-0.480,0.963,15.503,-6.714,-64.880
0.102,-0.645,0.985,32.043,-24.963,-45.532
-0.115,-1.014,0.903,83.313,-28.442,-24.536
-0.288,-1.413,0.880,148.437,-1.343,-7.080
-0.199,-2.227,0.910,220.337,54.260,3.601
0.195,-3.476,1.014,280.334,125.122,4.333
0.975,-4.000,1.248,298.035,190.918,-31.433
1.871,-4.000,1.512,256.592,223.572,-109.741
2.540,-3.601,1.775,169.556,209.778,-194.458
2.832,-2.509,1.843,72.815,157.532,-245.667
2.860,-1.499,1.635,-5.737,92.712,-254.333
2.716,-0.797,1.247,-63.660,42.297,-231.140
2.507,-0.375,0.771,-106.262,20.569,-188.538
2.309,-0.174,0.355,-134.644,20.996,-129.761
2.111,-0.003,0.067,-147.400,27.771,-64.697
1.876,0.255,0.020,-137.573,26.917,-6.714
1.637,0.450,0.087,-100.769,9.583,42.419
1.340,0.328,0.085,-44.678,-23.315,84.106
1.085,0.057,0.208,8.362,-62.805,111.450
0.794,-0.153,0.254,44.739,-101.685,126.343
0.298,-0.217,0.292,60.364,-126.343,130.554
0.024,-0.311,0.406,65.857,-128.479,124.390
-0.192,-0.376,0.429,66.406,-112.427,103.638
-0.268,-0.384,0.532,58.105,-80.688,80.139
-0.276,-0.295,0.571,43.030,-43.213,55.969
-0.041,-0.177,0.707,28.137,-5.676,37.292
0.169,-0.212,0.625,18.066,18.616,21.179
0.286,-0.109,0.584,5.371,33.752,0.061
0.433,0.025,0.527,-6.348,41.260,-15.991
0.587,0.119,0.488,-12.329,41.931,-25.330
0.743,0.196,0.460,-12.329,37.170,-29.358
0.849,0.249,0.442,-7.080,28.015,-28.809
0.920,0.286,0.462,1.282,16.052,-24.353
0.952,0.328,0.487,12.756,1.892,-17.822
0.912,0.269,0.478,24.963,-12.085,-8.972
0.851,0.213,0.498,33.264,-21.729,-1.526
0.791,0.141,0.504,37.659,-25.757,3.113
0.739,0.082,0.513,38.513,-23.865,2.869
0.696,0.054,0.541,35.645,-15.991,-2.319
0.707,0.053,0.576,30.029,-4.883,-7.874
0.753,0.049,0.595,21.484,6.958,-11.902
0.831,0.051,0.617,11.902,16.479,-15.625
0.920,0.057,0.620,2.625,19.165,-18.555
0.958,0.092,0.593,-5.432,14.343,-19.897
0.965,0.141,0.561,-12.024,5.493,-17.822
0.954,0.172,0.522,-14.832,-3.662,-12.939
0.916,0.192,0.489,-14.160,-10.925,-8.240
0.883,0.195,0.472,-10.803,-15.808,-4.883
0.842,0.186,0.463,-5.554,-18.982,-3.235
0.802,0.164,0.463,-0.366,-19.714,-2.441
0.762,0.137,0.469,3.845,-17.334,-2.441
0.757,0.111,0.480,7.202,-11.536,-3.479
0.771,0.110,0.512,9.094,-5.066,-6.226
0.792,0.098,0.530,9.888,0.366,-9.521
0.810,0.095,0.539,10.071,4.211,-12.634
0.853,0.086,0.556,9.094,6.836,-15.015
0.894,0.078,0.566,7.935,5.737,-17.456
0.921,0.077,0.578,7.141,0.977,-18.982
0.955,0.047,0.586,6.104,-4.761,-17.761
0.963,0.028,0.599,3.418,-10.864,-11.536
0.956,0.048,0.596,-1.587,-16.968,-3.967
0.905,0.058,0.568,-5.066,-21.545,1.892
0.826,0.064,0.529,-7.568,-21.790,4.333
0.776,0.079,0.505,-9.521,-15.808,4.089
0.763,0.100,0.506,-11.108,-5.920,3.479
0.785,0.116,0.515,-11.292,4.578,3.113
0.819,0.119,0.524,-10.071,11.719,2.747
0.849,0.112,0.536,-9.094,14.221,2.747
0.867,0.106,0.544,-8.118,11.414,2.563
0.876,0.106,0.541,-6.897,5.310,2.136
0.864,0.119,0.529,-6.226,-1.709,2.075
0.839,0.130,0.515,-5.188,-7.385,2.075
0.808,0.132,0.500,-2.991,-9.583,0.610
0.804,0.136,0.500,-0.916,-8.362,-1.465
0.813,0.127,0.517,0.488,-5.310,-2.991
0.833,0.109,0.534,0.732,-1.404,-3.052
0.839,0.098,0.545,-0.549,2.441,-1.648
0.819,0.088,0.542,-3.357,6.104,0.549
0.805,0.078,0.532,-5.798,10.193,2.380
0.804,0.073,0.515,-9.216,14.282,2.563
0.815,0.091,0.502,-11.658,16.907,1.343
0.835,0.108,0.497,-13.000,18.005,-0.244
0.859,0.104,0.487,-13.123,17.456,-1.404
0.869,0.110,0.475,-13.062,15.564,-1.709
0.879,0.121,0.469,-12.573,13.855,-0.793
0.894,0.118,0.469,-12.146,12.573,1.892
0.898,0.115,0.471,-11.292,10.742,4.578
0.895,0.118,0.474,-10.376,9.216,7.507
0.889,0.119,0.479,-9.583,8.423,10.193
0.883,0.118,0.483,-9.583,8.118,12.939
0.872,0.117,0.487,-10.071,7.812,15.381
0.844,0.123,0.490,-11.108,7.690,17.212
0.813,0.119,0.486,-11.475,8.057,17.822
0.791,0.097,0.471,-11.597,9.277,17.212
0.766,0.091,0.450,-12.390,11.353,14.893
0.744,0.110,0.427,-13.672,14.771,11.902
0.746,0.138,0.411,-15.198,19.653,8.911
0.763,0.173,0.408,-15.625,24.109,6.348
0.791,0.195,0.413,-14.404,26.855,4.150

0.881,1.919,-0.095,0.305,23.437,-32.043
0.940,2.000,-0.078,-0.244,12.695,-15.564
0.904,2.114,-0.144,-4.150,-10.254,0.366
0.801,2.241,-0.280,-10.315,-41.016,12.573
0.674,2.255,-0.522,-15.869,-73.242,19.531
0.533,2.154,-0.849,-23.193,-99.976,21.729
0.441,2.154,-1.122,-36.316,-119.812,22.827
0.397,2.420,-1.284,-49.622,-135.132,23.682
0.324,2.747,-1.301,-49.133,-147.522,23.987
0.149,2.810,-1.219,-29.602,-152.222,24.963
-0.105,2.598,-1.081,2.014,-141.479,25.818
-0.349,2.179,-0.852,32.227,-110.840,22.705
-0.509,1.530,-0.625,47.852,-59.814,21.606
-0.413,0.925,-0.436,39.490,0.549,23.254
-0.122,0.384,-0.086,9.033,56.641,26.489
0.241,-0.170,0.243,-37.842,93.323,42.786
0.532,-0.544,0.393,-95.032,101.318,82.886
0.542,-0.552,0.429,-136.658,84.839,130.310
0.484,-0.654,0.627,-129.211,61.462,158.203
0.498,-0.879,0.674,-61.035,49.011,141.296
0.718,-1.242,0.742,48.767,62.195,72.571
1.082,-1.710,1.088,156.250,92.529,-20.508
1.957,-2.176,1.647,231.995,113.708,-89.539
2.817,-2.354,2.334,270.874,78.918,-106.018
3.182,-2.289,2.817,289.490,-20.142,-105.652
2.970,-2.027,2.965,297.180,-151.306,-109.375
2.251,-1.843,2.750,279.358,-271.484,-119.446
1.353,-1.695,2.274,223.877,-338.806,-134.399
0.611,-1.548,1.700,137.573,-331.116,-153.564
0.191,-1.369,1.152,35.645,-249.817,-177.368
0.017,-1.102,0.740,-68.909,-115.173,-205.078
0.208,-0.665,0.358,-158.020,42.419,-235.413
0.636,-0.253,0.057,-215.454,192.566,-260.742
1.230,0.083,-0.147,-239.685,305.237,-269.592
1.915,0.320,-0.184,-239.990,356.750,-247.498
2.497,0.183,-0.290,-221.619,333.862,-199.585
2.258,0.810,-0.124,-194.275,247.986,-154.358
2.681,0.495,0.003,-140.503,110.229,-82.092
2.185,0.433,-0.196,-73.181,-37.659,-43.274
1.434,0.545,-0.210,-15.381,-152.283,-8.789
0.919,0.270,-0.350,41.565,-223.145,39.307
0.483,0.076,-0.310,81.360,-236.877,75.378
0.142,0.007,-0.108,103.394,-202.454,101.257
0.039,-0.101,0.133,117.432,-145.630,116.760
0.021,-0.256,0.327,124.573,-84.290,114.929
0.072,-0.372,0.542,119.202,-26.978,92.224
0.149,-0.480,0.628,101.624,17.334,57.251
0.309,-0.421,0.761,72.571,51.208,18.921
0.473,-0.379,0.751,40.649,70.190,-13.245
0.602,-0.193,0.745,10.010,78.125,-36.682
0.688,-0.067,0.643,-14.526,80.811,-46.387
0.803,0.121,0.642,-29.358,79.956,-49.561
0.896,0.139,0.511,-32.104,71.716,-45.776
0.908,0.141,0.402,-31.067,61.890,-42.053
0.892,0.244,0.388,-28.442,55.420,-41.382
0.929,0.278,0.354,-19.104,50.232,-38.452
0.984,0.201,0.323,-7.263,46.082,-32.654
1.078,0.234,0.398,0.061,40.344,-27.161
1.180,0.237,0.422,8.057,25.330,-19.775
1.199,0.234,0.436,15.930,2.869,-12.207
1.133,0.231,0.423,21.484,-19.775,-4.028
1.070,0.252,0.434,26.428,-38.025,4.272
0.985,0.224,0.425,31.616,-49.377,12.207
0.897,0.195,0.434,34.424,-52.429,18.250
0.828,0.180,0.454,35.645,-47.729,21.301
0.803,0.170,0.494,35.950,-38.452,22.522
0.795,0.137,0.524,35.583,-30.029,22.339
0.777,0.093,0.537,33.264,-23.621,20.813
0.770,0.069,0.545,27.771,-16.846,18.616
0.766,0.069,0.539,19.836,-10.376,16.663
0.784,0.068,0.534,11.475,-4.639,14.221
0.805,0.061,0.516,4.395,-1.160,9.827
0.824,0.078,0.502,-1.221,0.183,3.967
0.843,0.103,0.480,-5.371,-0.183,-0.244
0.857,0.123,0.456,-7.507,-1.282,-1.831
0.868,0.131,0.438,-7.996,-2.441,-1.770
0.872,0.133,0.422,-6.287,-4.211,-1.282
0.854,0.138,0.401,-3.418,-6.104,-1.038
0.822,0.135,0.391,0.183,-6.470,-1.892
0.816,0.137,0.396,3.662,-4.272,-2.319
0.812,0.125,0.392,6.104,-0.977,-0.977
0.818,0.142,0.417,6.897,2.319,0.671
0.818,0.154,0.437,8.667,4.578,1.282
0.812,0.144,0.448,11.475,5.066,1.160
0.809,0.135,0.465,13.733,4.700,0.793
0.830,0.110,0.486,14.832,3.723,1.404
0.858,0.086,0.501,13.611,1.404,3.296
0.873,0.074,0.512,10.376,-2.136,4.333
0.874,0.074,0.509,5.920,-6.714,3.967
0.846,0.110,0.505,0.977,-11.414,2.502
0.830,0.136,0.495,-2.136,-15.564,1.709
0.789,0.147,0.462,-2.258,-17.273,0.305
0.749,0.143,0.436,-1.404,-14.282,-1.831
0.748,0.136,0.436,-0.366,-7.080,-3.906
0.778,0.117,0.442,0.732,1.099,-5.676
0.806,0.106,0.446,0.549,7.263,-6.531
0.845,0.114,0.463,-0.854,10.986,-6.287
0.879,0.124,0.478,-2.380,10.742,-5.493
0.904,0.131,0.485,-3.357,7.263,-3.906
0.904,0.132,0.472,-3.174,1.343,-2.502
0.879,0.141,0.459,-2.502,-4.517,-0.671
0.852,0.141,0.448,-1.282,-7.874,1.343
0.835,0.139,0.450,0.000,-8.728,3.113
0.828,0.131,0.454,1.892,-8.179,3.723
0.825,0.123,0.465,2.869,-5.859,3.662
0.833,0.113,0.480,3.235,-3.052,3.479
0.847,0.109,0.497,2.747,-0.183,3.357
0.864,0.103,0.507,1.770,1.831,3.296
0.870,0.097,0.508,0.244,2.441,3.235
0.864,0.103,0.501,-1.465,2.380,2.625
0.851,0.109,0.488,-3.540,2.808,2.319
0.840,0.116,0.474,-4.700,4.272,1.770
0.837,0.121,0.466,-5.127,6.897,1.282
0.850,0.118,0.459,-5.188,10.254,0.977
0.868,0.117,0.453,-4.761,12.756,0.977
0.893,0.119,0.454,-3.845,14.404,1.526
0.919,0.115,0.455,-2.930,14.648,2.686
0.939,0.114,0.466,-1.770,13.123,4.150
0.951,0.105,0.477,-0.244,10.315,5.676

0.512,1.876,-0.247,7.080,-89.172,-27.344
0.445,1.889,-0.357,2.502,-101.135,-36.804
0.368,1.901,-0.460,-4.150,-102.173,-40.588
0.293,1.955,-0.493,-11.292,-92.041,-37.537
0.201,1.988,-0.508,-14.587,-74.341,-28.625
0.163,2.032,-0.479,-10.925,-53.040,-20.874
0.132,2.007,-0.419,1.465,-32.288,-22.888
0.128,1.888,-0.350,18.921,-17.029,-35.522
0.190,1.726,-0.272,33.081,-10.620,-55.176
0.244,1.501,-0.187,37.964,-16.052,-74.707
0.379,1.285,-0.083,29.846,-32.593,-83.374
0.509,1.120,0.047,10.437,-63.599,-77.942
0.490,0.937,0.119,-8.972,-108.582,-61.157
0.284,0.728,0.143,-21.179,-155.273,-35.034
-0.054,0.391,0.200,-19.165,-189.514,-6.226
-0.298,-0.049,0.295,2.502,-196.899,17.212
-0.417,-0.481,0.481,49.744,-173.096,27.283
-0.324,-1.025,0.740,117.126,-126.831,24.658
-0.050,-1.699,0.968,188.782,-80.627,20.996
0.274,-2.434,1.179,255.371,-41.992,10.132
0.617,-3.100,1.373,306.396,-11.658,-12.817
0.930,-3.606,1.535,330.627,4.700,-44.067
1.291,-3.853,1.794,326.782,7.935,-87.341
1.615,-3.647,2.016,291.748,-1.648,-138.367
1.702,-3.164,2.035,227.661,-20.020,-183.289
1.639,-2.475,1.825,137.756,-32.227,-211.365
1.437,-1.794,1.364,36.133,-21.057,-222.534
1.320,-1.195,0.863,-66.589,22.705,-219.177
1.408,-0.704,0.488,-153.015,94.055,-204.102
1.554,-0.418,0.273,-209.778,170.593,-184.143
1.665,-0.099,0.117,-235.474,228.577,-159.851
1.780,0.263,0.120,-229.004,255.676,-125.854
1.875,0.453,0.183,-192.871,242.187,-82.336
1.889,0.439,0.229,-137.390,187.500,-40.283
1.880,0.393,0.319,-80.566,104.492,-3.296
1.551,0.131,0.266,-28.259,10.925,30.518
1.336,0.131,0.366,10.681,-66.833,53.894
0.985,-0.037,0.284,42.664,-126.343,72.876
0.670,-0.161,0.289,63.049,-157.227,83.618
0.353,-0.214,0.349,70.068,-159.058,89.172
0.136,-0.290,0.423,68.848,-138.245,97.656
0.084,-0.370,0.471,60.608,-103.699,104.980
0.037,-0.386,0.495,48.401,-63.904,98.328
0.054,-0.292,0.566,33.752,-22.644,76.843
0.132,-0.226,0.598,21.362,12.207,47.302
0.267,-0.175,0.610,10.254,39.917,17.700
0.446,-0.120,0.622,-0.854,58.838,-5.188
0.611,-0.064,0.630,-10.803,67.932,-19.897
0.755,-0.017,0.616,-17.212,66.406,-26.978
0.869,0.020,0.591,-20.447,56.396,-28.503
0.933,0.052,0.570,-20.935,40.588,-26.550
0.956,0.072,0.536,-18.188,22.766,-21.851
0.924,0.092,0.504,-12.939,6.531,-16.663
0.873,0.086,0.472,-5.615,-4.211,-12.024
0.839,0.062,0.446,0.977,-8.057,-7.874
0.831,0.055,0.446,5.615,-7.385,-4.700
0.840,0.056,0.474,8.362,-5.371,-3.601
0.849,0.041,0.496,10.803,-3.540,-3.418
0.873,0.023,0.516,12.024,-1.892,-3.296
0.881,0.018,0.530,11.597,-1.343,-3.235
0.889,0.022,0.545,8.911,-2.075,-2.136
0.882,0.004,0.542,6.897,-4.272,0.366
0.867,-0.019,0.535,4.944,-6.592,1.648
0.847,-0.015,0.520,2.441,-8.423,2.136
0.824,0.020,0.509,-0.061,-9.399,2.686
0.799,0.056,0.506,-0.916,-9.766,3.784
0.767,0.068,0.505,0.244,-9.460,4.700
0.735,0.041,0.493,3.601,-8.606,4.211
0.719,0.009,0.490,6.348,-6.042,1.709
0.728,-0.005,0.498,7.324,-2.258,-1.770
0.755,-0.001,0.501,6.958,1.160,-4.150
0.782,0.016,0.513,5.432,3.052,-5.493
0.803,0.027,0.539,4.395,3.174,-6.409
0.831,0.036,0.561,5.920,0.610,-7.202
0.858,0.023,0.567,8.484,-4.333,-7.996
0.870,0.002,0.572,10.132,-9.827,-7.874
0.868,-0.014,0.566,10.071,-14.526,-6.287
0.840,-0.006,0.553,8.362,-17.456,-3.845
0.792,0.018,0.556,6.104,-17.090,-1.221
0.746,0.026,0.551,6.042,-14.099,1.587
0.720,0.012,0.550,6.897,-8.484,3.601
0.724,0.006,0.561,7.080,-1.465,4.456
0.743,0.007,0.584,6.104,4.456,4.578
0.766,0.006,0.598,4.517,7.996,3.906
0.785,0.012,0.603,2.563,8.179,2.686
0.793,0.028,0.605,0.305,5.493,1.160
0.793,0.039,0.604,-1.404,1.221,-0.366
0.792,0.039,0.593,-1.953,-2.869,-2.197
0.791,0.031,0.578,-1.831,-5.310,-3.357
0.797,0.028,0.568,-2.563,-5.859,-3.540
0.798,0.034,0.560,-3.723,-5.310,-3.235
0.799,0.039,0.555,-4.333,-4.272,-2.441
0.798,0.044,0.551,-4.395,-3.479,-1.709
0.798,0.037,0.551,-3.601,-2.502,-1.831
0.800,0.035,0.550,-2.380,-1.648,-2.625
0.803,0.041,0.552,-1.404,-0.732,-3.174
0.808,0.035,0.553,-0.366,0.305,-3.174
0.820,0.026,0.556,0.732,1.648,-3.113
0.843,0.026,0.566,0.977,2.441,-2.808
0.863,0.030,0.583,0.671,1.709,-1.770
0.863,0.035,0.590,0.977,-0.732,-0.244
0.848,0.029,0.594,0.549,-3.662,1.953
0.822,0.014,0.584,0.122,-5.981,4.211
0.798,0.016,0.577,-0.916,-6.592,5.920
0.781,0.021,0.572,-2.319,-5.493,7.019
0.773,0.018,0.567,-3.418,-3.479,7.202
0.772,0.018,0.564,-4.272,-1.160,6.409
0.769,0.024,0.563,-5.188,1.099,4.517
0.773,0.027,0.564,-5.859,3.784,2.319
0.784,0.018,0.561,-6.226,6.104,0.427
0.800,0.020,0.555,-6.775,8.667,-1.099
0.821,0.029,0.554,-7.629,11.292,-1.953
0.833,0.035,0.551,-7.935,13.428,-1.648
0.842,0.033,0.543,-8.301,15.808,-0.854
0.860,0.025,0.542,-8.179,18.127,0.183
0.880,0.038,0.537,-8.606,19.775,1.404
0.906,0.031,0.539,-8.362,19.409,2.441
0.932,0.034,0.544,-8.301,17.456,3.662
0.950,0.039,0.548,-7.874,13.855,5.249

0.675,2.123,-0.294,-4.761,12.024,-38.452
0.618,2.464,-0.434,-12.634,0.916,-36.804
0.582,2.812,-0.513,-21.851,-16.479,-35.767
0.557,3.063,-0.594,-27.466,-42.969,-35.889
0.481,3.102,-0.695,-26.001,-72.815,-37.048
0.407,3.063,-0.753,-21.606,-96.924,-37.231
0.323,2.948,-0.784,-15.686,-111.450,-38.940
0.201,2.731,-0.839,-6.104,-114.990,-44.006
0.094,2.509,-0.890,3.967,-102.966,-50.720
-0.018,2.291,-0.810,10.742,-77.881,-57.129
-0.005,1.849,-0.680,14.709,-47.546,-63.416
0.185,1.438,-0.536,9.705,-22.034,-69.092
0.363,1.199,-0.334,-3.906,-15.503,-69.519
0.424,0.944,-0.139,-10.986,-37.170,-59.692
0.186,0.556,0.015,-1.221,-75.562,-39.978
-0.082,0.023,0.166,22.888,-106.995,-13.489
-0.216,-0.538,0.324,57.678,-121.155,16.418
-0.216,-1.089,0.489,103.149,-122.559,47.729
-0.292,-1.587,0.608,164.368,-117.188,76.294
-0.568,-2.354,0.749,252.563,-99.854,86.060
-0.728,-3.786,0.857,357.422,-58.777,58.289
-0.511,-4.000,0.930,440.979,5.432,-19.348
0.178,-4.000,1.381,454.773,86.243,-135.498
1.218,-4.000,1.969,378.845,151.306,-246.033
2.195,-4.000,2.250,254.883,169.495,-322.693
2.885,-3.437,2.068,111.694,145.081,-360.535
3.458,-1.779,1.665,-21.240,103.455,-362.122
3.942,-0.285,1.253,-126.404,68.542,-334.778
4.000,0.521,1.154,-194.580,43.884,-280.518
3.433,0.479,0.774,-224.426,20.142,-194.641
2.329,0.393,0.242,-223.022,2.869,-79.834
1.648,0.481,0.071,-205.933,-0.427,40.955
1.217,0.344,-0.045,-159.485,-10.010,125.916
0.885,0.295,-0.062,-89.844,-29.602,163.147
0.422,0.149,0.239,-18.127,-51.514,173.706
0.567,-0.249,0.182,44.861,-87.891,169.922
0.106,-0.520,0.182,84.961,-118.347,150.635
-0.324,-0.592,0.305,89.111,-124.268,130.005
-0.579,-1.093,0.124,82.703,-103.394,108.459
-0.660,-0.177,0.759,61.768,-54.504,74.097
-0.334,-0.612,0.618,57.556,-24.353,73.059
-0.181,-0.359,0.785,40.527,5.798,47.058
0.010,-0.311,0.755,23.499,22.949,22.400
0.122,-0.297,0.653,8.179,30.579,-3.418
0.231,-0.200,0.600,-7.507,42.480,-26.245
0.381,-0.201,0.470,-18.250,57.922,-43.762
0.506,-0.100,0.349,-27.954,80.017,-55.359
0.968,0.144,0.732,-34.668,101.135,-53.711
1.217,0.007,0.564,-23.743,83.862,-39.429
1.317,-0.026,0.585,-17.151,57.251,-21.118
1.341,0.159,0.679,-13.794,26.306,-7.751
1.239,0.016,0.574,0.427,-12.329,9.338
1.098,-0.015,0.522,7.507,-38.330,20.630
0.920,-0.002,0.500,11.658,-50.354,26.367
0.857,0.061,0.554,14.282,-48.828,28.870
0.820,0.057,0.577,18.738,-42.725,30.396
0.808,0.027,0.615,22.949,-33.203,28.259
0.784,0.022,0.657,25.452,-23.804,23.071
0.753,-0.019,0.662,25.879,-16.052,19.470
0.725,-0.055,0.659,21.423,-7.324,17.944
0.766,-0.020,0.713,13.184,1.404,17.517
0.818,-0.033,0.711,5.066,5.371,20.630
0.848,-0.019,0.729,-2.991,4.333,23.926
0.842,0.026,0.726,-8.850,-0.977,24.841
0.801,0.052,0.692,-11.414,-8.301,24.902
0.752,0.048,0.643,-11.475,-13.062,24.841
0.694,0.027,0.588,-11.230,-13.306,23.193
0.669,0.083,0.611,-11.475,-8.850,18.982
0.693,0.085,0.625,-8.606,-4.944,16.663
0.726,0.053,0.631,-4.211,-2.197,15.625
0.736,0.020,0.628,-0.916,0.000,14.038
0.739,-0.002,0.625,0.671,2.930,11.414
0.731,-0.021,0.628,0.732,8.301,8.728
0.742,-0.038,0.629,-0.793,15.930,6.958
0.771,-0.041,0.634,-3.479,24.048,5.615
0.795,-0.031,0.640,-6.470,30.701,4.761
0.816,-0.019,0.643,-9.216,34.424,4.944
0.833,-0.008,0.641,-10.864,35.156,7.324
0.829,-0.004,0.627,-11.963,33.691,11.414
0.816,-0.016,0.613,-13.000,31.006,16.174
0.790,-0.015,0.592,-13.855,27.832,19.104
0.783,-0.003,0.578,-14.038,26.367,19.836
0.790,-0.021,0.570,-13.977,26.489,19.836
0.828,-0.043,0.595,-14.465,27.100,20.081
0.869,-0.065,0.625,-16.724,26.001,21.912
0.905,-0.057,0.641,-22.461,22.339,26.855
0.919,-0.024,0.674,-30.701,16.235,33.936
0.886,0.051,0.669,-38.330,9.094,39.551
0.841,0.114,0.628,-41.565,2.563,42.786
0.794,0.138,0.594,-39.795,-0.977,44.739
0.761,0.127,0.561,-35.522,-0.671,45.349
0.740,0.117,0.537,-30.029,2.991,45.105
0.727,0.087,0.515,-24.231,8.484,44.495
0.711,0.028,0.499,-19.653,15.320,43.579
0.704,-0.002,0.492,-18.677,24.109,41.443
0.731,0.008,0.494,-20.081,34.302,38.696
0.760,0.022,0.497,-22.461,43.457,36.194
0.784,0.054,0.494,-24.231,49.622,33.447
0.828,0.100,0.508,-25.757,52.490,32.043
0.869,0.120,0.516,-25.757,51.086,32.593
0.905,0.127,0.513,-23.804,45.959,33.997
0.922,0.161,0.507,-21.729,37.720,35.645
0.926,0.173,0.498,-19.043,28.076,38.208
0.915,0.151,0.493,-15.381,18.494,41.260
0.902,0.109,0.499,-11.292,11.169,42.847
0.878,0.089,0.503,-7.385,6.104,43.396
0.860,0.050,0.518,-5.066,3.845,43.213
0.848,0.014,0.536,-4.822,5.981,43.701
0.835,0.009,0.534,-7.202,12.390,45.105
0.849,0.003,0.538,-11.169,20.203,47.424
0.887,-0.010,0.544,-14.526,27.283,48.401
0.933,-0.014,0.535,-17.334,31.128,46.936
0.972,0.020,0.523,-20.081,30.273,45.349
1.002,0.062,0.512,-22.339,25.024,45.959
1.000,0.077,0.499,-23.132,15.442,48.401
0.973,0.104,0.479,-21.667,4.211,51.880
0.926,0.114,0.474,-18.250,-4.883,55.969
0.852,0.093,0.456,-13.672,-10.681,58.044
0.768,0.071,0.429,-9.644,-11.475,57.434

