aX,aY,aZ,gX,gY,gZ
0.640,1.932,0.718,-33.630,136.047,-7.446
0.969,2.289,0.739,-36.560,144.409,-6.348
1.391,2.709,0.809,-40.527,133.667,-0.366
1.813,2.971,0.825,-40.283,95.398,12.207
2.181,2.990,0.766,-36.560,31.616,27.222
2.338,2.842,0.645,-37.109,-46.265,46.204
2.267,2.706,0.502,-45.349,-127.441,70.557
2.007,2.637,0.342,-55.786,-194.580,93.567
1.507,2.675,0.121,-63.416,-235.840,111.389
0.922,2.755,-0.134,-70.129,-242.798,128.296
0.502,2.814,-0.390,-79.224,-214.600,146.729
0.245,2.939,-0.602,-87.646,-157.898,154.785
0.137,3.088,-0.679,-87.646,-86.548,150.269
0.138,3.084,-0.633,-72.327,-21.790,145.630
0.186,2.922,-0.574,-41.321,17.212,143.860
0.214,2.606,-0.430,-2.258,26.917,138.916
0.130,2.027,-0.316,37.109,2.625,128.906
-0.121,1.295,-0.288,70.923,-48.523,107.056
-0.479,0.598,-0.316,93.506,-107.239,73.669
-0.942,-0.127,-0.300,101.746,-153.076,43.640
-1.365,-0.963,-0.448,95.947,-171.631,19.714
-1.625,-1.881,-0.312,78.918,-136.414,16.479
-1.709,-2.518,-0.039,49.927,-45.715,64.392
-1.290,-3.448,0.279,49.194,76.172,151.001
-0.445,-4.000,0.934,85.632,208.313,199.646
0.807,-4.000,1.386,131.287,299.927,134.583
1.884,-4.000,1.791,176.575,325.378,-0.916
2.777,-4.000,2.184,204.834,278.076,-110.352
3.174,-3.512,2.425,211.792,166.443,-166.626
2.841,-2.509,2.279,211.975,23.804,-181.335
2.114,-1.845,1.835,209.717,-99.487,-158.203
1.356,-1.395,1.439,190.125,-165.222,-115.784
0.796,-1.226,1.130,152.649,-170.715,-72.144
0.422,-1.168,0.910,104.919,-136.719,-35.461
0.203,-0.945,0.887,54.199,-86.304,-8.179
0.135,-0.625,0.954,22.583,-43.762,12.756
0.073,-0.489,0.923,18.860,-24.109,25.818
-0.085,-0.372,0.932,27.954,-23.315,28.564
-0.219,-0.379,0.864,39.795,-36.499,30.579
-0.266,-0.391,0.880,50.049,-53.406,27.100
-0.307,-0.392,0.827,57.800,-69.458,18.494
-0.429,-0.452,0.768,60.486,-75.500,9.521
-0.477,-0.431,0.806,55.969,-61.035,5.371
-0.430,-0.393,0.912,49.805,-31.372,7.507
-0.279,-0.350,1.088,43.213,2.869,15.381
-0.020,-0.495,1.255,36.682,25.024,29.968
0.167,-0.555,1.263,26.917,28.198,37.537
0.180,-0.495,1.305,11.780,23.621,37.842
0.193,-0.441,1.319,0.916,14.343,38.269
0.215,-0.424,1.308,-3.113,3.418,40.771
0.200,-0.454,1.281,-4.272,-4.822,45.471
0.162,-0.508,1.254,-3.662,-9.949,50.354
0.070,-0.628,1.212,-2.747,-9.766,54.626
0.050,-0.607,1.255,-3.601,-3.845,58.777
-0.012,-0.681,1.144,-4.211,2.441,65.796
-0.042,-0.653,1.324,-10.193,21.790,68.237
0.026,-0.659,1.235,-16.418,32.288,68.115
0.100,-0.670,1.183,-25.696,43.518,70.374
0.084,-0.522,1.126,-40.771,57.556,68.909
0.106,-0.474,1.091,-53.528,69.946,69.641
0.193,-0.499,1.076,-62.134,78.491,72.876
0.286,-0.449,1.072,-68.237,77.759,75.928
0.323,-0.324,1.060,-73.059,66.101,78.857
0.300,-0.322,1.014,-74.646,48.035,85.510
0.244,-0.323,0.971,-73.303,29.480,91.003
0.154,-0.260,0.931,-69.641,14.587,91.492
0.069,-0.221,0.894,-63.110,5.249,88.867
0.016,-0.211,0.861,-56.030,2.747,86.548
-0.034,-0.139,0.813,-50.354,5.493,83.191
-0.053,-0.117,0.775,-47.363,12.268,79.529
-0.014,-0.107,0.761,-45.776,21.423,76.538
0.057,0.021,0.775,-46.570,30.518,73.486
0.122,0.099,0.786,-49.377,35.645,74.646
0.173,0.069,0.781,-53.833,34.973,78.857
0.182,0.039,0.769,-59.937,30.396,79.834
0.182,0.034,0.775,-67.017,23.132,77.026
0.158,0.064,0.756,-73.181,13.062,72.754
0.110,0.096,0.738,-76.233,2.380,68.726
0.054,0.087,0.692,-74.829,-5.432,64.941
-0.073,0.147,0.620,-69.946,-6.287,57.800
-0.164,0.326,0.629,-61.951,3.174,49.072
-0.146,0.360,0.655,-50.110,16.785,46.753
-0.102,0.365,0.678,-36.499,27.283,42.786
-0.061,0.360,0.703,-27.161,34.485,36.926
-0.003,0.333,0.750,-21.240,37.903,32.837
0.045,0.303,0.776,-20.081,37.659,28.381
0.025,0.256,0.755,-23.804,34.668,23.926
-0.012,0.269,0.770,-31.616,34.363,17.883
0.029,0.261,0.790,-38.147,35.767,11.902
0.074,0.279,0.786,-42.114,37.048,2.747
0.047,0.367,0.768,-46.387,38.330,-7.324
0.063,0.448,0.737,-50.110,39.551,-13.611
0.086,0.498,0.716,-50.659,41.687,-18.616
0.054,0.596,0.682,-48.279,43.762,-24.353
0.002,0.652,0.641,-45.654,46.875,-26.306
0.012,0.644,0.608,-41.443,52.856,-26.917
0.016,0.645,0.578,-36.377,61.401,-31.006
0.024,0.677,0.580,-32.776,70.679,-38.635
0.060,0.695,0.586,-31.189,78.491,-45.044
0.121,0.680,0.596,-32.288,83.496,-49.011
0.183,0.657,0.623,-34.668,84.778,-53.284
0.219,0.655,0.645,-35.461,82.520,-59.937
0.248,0.687,0.670,-35.645,78.003,-68.054
0.244,0.706,0.652,-35.339,72.083,-74.646
0.235,0.692,0.619,-35.095,68.298,-79.956
0.276,0.692,0.594,-35.645,68.726,-85.632
0.333,0.714,0.571,-35.767,71.655,-91.309
0.397,0.713,0.558,-36.011,74.219,-95.032
0.483,0.723,0.560,-36.438,75.073,-96.680
0.560,0.732,0.577,-35.706,71.716,-96.863
0.628,0.725,0.594,-33.997,63.354,-95.825
0.664,0.717,0.603,-31.189,50.720,-94.604
0.657,0.713,0.605,-27.588,36.865,-93.506
0.620,0.724,0.604,-22.583,25.085,-93.018
0.598,0.734,0.607,-16.846,17.334,-93.079
0.582,0.742,0.599,-11.475,14.587,-93.506
0.569,0.758,0.608,-7.507,15.259,-92.651
0.608,0.769,0.637,-4.822,17.395,-89.600
0.670,0.770,0.663,-2.441,18.005,-85.449

0.981,1.065,0.803,-10.132,30.701,11.658
1.039,1.198,0.840,-12.634,20.081,15.686
1.052,1.288,0.845,-14.526,4.272,22.766
1.026,1.357,0.827,-16.235,-12.878,31.738
0.983,1.441,0.807,-17.395,-29.236,39.978
0.920,1.521,0.771,-17.944,-43.701,46.875
0.849,1.614,0.706,-18.433,-55.908,54.321
0.776,1.748,0.627,-18.677,-64.392,63.110
0.710,1.911,0.531,-17.944,-68.176,74.524
0.666,2.106,0.456,-17.090,-67.139,90.271
0.640,2.288,0.397,-14.648,-63.171,107.300
0.697,2.394,0.327,-9.827,-58.899,122.009
0.746,2.423,0.257,-5.066,-55.786,133.667
0.740,2.448,0.178,-2.380,-55.786,142.212
0.677,2.470,0.118,-1.404,-57.983,149.414
0.545,2.453,0.057,0.671,-61.401,155.273
0.355,2.398,-0.007,5.493,-64.880,155.457
0.152,2.318,-0.045,11.719,-67.017,147.644
-0.039,2.063,-0.103,19.043,-69.397,130.859
-0.230,1.738,-0.160,22.522,-72.205,105.408
-0.391,1.343,-0.190,19.653,-76.233,71.594
-0.530,1.048,-0.208,14.832,-83.374,33.447
-0.673,0.541,-0.212,13.550,-94.116,-0.244
-0.810,0.011,-0.167,13.733,-106.995,-27.710
-0.916,-0.594,-0.080,11.841,-116.089,-47.302
-1.029,-1.184,-0.003,10.986,-119.263,-62.744
-1.206,-1.715,0.046,23.132,-112.732,-78.003
-1.362,-2.188,0.235,65.674,-88.257,-102.905
-1.161,-2.693,0.676,147.156,-38.025,-133.179
-0.688,-3.296,1.126,242.493,24.475,-132.812
-0.117,-3.934,1.324,315.918,77.759,-102.783
0.448,-4.000,1.427,350.769,112.122,-79.468
0.907,-4.000,1.628,338.684,125.732,-88.196
1.248,-3.582,1.781,285.217,117.615,-125.610
1.330,-2.592,1.775,216.309,91.919,-154.846
1.398,-1.806,1.691,151.184,59.631,-154.175
1.325,-1.227,1.604,97.656,28.259,-128.784
1.164,-0.838,1.473,56.824,3.052,-94.299
1.011,-0.599,1.311,29.175,-10.376,-58.960
0.843,-0.471,1.195,11.780,-15.381,-27.161
0.706,-0.420,1.121,0.916,-16.724,2.319
0.552,-0.468,1.051,-6.287,-18.738,27.100
0.363,-0.506,0.994,-12.573,-21.667,42.786
0.188,-0.513,0.952,-18.127,-23.682,49.438
0.053,-0.483,0.903,-21.484,-24.109,48.157
-0.063,-0.417,0.894,-21.240,-20.447,42.603
-0.042,-0.422,0.939,-16.663,-11.047,38.940
0.008,-0.493,0.903,-11.780,-1.892,36.560
0.031,-0.513,0.896,-12.268,8.667,32.776
0.075,-0.489,0.891,-17.761,21.484,31.189
0.080,-0.416,0.898,-24.048,36.011,31.128
0.131,-0.367,0.931,-27.222,52.429,33.936
0.248,-0.354,0.964,-27.649,65.796,38.025
0.385,-0.321,1.053,-28.442,70.618,41.748
0.481,-0.346,1.082,-28.137,62.256,45.227
0.428,-0.339,1.090,-28.931,49.011,44.556
0.487,-0.359,1.161,-30.090,34.485,44.189
0.497,-0.455,1.198,-25.208,6.104,36.377
0.397,-0.338,1.132,-27.222,-14.343,31.677
0.285,-0.262,1.097,-28.381,-27.466,28.870
0.179,-0.220,0.999,-26.184,-26.978,28.687
0.107,-0.211,0.983,-25.513,-9.766,29.297
0.060,-0.184,0.957,-26.855,18.066,31.616
0.106,-0.204,0.957,-27.771,51.270,36.194
0.211,-0.201,0.967,-31.860,83.313,41.687
0.340,-0.201,0.978,-38.513,106.689,47.119
0.424,-0.163,0.981,-45.105,118.591,51.392
0.488,-0.098,0.958,-51.392,120.117,55.481
0.538,-0.053,0.935,-55.298,114.197,59.082
0.540,-0.062,0.918,-56.335,102.356,58.533
0.547,-0.038,0.916,-54.871,86.182,55.237
0.512,-0.040,0.871,-51.025,68.054,53.650
0.464,0.032,0.837,-47.607,52.490,53.589
0.429,0.063,0.785,-44.739,41.443,54.749
0.386,0.058,0.723,-41.443,36.072,52.429
0.357,0.113,0.697,-40.161,37.659,46.936
0.353,0.160,0.675,-38.879,43.213,43.091
0.386,0.156,0.667,-37.292,50.171,42.480
0.433,0.120,0.684,-36.011,54.993,43.457
0.490,0.102,0.698,-35.889,55.237,43.335
0.530,0.132,0.704,-35.339,48.889,40.771
0.539,0.160,0.685,-33.630,37.537,36.682
0.521,0.207,0.657,-31.738,25.757,33.020
0.495,0.244,0.630,-29.114,16.418,30.029
0.467,0.293,0.599,-26.123,10.803,28.076
0.448,0.359,0.578,-22.949,9.094,27.405
0.421,0.387,0.560,-19.287,10.620,27.161
0.384,0.380,0.547,-15.137,15.137,26.123
0.394,0.355,0.563,-11.719,22.339,24.353
0.387,0.381,0.577,-7.690,30.334,21.790
0.344,0.432,0.586,-3.845,37.903,20.996
0.329,0.456,0.597,-0.366,45.288,24.597
0.346,0.467,0.616,2.380,51.941,28.870
0.364,0.484,0.634,3.174,55.847,30.640
0.415,0.452,0.657,3.052,56.213,29.175
0.462,0.441,0.657,2.014,53.894,23.132
0.493,0.434,0.662,-1.526,49.500,15.076
0.568,0.405,0.681,-7.202,43.213,9.094
0.609,0.421,0.694,-13.611,34.241,4.456
0.630,0.424,0.694,-20.569,22.400,1.099
0.619,0.412,0.689,-26.978,9.705,-0.854
0.595,0.398,0.697,-30.579,-0.854,-1.892
0.559,0.393,0.682,-31.006,-7.629,-2.808
0.519,0.412,0.674,-29.236,-10.864,-3.357
0.499,0.436,0.666,-25.513,-9.827,-3.296
0.482,0.505,0.674,-19.775,-4.883,-3.113
0.502,0.517,0.673,-13.672,1.587,-1.221
0.468,0.460,0.625,-8.118,8.667,-0.610
0.490,0.588,0.690,-7.019,19.043,-3.479
0.567,0.448,0.668,-6.104,22.766,-1.038
0.588,0.503,0.715,-8.362,20.996,-3.235
0.612,0.444,0.713,-12.451,14.587,-3.601
0.601,0.436,0.714,-13.794,3.662,-4.761
0.615,0.445,0.737,-14.709,-5.188,-6.592
0.601,0.443,0.721,-13.123,-15.198,-8.972
0.573,0.449,0.722,-10.925,-23.376,-11.047
0.539,0.455,0.707,-7.629,-28.381,-11.658
0.514,0.462,0.693,-4.883,-29.236,-10.742
0.500,0.467,0.689,-2.441,-26.184,-10.071

0.911,1.224,0.810,18.616,7.263,-11.230
0.976,1.451,0.829,16.174,-0.671,-6.531
0.997,1.621,0.791,13.428,-13.062,0.793
0.968,1.818,0.731,6.714,-28.931,9.399
0.883,2.059,0.606,-4.700,-46.204,19.958
0.741,2.309,0.453,-17.822,-60.425,34.119
0.626,2.527,0.292,-28.992,-68.909,51.086
0.605,2.723,0.148,-35.645,-71.045,66.650
0.631,2.888,0.059,-34.790,-69.702,76.843
0.657,2.971,0.021,-22.156,-68.420,83.679
0.696,2.966,0.058,0.549,-68.237,89.844
0.713,2.776,0.152,28.381,-70.618,96.313
0.591,2.415,0.236,51.147,-77.087,106.750
0.390,1.999,0.221,58.594,-85.388,118.835
0.112,1.600,0.209,51.331,-91.858,128.906
-0.219,1.219,0.226,33.081,-96.069,131.897
-0.477,0.875,0.202,10.498,-98.267,120.361
-0.618,0.603,0.214,-13.123,-98.267,100.525
-0.693,0.300,0.216,-35.889,-98.572,76.660
-0.764,-0.116,0.203,-49.377,-100.525,48.645
-0.732,-0.550,0.275,-50.842,-100.769,12.085
-0.579,-0.953,0.432,-36.682,-93.445,-33.386
-0.373,-1.335,0.647,-7.385,-79.163,-80.688
-0.167,-1.711,0.851,27.405,-61.890,-116.455
0.110,-2.053,1.085,58.044,-49.744,-126.526
0.479,-2.303,1.332,83.130,-55.481,-113.831
0.716,-2.336,1.539,112.610,-84.961,-94.788
0.631,-2.233,1.661,154.602,-131.042,-77.515
0.393,-2.167,1.667,207.153,-171.509,-63.599
0.135,-2.159,1.584,254.761,-184.998,-54.260
-0.072,-2.124,1.412,281.494,-164.429,-50.598
-0.199,-2.026,1.290,276.123,-111.877,-56.519
-0.112,-1.880,1.193,240.112,-37.476,-71.594
0.114,-1.643,1.119,181.091,39.856,-92.163
0.349,-1.331,1.079,112.671,105.225,-114.075
0.641,-0.986,1.070,50.537,148.865,-128.235
0.971,-0.617,1.081,6.409,166.016,-130.249
1.226,-0.322,1.101,-15.259,155.640,-120.483
1.335,-0.146,1.048,-19.958,121.582,-100.037
1.264,-0.100,0.947,-14.404,73.792,-70.618
1.060,-0.146,0.823,-5.554,25.574,-36.743
0.818,-0.197,0.732,3.601,-11.536,-4.028
0.616,-0.202,0.725,11.597,-36.133,24.231
0.424,-0.218,0.748,19.287,-51.941,45.837
0.226,-0.328,0.792,25.146,-59.814,59.692
0.031,-0.396,0.822,26.367,-59.631,59.998
-0.092,-0.393,0.928,23.743,-49.133,50.232
-0.070,-0.460,0.959,19.470,-34.302,38.330
-0.005,-0.506,0.977,11.230,-16.357,24.536
0.043,-0.462,1.000,-2.930,2.441,11.414
0.105,-0.393,0.989,-17.883,20.081,1.953
0.170,-0.241,1.022,-29.175,38.086,-4.883
0.274,-0.142,1.072,-33.081,50.476,-5.615
0.434,-0.144,1.053,-29.907,53.955,0.366
0.438,-0.192,0.979,-25.696,54.871,5.615
0.451,-0.102,1.120,-24.719,59.509,8.911
0.460,-0.123,1.033,-19.531,53.711,14.343
0.528,-0.189,1.139,-13.489,47.302,17.456
0.512,-0.192,1.156,-13.733,41.687,17.822
0.464,-0.247,1.122,-11.841,34.302,18.250
0.383,-0.197,1.104,-16.602,31.860,21.484
0.348,-0.186,1.075,-23.132,35.645,28.198
0.308,-0.230,1.031,-27.405,45.349,33.997
0.271,-0.241,1.012,-31.738,60.364,33.325
0.301,-0.194,1.047,-35.034,76.904,28.809
0.389,-0.234,1.042,-36.316,89.294,27.344
0.458,-0.224,1.028,-38.086,95.886,27.466
0.530,-0.197,1.021,-41.992,97.717,30.090
0.607,-0.174,1.015,-45.288,93.628,34.607
0.628,-0.161,1.006,-47.485,83.374,37.842
0.628,-0.171,1.000,-47.363,69.214,40.466
0.597,-0.173,0.974,-45.959,54.688,42.664
0.540,-0.176,0.939,-45.227,43.884,45.044
0.486,-0.208,0.907,-45.288,39.246,48.096
0.440,-0.194,0.849,-46.997,40.894,50.781
0.404,-0.130,0.808,-51.941,48.950,51.941
0.448,-0.104,0.792,-56.458,60.303,52.429
0.554,-0.097,0.789,-59.875,68.909,52.856
0.664,-0.091,0.804,-63.477,67.200,53.162
0.729,-0.101,0.804,-65.979,54.626,53.894
0.721,-0.100,0.781,-66.833,35.400,54.932
0.661,-0.071,0.748,-66.101,15.991,56.274
0.564,-0.000,0.699,-62.378,1.282,57.861
0.479,0.049,0.669,-55.908,-5.066,58.777
0.425,0.125,0.633,-47.729,-3.479,56.335
0.407,0.186,0.617,-39.246,3.662,51.208
0.461,0.177,0.633,-31.860,12.207,47.913
0.518,0.184,0.647,-26.917,17.578,46.936
0.560,0.190,0.663,-25.146,17.212,48.279
0.590,0.148,0.664,-26.123,11.353,52.673
0.607,0.062,0.669,-28.076,2.014,56.824
0.576,0.032,0.657,-30.273,-8.301,56.519
0.499,0.081,0.631,-31.250,-16.296,52.734
0.412,0.172,0.609,-30.579,-19.836,49.316
0.363,0.255,0.595,-25.635,-17.761,46.875
0.343,0.327,0.598,-18.860,-11.597,44.312
0.351,0.339,0.605,-11.536,-4.395,42.053
0.360,0.353,0.603,-6.104,1.709,40.039
0.371,0.360,0.610,-4.028,6.470,39.368
0.386,0.360,0.611,-4.822,8.057,40.466
0.379,0.363,0.602,-8.423,6.897,42.419
0.353,0.361,0.580,-13.977,4.578,43.701
0.329,0.384,0.559,-20.142,3.113,42.847
0.272,0.451,0.535,-24.902,3.601,38.818
0.255,0.498,0.543,-27.588,6.287,33.875
0.297,0.548,0.575,-26.855,8.789,29.785
0.329,0.563,0.581,-22.644,7.751,25.452
0.323,0.528,0.575,-17.883,4.700,21.057
0.277,0.546,0.586,-14.099,2.869,16.296
0.281,0.516,0.616,-10.681,2.197,13.306
0.323,0.504,0.632,-7.690,2.441,10.742
0.353,0.532,0.656,-6.470,2.441,6.531
0.382,0.548,0.660,-8.667,1.221,5.249
0.351,0.559,0.634,-13.611,-0.061,5.859
0.312,0.561,0.593,-21.484,0.366,5.737
0.296,0.550,0.544,-29.663,3.784,3.052
0.303,0.550,0.514,-36.255,11.353,-3.662
0.343,0.590,0.544,-39.246,19.958,-12.329
0.411,0.624,0.590,-36.804,23.987,-18.738

0.524,1.366,0.773,28.381,4.517,-0.793
0.604,1.572,0.840,24.475,0.671,-1.343
0.690,1.602,0.827,21.667,-8.545,2.014
0.750,1.805,0.857,16.479,-22.522,2.869
0.754,1.985,0.868,8.911,-39.490,6.531
0.740,2.173,0.839,5.676,-59.204,11.475
0.706,2.321,0.759,6.104,-75.745,16.296
0.658,2.445,0.686,8.728,-86.304,18.616
0.581,2.469,0.587,13.550,-92.102,18.127
0.526,2.505,0.488,17.273,-95.642,13.428
0.546,2.558,0.410,19.165,-98.633,5.798
0.583,2.561,0.338,21.667,-104.614,-4.272
0.605,2.456,0.277,24.536,-115.784,-14.771
0.595,2.272,0.196,24.475,-131.470,-23.682
0.504,2.049,0.107,19.226,-149.536,-28.625
0.365,1.758,0.036,11.353,-167.236,-30.273
0.174,1.392,-0.022,1.953,-181.458,-31.311
-0.095,0.934,-0.077,-10.132,-190.735,-31.311
-0.348,0.452,-0.110,-25.696,-192.627,-31.982
-0.576,-0.023,-0.078,-42.908,-186.523,-33.203
-0.817,-0.469,0.028,-58.533,-174.683,-36.194
-0.975,-0.926,0.189,-64.331,-156.616,-46.021
-0.930,-1.369,0.455,-55.481,-134.766,-65.002
-0.742,-1.668,0.715,-36.011,-120.178,-87.708
-0.556,-1.849,0.931,-8.850,-121.155,-105.286
-0.508,-1.958,1.061,26.306,-135.742,-110.596
-0.583,-2.086,1.148,67.078,-154.663,-100.891
-0.727,-2.225,1.194,111.755,-168.335,-82.397
-0.885,-2.216,1.176,158.691,-165.344,-63.477
-0.903,-2.084,1.137,204.346,-136.108,-46.204
-0.802,-1.991,1.024,243.164,-80.017,-35.156
-0.650,-1.939,0.954,265.930,1.831,-39.368
-0.362,-1.793,1.050,263.367,101.318,-60.059
0.072,-1.585,1.255,237.427,190.613,-86.975
0.614,-1.338,1.499,195.679,248.962,-100.403
1.222,-1.045,1.771,141.602,262.573,-95.886
1.669,-0.782,1.943,84.961,224.792,-79.224
1.737,-0.643,1.931,32.166,145.630,-54.810
1.513,-0.569,1.694,-13.367,49.500,-23.743
1.158,-0.481,1.372,-51.636,-36.072,11.902
0.748,-0.375,1.094,-78.491,-94.604,45.166
0.362,-0.287,0.908,-89.966,-122.253,69.946
0.072,-0.238,0.809,-86.670,-124.023,85.876
-0.109,-0.232,0.765,-73.669,-108.643,93.933
-0.211,-0.289,0.772,-55.969,-84.290,92.651
-0.223,-0.363,0.809,-39.429,-58.167,81.360
-0.144,-0.343,0.856,-26.489,-36.499,61.829
-0.159,-0.369,0.788,-19.043,-19.958,44.373
-0.178,-0.358,0.778,-19.836,0.732,33.264
-0.132,-0.144,0.975,-22.583,26.306,25.879
0.119,-0.212,1.000,-17.090,42.725,30.518
0.248,-0.297,1.038,-13.062,48.035,34.058
0.268,-0.251,1.076,-16.235,43.823,33.630
0.264,-0.164,1.117,-19.043,33.569,33.630
0.248,-0.140,1.119,-17.944,21.545,36.011
0.260,-0.184,1.099,-14.771,11.230,38.696
0.225,-0.090,1.099,-11.719,2.380,37.170
0.206,-0.054,1.106,-5.981,-6.165,38.818
0.225,-0.116,1.085,2.197,-13.611,42.786
0.192,-0.110,1.064,8.362,-18.250,44.861
0.139,-0.073,1.053,11.719,-17.700,47.058
0.109,-0.110,1.042,13.672,-11.230,50.598
0.086,-0.091,1.028,13.428,0.244,53.711
0.096,-0.073,1.045,10.620,14.648,57.922
0.178,-0.129,1.077,6.958,28.137,63.171
0.246,-0.222,1.092,2.625,35.828,64.514
0.268,-0.249,1.099,-3.113,37.903,60.852
0.272,-0.201,1.080,-9.949,35.522,55.237
0.273,-0.161,1.026,-15.015,31.799,50.720
0.261,-0.109,0.992,-18.799,30.518,46.326
0.254,-0.069,0.962,-21.179,30.334,44.556
0.263,-0.035,0.945,-21.790,30.762,45.349
0.263,0.006,0.939,-21.912,31.372,46.997
0.258,-0.007,0.925,-22.827,31.616,50.171
0.282,-0.043,0.908,-24.963,31.372,52.673
0.298,-0.007,0.887,-28.137,30.457,50.964
0.331,0.032,0.876,-31.555,28.870,47.424
0.385,0.036,0.869,-32.898,24.658,44.678
0.422,0.052,0.855,-33.203,17.395,43.457
0.411,0.076,0.841,-32.959,7.324,44.800
0.379,0.114,0.827,-31.372,-3.235,49.194
0.303,0.126,0.803,-27.283,-11.047,54.077
0.240,0.126,0.794,-22.339,-14.038,57.434
0.193,0.176,0.789,-16.602,-12.268,57.678
0.150,0.216,0.793,-10.620,-7.751,55.542
0.147,0.189,0.809,-5.249,-2.319,53.894
0.181,0.124,0.836,-1.709,0.916,52.368
0.207,0.075,0.869,-0.488,0.610,49.744
0.227,0.034,0.885,-0.854,-3.235,47.180
0.236,-0.016,0.900,-3.174,-9.888,45.471
0.219,-0.052,0.897,-6.653,-17.883,44.739
0.167,-0.029,0.877,-11.047,-24.841,43.640
0.119,0.080,0.856,-15.015,-27.405,41.626
0.064,0.165,0.823,-17.334,-24.780,39.978
0.028,0.207,0.791,-18.127,-18.372,40.039
-0.007,0.237,0.776,-18.555,-9.399,40.283
-0.012,0.225,0.785,-17.822,0.366,39.734
0.023,0.192,0.801,-16.113,9.033,37.781
0.047,0.165,0.817,-14.648,14.099,33.997
0.071,0.164,0.833,-13.428,15.869,29.297
0.088,0.189,0.832,-12.695,14.893,24.658
0.102,0.203,0.836,-12.756,12.207,20.935
0.117,0.230,0.834,-13.611,10.315,18.372
0.080,0.277,0.805,-15.686,9.888,17.578
0.032,0.309,0.761,-20.508,11.963,19.470
-0.005,0.321,0.731,-26.978,18.311,21.851
0.021,0.294,0.739,-32.104,28.015,21.423
0.069,0.315,0.762,-35.339,37.598,16.602
0.137,0.361,0.792,-38.025,42.969,10.376
0.181,0.412,0.797,-41.443,42.297,7.019
0.209,0.405,0.801,-45.105,36.987,7.751
0.280,0.355,0.801,-47.729,29.236,9.399
0.266,0.386,0.773,-48.889,20.569,6.714
0.255,0.411,0.774,-49.988,13.794,2.991
0.277,0.445,0.773,-48.401,8.850,0.610
0.248,0.478,0.755,-44.922,5.371,-3.540
0.224,0.475,0.731,-41.626,4.517,-7.507
0.198,0.467,0.727,-39.307,7.385,-10.803
0.152,0.490,0.730,-36.316,12.329,-15.564

0.465,1.829,0.411,10.864,-49.500,18.494
0.513,2.130,0.408,11.658,-35.400,13.550
0.577,2.342,0.358,17.395,-27.527,7.629
0.639,2.565,0.360,26.794,-26.245,-1.770
0.729,2.645,0.326,39.917,-33.264,-10.620
0.857,2.633,0.247,54.504,-49.194,-23.010
0.969,2.642,0.207,62.866,-72.876,-36.072
1.056,2.628,0.176,66.956,-105.835,-44.006
1.094,2.599,0.159,69.214,-144.897,-45.227
1.016,2.460,0.133,68.848,-185.913,-36.987
0.796,2.149,0.063,62.500,-224.243,-16.296
0.389,1.719,-0.046,47.546,-251.343,8.911
-0.106,1.214,-0.167,26.428,-259.155,28.564
-0.585,0.685,-0.251,2.014,-245.117,38.940
-1.045,0.090,-0.222,-22.217,-212.830,42.664
-1.321,-0.502,-0.084,-46.387,-170.837,38.391
-1.337,-1.018,0.104,-61.890,-131.042,19.714
-1.148,-1.416,0.467,-59.875,-104.431,-8.362
-0.892,-1.666,0.827,-41.931,-100.830,-34.973
-0.759,-1.819,1.029,-14.465,-121.704,-45.959
-0.790,-1.972,1.123,20.691,-152.466,-42.480
-0.982,-2.208,1.198,64.697,-175.049,-34.790
-1.270,-2.406,1.281,115.356,-176.575,-31.189
-1.493,-2.489,1.363,169.861,-150.696,-34.302
-1.538,-2.355,1.450,222.168,-97.534,-41.809
-1.435,-2.150,1.422,266.541,-23.254,-49.316
-1.108,-2.104,1.294,296.753,66.711,-58.350
-0.584,-2.110,1.121,296.631,166.626,-74.951
0.062,-2.003,1.106,260.071,263.489,-100.586
0.670,-1.682,1.243,196.350,333.313,-125.122
1.227,-1.214,1.432,122.986,357.239,-133.301
1.632,-0.764,1.614,57.495,332.458,-121.460
1.780,-0.507,1.687,9.705,269.287,-96.924
1.688,-0.383,1.589,-22.095,184.998,-65.430
1.435,-0.322,1.417,-44.189,97.595,-27.039
1.092,-0.308,1.194,-58.289,20.447,14.587
0.763,-0.316,1.016,-66.284,-38.330,53.040
0.445,-0.333,0.892,-66.467,-79.285,81.421
0.174,-0.340,0.807,-59.448,-103.760,97.046
-0.042,-0.342,0.770,-47.485,-113.525,100.281
-0.182,-0.385,0.778,-33.325,-110.718,93.811
-0.218,-0.373,0.787,-20.020,-100.830,79.285
-0.396,-0.453,0.652,-12.634,-84.900,64.941
-0.419,-0.405,0.752,-13.733,-52.856,52.124
-0.331,-0.333,0.804,-13.672,-22.339,39.612
-0.186,-0.403,0.764,-10.254,1.892,31.982
-0.095,-0.358,0.821,-13.916,23.804,24.170
-0.020,-0.262,0.848,-17.151,38.086,18.799
0.038,-0.217,0.899,-16.785,48.767,14.343
0.110,-0.088,0.991,-12.512,56.335,9.216
0.226,-0.062,1.072,-4.456,56.641,11.108
0.331,-0.099,1.126,5.859,46.997,16.357
0.357,-0.157,1.145,13.977,30.579,21.667
0.321,-0.158,1.181,18.250,10.742,24.902
0.261,-0.171,1.185,21.545,-8.606,26.550
0.208,-0.217,1.185,24.841,-22.522,27.405
0.141,-0.251,1.179,24.536,-29.053,28.381
0.079,-0.314,1.177,19.165,-27.954,32.776
0.020,-0.380,1.171,7.996,-18.799,39.978
-0.040,-0.382,1.155,-7.385,-3.784,45.898
-0.070,-0.342,1.137,-24.170,16.174,47.852
-0.047,-0.339,1.116,-38.147,38.879,45.593
-0.001,-0.278,1.120,-47.424,60.486,38.452
0.096,-0.188,1.127,-52.246,75.806,31.311
0.230,-0.174,1.094,-52.551,81.421,28.503
0.315,-0.172,1.052,-50.537,78.430,27.649
0.348,-0.153,1.024,-46.936,69.458,27.344
0.365,-0.128,1.007,-40.100,56.580,26.917
0.360,-0.101,0.981,-30.212,42.114,27.466
0.330,-0.102,0.954,-19.043,29.236,29.053
0.283,-0.123,0.927,-8.850,20.813,31.921
0.238,-0.169,0.900,-1.709,17.822,36.926
0.197,-0.199,0.864,0.671,20.325,42.725
0.186,-0.209,0.833,-1.160,29.053,49.133
0.207,-0.190,0.825,-8.240,41.626,57.617
0.300,-0.160,0.847,-20.020,52.795,69.519
0.378,-0.127,0.868,-33.081,56.946,81.909
0.405,-0.061,0.848,-45.532,52.185,91.003
0.397,0.015,0.815,-54.871,40.894,95.520
0.369,0.036,0.772,-55.908,26.428,96.436
0.316,0.034,0.744,-48.584,12.634,93.933
0.239,0.072,0.721,-35.461,2.136,87.585
0.183,0.068,0.707,-16.296,-3.418,80.566
0.135,0.034,0.713,4.028,-4.028,72.388
0.162,0.009,0.745,21.362,-1.404,61.340
0.191,0.020,0.777,33.569,0.854,49.133
0.246,0.022,0.805,37.964,0.610,39.063
0.308,0.034,0.828,34.363,-3.662,33.569
0.303,0.032,0.841,23.315,-12.329,31.616
0.275,0.016,0.837,8.057,-21.484,29.968
0.204,0.011,0.819,-7.202,-27.039,26.184
0.137,0.025,0.813,-20.691,-27.039,21.057
0.094,0.058,0.804,-30.151,-21.057,15.991
0.083,0.059,0.806,-36.011,-10.620,12.024
0.106,0.074,0.802,-38.147,1.465,10.071
0.111,0.153,0.792,-39.551,13.672,9.033
0.150,0.208,0.792,-39.490,25.024,9.277
0.190,0.250,0.787,-37.598,33.203,8.545
0.234,0.274,0.790,-36.560,37.598,6.592
0.289,0.285,0.803,-36.743,37.781,5.127
0.347,0.279,0.820,-37.048,33.508,4.150
0.391,0.257,0.840,-38.635,24.902,3.540
0.378,0.274,0.828,-41.321,13.367,2.991
0.333,0.281,0.808,-45.349,3.479,2.747
0.250,0.315,0.770,-50.415,-1.465,2.502
0.198,0.360,0.736,-55.542,-0.427,1.770
0.143,0.427,0.677,-61.096,6.165,0.916
0.143,0.498,0.624,-65.063,16.968,-2.075
0.211,0.570,0.616,-65.674,29.785,-7.019
0.335,0.616,0.645,-63.232,38.391,-11.108
0.437,0.666,0.659,-59.814,38.574,-11.963
0.514,0.684,0.685,-55.786,30.334,-9.216
0.526,0.690,0.705,-51.514,16.357,-3.235
0.482,0.704,0.703,-45.593,-0.183,2.014
0.389,0.718,0.707,-39.124,-13.611,6.775
0.295,0.719,0.699,-31.860,-22.949,9.033
0.206,0.717,0.694,-24.292,-26.367,5.920
0.161,0.722,0.705,-15.747,-24.658,-1.160
0.137,0.729,0.716,-6.775,-20.447,-8.911

0.402,1.426,0.972,46.509,-26.978,-10.498
0.480,1.564,0.999,53.650,-37.292,-10.864
0.522,1.750,1.016,57.922,-50.171,-11.780
0.509,1.917,1.014,61.218,-66.040,-10.986
0.429,2.024,0.984,64.270,-82.092,-8.545
0.352,2.098,0.919,67.017,-94.543,-4.700
0.279,2.106,0.838,69.214,-101.074,-3.235
0.224,2.099,0.744,69.763,-102.478,-5.188
0.209,2.156,0.682,68.237,-100.464,-10.193
0.218,2.183,0.627,65.918,-98.877,-15.930
0.276,2.146,0.563,63.293,-101.074,-21.667
0.328,2.083,0.503,59.875,-107.666,-29.419
0.362,1.936,0.436,56.274,-118.896,-38.147
0.347,1.679,0.343,50.964,-134.644,-46.021
0.279,1.345,0.238,42.664,-152.832,-50.659
0.188,0.992,0.122,29.785,-170.837,-49.927
-0.010,0.583,-0.014,13.306,-186.951,-43.213
-0.231,0.137,-0.140,-3.418,-195.557,-29.358
-0.448,-0.328,-0.239,-18.433,-194.641,-10.559
-0.653,-0.789,-0.282,-31.555,-184.448,12.207
-0.803,-1.266,-0.235,-37.598,-166.931,38.269
-0.889,-1.723,-0.071,-31.311,-145.447,59.143
-0.877,-2.124,0.165,-8.789,-123.047,67.505
-0.759,-2.367,0.474,31.250,-107.483,60.486
-0.589,-2.409,0.772,86.914,-104.614,39.063
-0.477,-2.389,0.988,154.480,-115.662,12.573
-0.475,-2.393,1.166,220.337,-132.568,-7.202
-0.598,-2.285,1.320,265.747,-144.714,-8.911
-0.729,-2.114,1.452,282.349,-143.311,2.258
-0.802,-1.923,1.439,268.677,-120.178,11.597
-0.773,-1.693,1.347,227.661,-70.862,11.414
-0.567,-1.437,1.267,169.250,-3.418,-1.099
-0.303,-1.213,1.228,106.018,66.772,-20.447
-0.102,-0.974,1.191,44.739,123.657,-36.621
0.131,-0.733,1.190,-1.648,157.715,-40.527
0.310,-0.500,1.192,-27.344,166.748,-34.424
0.399,-0.349,1.168,-33.752,154.785,-24.902
0.436,-0.322,1.125,-26.978,131.042,-16.724
0.414,-0.366,1.048,-15.503,103.821,-11.414
0.350,-0.421,1.006,-7.629,78.735,-7.141
0.283,-0.453,1.001,-4.883,57.434,-1.160
0.224,-0.459,0.989,-3.967,39.307,6.592
0.125,-0.470,0.994,-2.930,24.231,12.695
0.027,-0.481,1.000,-0.671,13.000,15.686
-0.074,-0.495,0.993,0.610,5.859,15.442
-0.163,-0.514,0.978,0.000,3.723,13.367
-0.211,-0.516,0.982,-2.563,6.836,10.071
-0.234,-0.561,0.939,-5.371,13.855,3.967
-0.310,-0.482,0.886,-9.949,26.855,-7.751
-0.305,-0.431,0.923,-13.489,46.143,-14.648
-0.227,-0.427,0.911,-12.939,65.308,-17.212
-0.174,-0.403,0.908,-13.550,83.679,-15.747
-0.103,-0.336,0.937,-17.273,99.121,-8.240
-0.022,-0.271,1.007,-20.630,108.826,0.916
0.064,-0.218,1.085,-21.118,110.352,7.690
0.131,-0.186,1.161,-17.334,101.318,10.559
0.154,-0.209,1.232,-10.071,84.717,9.949
0.159,-0.265,1.276,-1.770,64.697,7.263
0.165,-0.334,1.268,5.127,44.983,3.967
0.137,-0.411,1.255,9.827,29.663,-0.977
0.100,-0.463,1.231,11.230,21.179,-3.601
0.062,-0.484,1.180,9.277,19.897,-2.136
0.041,-0.478,1.126,4.089,28.320,1.404
0.036,-0.454,1.087,-3.296,44.373,6.287
0.057,-0.457,1.071,-12.146,63.477,14.709
0.116,-0.481,1.077,-22.339,81.116,24.902
0.198,-0.469,1.108,-32.349,92.834,32.654
0.272,-0.454,1.127,-39.673,95.886,37.354
0.324,-0.459,1.129,-44.189,90.149,39.795
0.346,-0.474,1.113,-47.668,77.576,41.321
0.333,-0.459,1.073,-50.598,61.707,42.664
0.309,-0.398,1.025,-53.650,46.265,43.335
0.264,-0.373,0.978,-54.932,33.203,43.579
0.218,-0.361,0.956,-53.040,23.987,42.419
0.183,-0.316,0.934,-48.645,19.714,41.016
0.163,-0.277,0.918,-43.335,18.616,41.443
0.148,-0.297,0.897,-38.391,20.813,44.128
0.167,-0.316,0.888,-36.377,25.757,47.424
0.190,-0.272,0.876,-38.025,31.189,49.072
0.233,-0.227,0.870,-41.931,35.522,50.354
0.272,-0.202,0.866,-47.119,36.194,51.941
0.272,-0.165,0.849,-52.307,32.349,53.589
0.258,-0.143,0.818,-57.007,25.391,54.565
0.227,-0.133,0.780,-59.692,17.395,54.138
0.152,-0.096,0.737,-60.364,9.644,51.758
0.101,-0.079,0.719,-59.570,4.395,49.683
0.082,-0.063,0.719,-57.068,1.587,48.340
0.071,-0.037,0.706,-54.688,1.526,47.241
0.076,-0.026,0.693,-54.504,3.052,46.082
0.112,-0.048,0.687,-57.129,5.066,45.349
0.144,-0.041,0.673,-62.256,5.981,43.213
0.203,-0.035,0.661,-70.313,5.493,40.649
0.238,-0.034,0.643,-80.017,3.662,39.673
0.224,0.000,0.647,-89.905,1.221,40.649
0.207,0.043,0.647,-94.910,-1.038,41.199
0.163,0.107,0.642,-93.323,-2.441,38.696
0.114,0.184,0.639,-85.449,-2.319,34.058
0.059,0.245,0.626,-72.998,0.122,29.663
0.048,0.259,0.639,-58.594,5.981,26.672
0.031,0.271,0.641,-45.349,13.916,24.780
0.023,0.302,0.675,-35.706,22.583,22.339
0.081,0.300,0.724,-27.588,30.579,19.043
0.125,0.306,0.749,-21.851,34.790,13.367
0.182,0.318,0.785,-20.447,33.569,5.920
0.270,0.309,0.824,-20.447,27.161,-1.404
0.304,0.327,0.838,-20.935,15.686,-8.484
0.325,0.351,0.834,-23.376,2.075,-14.526
0.333,0.348,0.818,-27.039,-9.888,-17.090
0.320,0.350,0.804,-30.945,-18.372,-18.494
0.280,0.397,0.774,-34.729,-20.996,-19.653
0.223,0.458,0.747,-37.781,-17.029,-18.982
0.198,0.499,0.733,-38.757,-8.362,-17.029
0.213,0.550,0.754,-35.767,3.174,-15.991
0.242,0.602,0.776,-29.480,13.062,-16.907
0.306,0.615,0.808,-22.339,18.127,-18.799
0.360,0.598,0.819,-15.320,15.991,-21.912
0.388,0.566,0.823,-11.169,7.263,-25.513
0.413,0.534,0.810,-10.620,-5.737,-28.320
0.424,0.506,0.798,-12.634,-20.691,-30.701

0.715,1.226,1.047,26.794,58.655,-8.545
0.827,1.364,1.063,23.071,50.842,0.977
0.912,1.557,1.064,16.357,39.063,11.414
0.962,1.737,1.047,8.240,25.330,23.926
0.941,1.903,1.003,0.977,11.536,38.208
0.868,2.080,0.952,-5.371,0.488,52.551
0.757,2.242,0.879,-10.620,-5.798,66.406
0.638,2.405,0.776,-12.817,-8.118,77.271
0.549,2.566,0.672,-11.597,-6.836,83.252
0.512,2.665,0.567,-5.676,-3.296,85.083
0.524,2.736,0.487,5.249,-0.366,83.740
0.564,2.789,0.448,20.142,-2.258,80.322
0.604,2.722,0.425,38.879,-13.428,76.294
0.615,2.471,0.408,56.274,-38.635,73.120
0.511,2.151,0.382,63.171,-77.820,73.608
0.278,1.709,0.288,57.068,-125.610,79.041
-0.027,1.223,0.141,43.335,-171.387,81.970
-0.380,0.766,0.001,27.161,-205.811,78.918
-0.786,0.317,-0.115,12.390,-221.191,73.303
-1.065,-0.201,-0.143,1.953,-213.989,62.500
-1.149,-0.762,-0.077,-3.784,-188.843,41.687
-1.106,-1.244,0.056,-5.371,-155.334,14.954
-0.913,-1.675,0.291,0.610,-118.958,-10.681
-0.670,-2.088,0.546,16.235,-88.806,-31.555
-0.585,-2.471,0.815,41.992,-71.655,-45.959
-0.458,-2.829,1.160,75.684,-67.627,-50.598
-0.415,-2.947,1.486,120.789,-77.637,-52.002
-0.447,-2.726,1.725,180.481,-91.492,-62.500
-0.553,-2.369,1.823,249.878,-93.506,-79.224
-0.610,-2.303,1.677,308.167,-69.824,-98.022
-0.447,-2.416,1.385,329.529,-14.221,-121.277
-0.071,-2.263,1.113,297.668,72.571,-153.259
0.443,-1.856,1.077,229.004,170.654,-185.059
1.114,-1.422,1.082,147.339,247.803,-197.327
1.710,-0.989,1.006,67.200,284.119,-189.209
1.959,-0.695,0.974,-0.610,281.372,-162.659
1.913,-0.477,0.886,-52.917,248.108,-117.859
1.655,-0.331,0.732,-87.097,201.172,-65.613
1.301,-0.277,0.594,-103.455,153.687,-11.169
0.971,-0.279,0.493,-107.605,109.192,40.344
0.702,-0.340,0.406,-103.333,66.467,83.862
0.449,-0.294,0.391,-94.543,26.306,114.197
0.189,-0.079,0.546,-78.308,-11.719,136.719
-0.052,0.029,0.732,-45.410,-52.551,153.992
-0.231,-0.182,0.732,-3.784,-96.802,159.302
-0.477,-0.343,0.668,23.926,-132.385,143.433
-0.727,-0.367,0.684,34.790,-147.461,113.220
-0.832,-0.426,0.761,40.100,-140.442,77.148
-0.927,-0.344,0.820,40.405,-112.183,39.978
-0.828,-0.315,0.908,33.936,-65.674,17.883
-0.658,-0.305,0.947,23.071,-13.428,3.906
-0.456,-0.240,1.031,8.301,40.527,-3.784
-0.202,-0.151,1.124,-5.554,86.182,-7.996
0.074,-0.091,1.221,-13.367,116.699,-10.986
0.370,-0.082,1.328,-15.015,129.211,-12.695
0.560,-0.165,1.130,-12.329,121.948,-12.390
0.687,-0.001,1.605,-11.597,100.586,-8.423
0.791,-0.295,1.347,-5.493,48.401,4.883
0.633,-0.201,1.382,-3.479,12.634,6.470
0.477,-0.242,1.306,-0.366,-15.625,15.198
0.360,-0.415,1.188,6.409,-31.311,24.109
0.197,-0.446,1.131,6.470,-27.283,28.381
0.081,-0.382,1.091,-0.122,-9.460,35.400
0.050,-0.420,1.072,-8.972,16.724,48.767
0.090,-0.422,1.063,-19.287,45.898,59.753
0.172,-0.404,1.079,-31.738,71.045,65.125
0.282,-0.388,1.120,-43.030,85.144,67.749
0.375,-0.357,1.177,-53.040,83.984,68.481
0.449,-0.368,1.161,-58.350,66.711,67.627
0.441,-0.365,1.115,-60.547,39.612,65.125
0.375,-0.339,1.037,-60.242,12.268,61.646
0.271,-0.305,0.945,-55.847,-7.935,57.678
0.157,-0.224,0.867,-49.011,-17.212,53.833
0.087,-0.178,0.842,-40.161,-15.259,51.819
0.088,-0.187,0.840,-30.029,-5.676,52.795
0.113,-0.123,0.831,-22.156,6.775,54.199
0.159,-0.074,0.834,-17.944,19.470,55.054
0.180,-0.077,0.812,-16.174,27.832,55.725
0.208,-0.111,0.816,-17.456,30.945,56.213
0.242,-0.095,0.804,-21.362,28.992,55.115
0.255,-0.046,0.785,-26.123,22.156,52.002
0.254,-0.011,0.765,-31.128,12.573,49.255
0.230,-0.021,0.727,-34.302,3.235,46.570
0.201,-0.026,0.706,-35.217,-4.150,43.030
0.199,-0.011,0.694,-34.058,-9.338,37.659
0.181,0.025,0.670,-30.396,-12.695,31.616
0.171,0.042,0.663,-25.879,-14.465,28.076
0.193,0.018,0.681,-21.545,-14.709,28.625
0.215,0.015,0.704,-19.775,-15.198,32.837
0.197,0.050,0.695,-22.217,-16.235,39.063
0.143,0.026,0.677,-28.015,-16.907,46.814
0.120,-0.004,0.673,-37.659,-14.771,53.406
0.072,0.012,0.656,-50.964,-10.132,57.068
-0.007,0.026,0.610,-67.810,-3.662,58.594
-0.070,0.020,0.556,-87.341,6.348,55.481
-0.086,0.018,0.508,-107.910,20.081,46.326
-0.016,0.026,0.490,-125.916,33.997,30.640
0.070,0.088,0.447,-139.282,44.312,9.888
0.150,0.166,0.402,-149.048,48.645,-9.888
0.216,0.263,0.339,-155.762,47.058,-23.315
0.272,0.325,0.291,-156.616,41.809,-30.823
0.297,0.386,0.250,-151.550,35.767,-35.645
0.349,0.449,0.234,-140.747,30.151,-40.649
0.381,0.531,0.240,-123.535,26.123,-44.983
0.344,0.634,0.262,-101.379,23.560,-46.814
0.312,0.726,0.297,-77.087,24.170,-42.786
0.263,0.776,0.311,-52.063,27.344,-35.583
0.227,0.778,0.336,-27.710,32.898,-31.494
0.229,0.761,0.376,-7.141,39.673,-32.837
0.263,0.780,0.436,8.118,43.518,-40.833
0.323,0.824,0.507,20.447,42.236,-54.626
0.422,0.875,0.600,33.020,35.156,-70.862
0.477,0.903,0.673,47.546,22.461,-85.205
0.536,0.919,0.754,61.890,7.019,-92.468
0.583,0.885,0.827,72.815,-7.141,-90.698
0.613,0.858,0.915,78.186,-18.555,-81.360
0.634,0.843,1.010,78.369,-26.550,-67.688
0.606,0.828,1.076,75.256,-31.189,-53.101
0.555,0.826,1.126,69.153,-31.799,-41.687

0.818,0.857,0.947,10.376,-10.071,-33.264
0.797,0.809,0.960,22.095,-29.297,-25.879
0.742,0.720,0.963,32.532,-48.889,-16.479
0.643,0.605,0.949,37.537,-65.308,-5.920
0.519,0.505,0.925,35.278,-76.172,5.249
0.403,0.452,0.900,26.611,-79.346,16.296
0.301,0.429,0.877,15.869,-75.195,23.499
0.227,0.429,0.849,6.653,-66.101,25.085
0.185,0.442,0.829,0.610,-53.772,22.278
0.181,0.457,0.822,-2.258,-40.894,17.395
0.197,0.471,0.814,-2.014,-29.175,12.756
0.225,0.484,0.812,0.732,-19.958,9.338
0.243,0.488,0.807,4.883,-13.428,6.714
0.249,0.488,0.811,10.071,-9.094,5.127
0.255,0.468,0.817,15.442,-6.287,5.066
0.276,0.445,0.841,19.714,-4.211,6.287
0.289,0.412,0.852,21.912,-4.456,8.118
0.286,0.385,0.855,21.729,-5.981,10.376
0.293,0.381,0.875,19.287,-7.690,12.390
0.286,0.375,0.879,16.846,-9.888,12.207
0.282,0.396,0.888,14.404,-11.780,10.559
0.285,0.425,0.905,13.550,-13.184,8.179
0.270,0.448,0.911,15.198,-13.977,5.554
0.260,0.463,0.923,18.066,-12.939,3.479
0.257,0.469,0.946,21.240,-9.827,1.953
0.267,0.470,0.974,23.132,-5.249,1.465
0.287,0.482,1.000,22.461,0.122,2.380
0.297,0.527,1.010,18.921,5.615,3.540
0.308,0.605,1.016,13.855,11.597,4.639
0.317,0.732,1.013,7.874,17.212,5.371
0.334,0.893,0.998,3.235,22.766,4.700
0.345,1.082,0.969,1.404,29.480,1.709
0.393,1.231,0.962,0.854,37.903,-0.061
0.452,1.336,0.969,2.380,43.213,2.197
0.521,1.427,0.992,4.456,41.382,6.592
0.572,1.536,0.977,6.897,31.006,10.498
0.618,1.694,0.935,9.338,14.954,11.230
0.620,1.923,0.902,14.709,-3.052,8.850
0.644,2.109,0.875,25.024,-22.156,5.310
0.666,2.168,0.827,40.771,-43.152,0.916
0.681,2.139,0.784,57.556,-63.904,-2.625
0.677,2.041,0.728,66.467,-80.505,-0.977
0.641,1.960,0.640,62.073,-92.285,11.597
0.599,1.881,0.560,46.387,-98.083,27.283
0.497,1.808,0.466,24.902,-98.145,36.011
0.373,1.795,0.380,1.160,-93.262,37.476
0.247,1.708,0.281,-20.691,-83.618,33.386
0.123,1.515,0.146,-41.260,-68.848,26.733
0.023,1.275,0.023,-65.491,-51.514,19.348
-0.056,1.020,-0.080,-90.942,-38.696,11.780
-0.119,0.737,-0.210,-111.328,-35.400,5.432
-0.218,0.435,-0.292,-122.925,-42.236,0.183
-0.322,0.107,-0.318,-123.291,-57.068,-3.601
-0.419,-0.228,-0.195,-108.704,-74.097,-9.460
-0.505,-0.623,0.015,-74.097,-85.266,-20.508
-0.513,-1.122,0.282,-23.743,-91.492,-34.180
-0.354,-1.583,0.602,29.663,-96.497,-46.753
-0.127,-1.857,0.956,85.266,-100.464,-55.603
-0.057,-2.116,1.204,139.404,-99.854,-57.678
-0.042,-2.372,1.370,178.040,-95.703,-47.119
0.038,-2.562,1.461,197.815,-91.309,-26.672
0.053,-2.542,1.496,206.421,-88.196,-11.719
-0.031,-2.313,1.526,206.421,-80.933,-5.249
-0.111,-2.043,1.585,202.209,-63.477,-3.235
-0.141,-1.810,1.597,194.214,-38.147,-4.822
-0.147,-1.605,1.563,177.246,-8.606,-12.390
-0.065,-1.398,1.514,148.682,24.719,-20.203
0.109,-1.209,1.506,110.474,57.495,-22.400
0.313,-1.034,1.502,66.895,79.468,-20.935
0.479,-0.855,1.492,23.682,86.182,-17.090
0.560,-0.679,1.465,-13.977,77.271,-9.216
0.572,-0.544,1.427,-42.419,56.274,3.784
0.510,-0.470,1.365,-60.974,29.907,22.034
0.395,-0.478,1.268,-71.533,3.784,42.786
0.237,-0.510,1.157,-78.247,-17.029,61.035
0.090,-0.522,1.061,-83.740,-29.541,71.838
-0.045,-0.505,0.967,-86.548,-33.081,73.853
-0.145,-0.447,0.890,-87.585,-27.893,69.153
-0.172,-0.352,0.851,-85.266,-15.503,60.913
-0.172,-0.277,0.827,-78.735,0.244,51.147
-0.154,-0.236,0.831,-68.298,16.541,43.396
-0.098,-0.241,0.870,-55.298,30.701,38.757
-0.037,-0.291,0.910,-40.405,40.405,35.095
-0.017,-0.297,0.926,-27.771,45.471,31.311
-0.009,-0.272,0.928,-20.569,48.889,28.931
-0.007,-0.259,0.924,-18.738,52.795,30.396
-0.010,-0.238,0.916,-20.203,57.495,33.813
-0.036,-0.167,0.903,-24.109,62.988,36.682
-0.048,-0.095,0.913,-29.297,69.763,38.818
-0.021,-0.052,0.937,-30.823,76.538,38.330
-0.004,0.003,0.930,-28.687,81.421,33.264
0.022,0.082,0.914,-26.428,84.778,25.696
0.089,0.147,0.930,-23.315,86.182,18.127
0.153,0.163,0.939,-17.395,85.938,11.230
0.186,0.176,0.940,-11.414,84.656,6.714
0.232,0.185,0.967,-7.080,83.679,5.981
0.268,0.135,0.983,-2.991,82.092,7.690
0.289,0.066,0.992,-0.977,80.505,10.559
0.312,0.044,0.993,-3.479,78.369,13.977
0.339,0.075,0.984,-10.071,75.867,17.395
0.370,0.067,0.978,-18.127,71.899,21.057
0.383,0.058,0.964,-26.367,64.514,22.705
0.372,0.115,0.943,-33.691,54.199,20.020
0.323,0.226,0.898,-37.903,43.518,15.076
0.266,0.316,0.855,-38.330,35.034,10.498
0.243,0.355,0.860,-33.936,30.212,7.568
0.211,0.368,0.855,-24.719,28.442,5.005
0.172,0.413,0.844,-14.648,28.870,1.709
0.196,0.416,0.864,-5.554,32.166,-0.305
0.200,0.374,0.857,2.502,34.790,-1.404
0.240,0.323,0.890,6.531,36.499,-1.770
0.298,0.288,0.916,7.568,36.438,-1.770
0.326,0.294,0.907,6.409,34.180,-1.526
0.337,0.320,0.889,0.977,30.762,0.549
0.353,0.311,0.868,-6.531,27.710,2.930
0.350,0.329,0.836,-15.320,24.780,2.014
0.343,0.409,0.821,-24.414,23.193,-2.991
0.372,0.468,0.824,-30.457,21.057,-8.667
0.401,0.490,0.829,-32.593,17.029,-13.977

0.589,1.533,0.950,24.841,18.860,10.681
0.591,1.791,0.944,28.564,3.662,19.165
0.561,2.090,0.927,34.058,-14.404,26.123
0.521,2.363,0.878,44.067,-34.546,27.771
0.505,2.524,0.785,56.824,-53.467,24.536
0.450,2.538,0.599,63.660,-67.566,21.484
0.414,2.528,0.398,62.012,-72.205,21.606
0.423,2.566,0.238,51.392,-65.979,24.719
0.429,2.565,0.068,33.447,-54.138,34.058
0.394,2.619,-0.045,11.475,-39.307,46.753
0.428,2.704,-0.104,-7.507,-26.123,61.340
0.410,2.573,-0.172,-14.526,-23.987,75.989
0.289,2.289,-0.216,-12.085,-36.255,78.674
0.146,1.944,-0.224,-1.099,-58.899,74.036
-0.065,1.509,-0.193,12.451,-89.050,65.308
-0.364,0.985,-0.124,25.208,-120.300,55.786
-0.622,0.269,-0.008,32.654,-142.334,45.227
-0.759,-0.514,0.104,27.039,-150.696,28.015
-0.811,-1.221,0.262,3.235,-146.973,8.667
-0.845,-1.787,0.389,-30.151,-135.803,-4.639
-0.802,-2.141,0.596,-50.232,-116.882,-20.081
-0.631,-2.230,0.918,-34.912,-90.088,-47.424
-0.374,-2.289,1.295,17.578,-69.275,-74.341
-0.102,-2.402,1.568,101.685,-70.374,-90.088
0.012,-2.356,1.757,201.599,-91.675,-95.947
0.017,-2.224,1.909,305.542,-117.004,-84.290
0.006,-2.179,1.935,393.799,-130.371,-48.157
-0.057,-2.375,1.829,449.524,-124.390,0.366
-0.094,-2.624,1.698,453.918,-88.562,34.119
-0.060,-2.660,1.686,390.625,-16.968,29.724
0.219,-2.199,1.650,270.813,71.960,-17.822
0.540,-1.592,1.542,137.146,150.940,-80.139
0.849,-1.145,1.436,20.386,205.200,-116.455
1.051,-0.817,1.260,-68.054,231.079,-117.859
1.094,-0.540,1.062,-126.953,236.023,-97.473
1.017,-0.327,0.905,-155.334,226.013,-63.049
0.934,-0.171,0.796,-159.729,204.407,-20.508
0.856,-0.255,0.664,-143.616,171.387,21.240
0.762,-0.259,0.699,-119.385,131.653,48.767
0.608,-0.224,0.735,-92.651,82.886,72.266
0.515,-0.363,0.774,-65.186,26.978,97.168
0.388,-0.466,0.763,-42.908,-30.212,109.680
0.242,-0.560,0.789,-27.954,-82.275,108.887
0.042,-0.598,0.763,-18.982,-122.803,96.252
-0.155,-0.651,0.758,-15.869,-142.883,82.520
-0.319,-0.682,0.724,-17.822,-142.151,72.205
-0.456,-0.684,0.681,-24.353,-121.643,62.073
-0.521,-0.594,0.690,-33.081,-84.351,47.974
-0.529,-0.448,0.716,-40.833,-36.377,36.621
-0.412,-0.353,0.759,-47.974,12.939,34.302
-0.239,-0.299,0.812,-52.307,56.763,36.255
-0.082,-0.254,0.850,-52.917,90.637,36.743
0.090,-0.170,0.963,-49.622,113.098,33.691
0.261,-0.045,1.089,-38.940,121.643,29.053
0.356,-0.070,1.230,-27.161,110.718,31.860
0.510,-0.180,1.133,-10.803,79.651,36.987
0.419,-0.107,1.208,-3.113,57.739,38.025
0.402,-0.188,1.179,5.615,31.128,44.067
0.325,-0.217,1.165,10.315,13.550,46.265
0.233,-0.249,1.137,7.141,3.357,51.880
0.143,-0.252,1.087,-2.441,2.014,60.608
0.053,-0.242,1.071,-16.235,10.498,66.895
0.017,-0.237,1.068,-30.029,25.879,67.139
0.044,-0.254,1.061,-41.748,44.067,61.523
0.086,-0.169,1.062,-52.856,62.256,51.392
0.181,-0.104,1.064,-61.035,74.402,43.274
0.285,-0.044,1.052,-66.467,77.148,38.818
0.360,-0.024,1.033,-69.153,70.190,38.025
0.373,-0.003,1.000,-70.313,55.420,38.757
0.323,0.071,0.939,-68.420,38.452,38.757
0.264,0.148,0.885,-64.514,24.353,37.964
0.222,0.138,0.850,-57.007,15.503,36.621
0.183,0.141,0.820,-48.340,12.207,33.630
0.171,0.166,0.824,-39.795,14.099,30.029
0.178,0.155,0.825,-32.776,18.494,28.809
0.182,0.117,0.828,-28.137,23.010,28.809
0.179,0.111,0.832,-26.184,26.855,27.832
0.206,0.094,0.837,-26.062,28.931,25.757
0.247,0.088,0.837,-27.893,28.931,23.254
0.278,0.128,0.822,-32.166,26.733,20.813
0.291,0.177,0.798,-38.086,22.034,19.470
0.287,0.208,0.761,-44.006,15.930,19.226
0.278,0.223,0.729,-48.462,10.925,17.639
0.284,0.240,0.699,-50.781,8.118,14.404
0.249,0.267,0.671,-50.049,7.507,9.644
0.242,0.263,0.669,-45.166,12.085,5.615
0.276,0.248,0.682,-36.438,20.752,2.136
0.307,0.259,0.703,-26.550,31.128,-1.160
0.388,0.253,0.736,-19.958,40.039,-0.183
0.483,0.211,0.779,-18.188,42.480,5.005
0.512,0.204,0.801,-20.142,37.598,9.644
0.492,0.231,0.797,-25.208,28.137,12.390
0.457,0.241,0.765,-31.372,16.724,13.672
0.368,0.283,0.706,-36.499,7.263,11.780
0.277,0.350,0.648,-39.673,2.014,7.141
0.223,0.398,0.614,-39.917,1.770,2.136
0.214,0.430,0.610,-34.790,5.493,-2.991
0.215,0.462,0.605,-26.428,11.353,-7.935
0.237,0.475,0.620,-16.724,16.602,-11.292
0.247,0.498,0.635,-7.751,19.531,-12.207
0.258,0.507,0.673,-1.038,19.348,-10.681
0.285,0.499,0.708,4.395,16.357,-9.094
0.288,0.488,0.738,8.911,11.230,-9.827
0.310,0.495,0.762,10.254,5.432,-12.146
0.322,0.524,0.756,8.057,-0.671,-14.832
0.318,0.539,0.732,2.563,-6.226,-17.822
0.333,0.528,0.719,-3.601,-9.827,-21.362
0.300,0.550,0.701,-8.545,-10.620,-26.855
0.295,0.589,0.696,-12.878,-7.996,-31.128
0.320,0.604,0.694,-16.113,-3.113,-32.104
0.360,0.593,0.704,-17.151,2.319,-31.250
0.408,0.577,0.722,-15.869,7.507,-31.006
0.423,0.616,0.734,-12.695,11.658,-32.532
0.449,0.646,0.746,-8.667,12.939,-32.410
0.467,0.650,0.758,-3.845,11.841,-29.724
0.450,0.645,0.759,0.916,8.484,-26.672
0.412,0.640,0.748,3.845,4.028,-24.780
0.385,0.629,0.744,5.737,0.549,-24.231
0.352,0.619,0.740,6.409,-2.136,-24.658

0.736,1.398,0.920,26.428,-5.432,23.254
0.834,1.598,0.966,29.297,-13.855,26.001
0.912,1.876,1.009,29.358,-25.940,28.503
0.942,2.162,1.023,30.884,-41.626,32.654
0.898,2.471,0.995,34.912,-58.777,39.856
0.807,2.719,0.919,41.260,-74.341,48.401
0.705,2.813,0.784,47.913,-84.778,56.458
0.631,2.859,0.658,51.147,-88.257,59.631
0.608,2.893,0.563,51.636,-86.853,56.152
0.636,2.942,0.497,51.575,-86.121,48.645
0.653,2.979,0.426,51.697,-90.637,38.940
0.614,2.898,0.360,51.514,-102.112,31.799
0.505,2.649,0.237,47.729,-117.310,29.846
0.319,2.273,0.110,34.058,-130.188,30.945
0.017,1.791,-0.050,8.606,-138.916,37.048
-0.361,1.262,-0.286,-22.095,-141.479,43.152
-0.682,0.760,-0.534,-48.706,-133.606,41.443
-0.954,0.244,-0.599,-59.998,-116.516,30.762
-1.145,-0.335,-0.530,-54.932,-95.764,11.353
-1.124,-0.949,-0.420,-35.645,-79.102,-13.855
-1.030,-1.547,-0.202,-3.479,-70.618,-37.659
-1.019,-2.083,0.159,43.884,-66.406,-57.495
-1.034,-2.583,0.543,105.896,-58.044,-70.923
-1.076,-3.044,0.806,165.894,-45.166,-69.336
-1.050,-3.526,0.922,211.365,-24.231,-53.040
-0.988,-3.885,0.980,241.821,8.118,-39.429
-0.806,-3.900,1.085,258.423,57.251,-45.349
-0.333,-3.519,1.153,262.146,120.789,-73.242
0.349,-3.086,1.170,245.911,184.998,-118.103
1.002,-2.516,1.255,200.867,230.469,-162.720
1.578,-1.836,1.460,136.108,240.540,-177.979
2.026,-1.165,1.615,71.350,205.566,-160.095
2.128,-0.692,1.648,21.912,134.766,-126.099
1.933,-0.427,1.544,-6.409,50.049,-86.487
1.578,-0.309,1.324,-17.578,-24.658,-47.180
1.182,-0.248,1.162,-20.081,-73.242,-12.451
0.781,-0.328,1.012,-18.494,-98.083,23.865
0.404,-0.468,0.917,-17.700,-104.004,59.143
0.089,-0.511,0.921,-18.738,-97.351,81.238
-0.135,-0.516,0.957,-18.127,-86.731,88.257
-0.306,-0.538,0.962,-17.029,-76.782,82.642
-0.415,-0.571,0.974,-18.372,-67.444,69.214
-0.488,-0.578,0.946,-21.606,-57.556,49.561
-0.537,-0.561,0.880,-25.208,-42.603,28.931
-0.476,-0.440,0.875,-29.236,-19.897,12.268
-0.202,-0.536,0.862,-27.893,3.906,1.221
-0.125,-0.315,0.834,-23.926,25.513,-16.296
0.130,-0.191,1.065,-24.048,41.504,-14.526
0.340,-0.314,1.011,-15.076,38.757,2.747
0.295,-0.335,1.070,-14.160,35.522,18.799
0.291,-0.311,1.192,-16.846,32.654,33.569
0.294,-0.497,1.261,-13.245,27.527,44.556
0.167,-0.417,1.443,-8.728,23.621,45.532
0.252,-0.563,1.324,-10.925,11.780,46.570
0.146,-0.510,1.374,-13.306,7.690,42.480
0.101,-0.545,1.246,-15.259,4.883,38.208
0.049,-0.440,1.258,-18.005,11.230,30.334
0.096,-0.436,1.231,-20.813,18.250,34.241
0.111,-0.467,1.180,-28.381,25.269,46.509
0.076,-0.459,1.139,-42.725,34.912,59.143
0.007,-0.441,1.053,-58.533,49.927,68.787
-0.047,-0.375,1.011,-72.571,72.266,73.181
0.037,-0.329,1.019,-81.665,96.252,74.158
0.188,-0.266,1.050,-85.266,109.680,71.960
0.334,-0.226,1.074,-84.412,105.652,68.665
0.420,-0.192,1.055,-81.726,87.036,67.017
0.381,-0.182,0.994,-78.552,60.730,66.040
0.271,-0.163,0.928,-76.233,37.964,65.857
0.193,-0.168,0.885,-73.792,24.475,66.528
0.152,-0.096,0.841,-70.984,19.531,64.636
0.161,0.009,0.815,-68.604,20.996,60.425
0.190,0.066,0.770,-67.322,26.489,57.800
0.218,0.086,0.718,-67.688,33.264,58.289
0.246,0.141,0.681,-70.129,41.565,59.509
0.297,0.196,0.677,-71.594,48.767,58.960
0.379,0.208,0.702,-70.374,49.805,57.861
0.437,0.204,0.709,-66.101,42.114,56.763
0.440,0.233,0.701,-60.242,26.733,55.603
0.414,0.249,0.696,-52.429,8.179,55.359
0.377,0.251,0.692,-41.809,-8.484,55.603
0.322,0.276,0.701,-31.067,-21.912,55.115
0.281,0.302,0.708,-21.484,-33.264,54.016
0.219,0.315,0.692,-13.977,-42.419,52.734
0.146,0.323,0.661,-10.254,-48.889,51.086
0.114,0.297,0.645,-9.888,-51.453,49.561
0.102,0.265,0.631,-12.390,-49.561,47.791
0.112,0.231,0.623,-18.433,-44.250,46.875
0.136,0.216,0.618,-27.710,-36.499,47.546
0.114,0.198,0.595,-39.551,-27.466,49.438
0.080,0.192,0.580,-50.354,-16.541,49.988
-0.017,0.307,0.556,-56.519,-1.831,46.326
-0.087,0.371,0.528,-57.678,16.785,40.100
-0.100,0.377,0.517,-53.589,38.086,32.715
-0.085,0.417,0.519,-46.082,60.669,22.034
0.010,0.426,0.533,-37.842,80.811,10.742
0.084,0.445,0.518,-29.297,94.543,0.183
0.142,0.465,0.493,-24.597,103.821,-5.005
0.178,0.447,0.459,-24.658,110.718,-3.906
0.258,0.391,0.462,-28.687,117.371,-1.282
0.415,0.374,0.523,-34.912,121.216,-2.563
0.503,0.414,0.554,-41.992,114.014,-10.376
0.563,0.427,0.555,-47.913,96.069,-19.592
0.577,0.479,0.540,-52.612,72.754,-27.283
0.568,0.539,0.540,-53.955,47.791,-34.973
0.490,0.630,0.508,-49.255,23.376,-42.297
0.431,0.663,0.498,-40.222,3.906,-46.143
0.381,0.715,0.478,-27.527,-7.385,-48.157
0.318,0.774,0.472,-13.123,-11.597,-51.086
0.329,0.775,0.496,0.549,-9.583,-53.040
0.395,0.755,0.547,13.611,-4.700,-55.542
0.411,0.765,0.591,24.292,-0.916,-58.899
0.439,0.733,0.638,29.907,1.953,-58.472
0.452,0.703,0.668,31.311,4.883,-56.335
0.463,0.683,0.721,28.320,7.690,-55.847
0.464,0.674,0.742,23.376,9.277,-56.946
0.474,0.664,0.771,16.663,9.827,-59.998
0.477,0.658,0.781,9.033,9.705,-62.988
0.473,0.665,0.781,0.732,8.972,-66.406
0.435,0.706,0.747,-7.812,8.362,-69.458

0.440,1.765,0.470,49.072,-84.717,35.522
0.394,1.993,0.428,46.448,-92.224,32.715
0.298,2.151,0.365,48.279,-97.290,28.442
0.210,2.221,0.298,52.002,-98.389,24.292
0.164,2.199,0.210,56.030,-95.459,19.043
0.133,2.173,0.120,56.519,-89.478,9.338
0.142,2.190,0.075,55.420,-82.092,-2.625
0.116,2.118,0.045,58.472,-77.148,-13.855
0.021,1.905,-0.020,66.223,-76.233,-23.193
-0.099,1.621,-0.090,75.256,-75.989,-32.227
-0.224,1.288,-0.140,82.825,-74.036,-41.748
-0.363,0.963,-0.155,84.839,-69.641,-49.744
-0.591,0.591,-0.170,80.322,-63.171,-51.025
-0.825,0.069,-0.161,70.923,-50.537,-47.913
-0.979,-0.556,-0.106,60.242,-24.475,-51.147
-0.937,-1.156,-0.005,47.791,17.700,-62.195
-0.674,-1.685,0.170,34.119,69.397,-76.782
-0.312,-2.187,0.347,24.292,118.225,-93.323
0.059,-2.726,0.613,19.897,157.043,-109.985
0.465,-3.049,0.941,15.930,174.133,-121.704
0.857,-3.026,1.324,16.296,152.954,-123.596
1.088,-2.815,1.664,32.959,89.600,-117.310
1.041,-2.367,1.802,70.862,1.282,-109.436
0.791,-1.989,1.802,120.239,-78.186,-99.182
0.436,-1.879,1.607,160.583,-123.413,-87.280
0.068,-1.779,1.338,166.321,-122.192,-80.627
-0.158,-1.568,1.141,135.864,-72.388,-78.979
-0.094,-1.401,1.061,86.975,7.385,-78.918
0.141,-1.248,1.144,33.752,91.492,-81.299
0.489,-0.978,1.264,-9.949,152.161,-84.045
0.817,-0.652,1.358,-34.973,173.889,-82.703
1.030,-0.433,1.387,-38.513,156.250,-76.477
1.159,-0.348,1.327,-28.809,112.610,-64.636
1.165,-0.347,1.217,-15.198,59.143,-48.950
1.003,-0.343,1.058,-3.967,11.536,-31.738
0.799,-0.332,0.946,5.310,-17.578,-15.015
0.640,-0.327,0.931,16.235,-26.489,-2.258
0.515,-0.359,0.958,28.503,-23.743,11.047
0.479,-0.423,1.059,35.583,-19.775,30.212
0.555,-0.529,1.127,38.086,-24.292,49.500
0.449,-0.637,1.112,34.912,-40.283,59.326
0.288,-0.648,1.093,24.841,-57.556,60.303
0.144,-0.575,1.059,12.268,-70.068,56.213
0.065,-0.516,1.019,1.526,-74.707,50.659
0.068,-0.473,1.013,-5.981,-72.021,44.861
0.105,-0.433,1.015,-9.766,-65.247,39.856
0.147,-0.377,1.041,-11.963,-56.030,36.987
0.177,-0.311,1.061,-12.024,-46.021,37.537
0.193,-0.296,1.071,-11.169,-36.682,43.579
0.196,-0.290,1.067,-11.047,-27.161,51.147
0.200,-0.277,1.066,-11.963,-17.395,55.542
0.209,-0.293,1.075,-11.963,-8.789,56.091
0.222,-0.319,1.081,-11.841,-2.502,53.650
0.246,-0.302,1.081,-10.925,1.709,48.584
0.264,-0.249,1.091,-11.902,4.578,45.349
0.326,-0.257,1.104,-16.296,4.822,50.171
0.374,-0.250,1.087,-23.254,0.122,57.922
0.370,-0.206,1.073,-31.067,-6.958,62.500
0.340,-0.126,1.047,-36.743,-14.038,62.561
0.336,-0.084,1.040,-36.865,-20.630,58.289
0.336,-0.091,1.029,-32.288,-26.978,53.406
0.320,-0.097,1.013,-26.978,-33.569,50.659
0.290,-0.141,1.010,-21.423,-38.818,51.453
0.247,-0.216,0.995,-16.907,-41.626,53.467
0.198,-0.278,0.990,-14.404,-40.283,53.345
0.161,-0.291,0.965,-15.747,-34.607,52.063
0.146,-0.282,0.940,-19.653,-24.902,50.354
0.152,-0.222,0.922,-25.391,-12.146,48.401
0.193,-0.165,0.923,-30.579,0.610,46.143
0.248,-0.120,0.922,-33.325,11.353,43.823
0.311,-0.093,0.933,-33.875,17.395,42.053
0.348,-0.076,0.945,-33.630,17.273,41.382
0.364,-0.088,0.952,-32.471,12.329,42.114
0.342,-0.123,0.943,-32.043,4.089,44.006
0.297,-0.145,0.918,-34.241,-3.662,46.204
0.239,-0.091,0.882,-38.513,-8.545,46.875
0.181,-0.050,0.853,-42.847,-9.460,44.922
0.165,-0.032,0.832,-45.532,-6.226,41.565
0.180,0.004,0.836,-46.143,0.244,35.767
0.212,0.081,0.837,-45.837,6.897,29.846
0.249,0.145,0.831,-44.495,10.986,27.039
0.271,0.160,0.831,-42.236,12.268,27.344
0.286,0.151,0.825,-38.513,10.925,28.076
0.296,0.161,0.817,-35.278,8.179,27.222
0.305,0.151,0.814,-32.715,4.822,24.414
0.304,0.158,0.809,-30.518,1.831,20.447
0.279,0.204,0.792,-29.846,-0.183,17.212
0.261,0.250,0.781,-29.785,-0.122,16.296
0.251,0.256,0.770,-28.809,2.014,16.724
0.246,0.227,0.762,-28.137,5.188,17.761
0.242,0.220,0.758,-27.893,8.179,18.799
0.253,0.224,0.766,-27.100,10.742,19.043
0.278,0.207,0.770,-24.475,12.390,19.043
0.267,0.245,0.765,-21.973,12.817,19.226
0.257,0.290,0.761,-19.470,13.367,19.775
0.254,0.285,0.753,-16.235,14.221,21.057
0.244,0.277,0.749,-13.062,15.259,21.912
0.242,0.295,0.748,-10.437,16.541,21.545
0.256,0.332,0.745,-8.179,18.005,19.653
0.301,0.317,0.756,-7.202,18.311,18.372
0.324,0.304,0.749,-7.202,15.991,17.395
0.328,0.260,0.752,-9.033,12.024,16.602
0.380,0.194,0.756,-10.742,7.874,16.235
0.379,0.225,0.760,-12.146,3.845,14.771
0.380,0.242,0.782,-13.916,0.671,14.587
0.373,0.265,0.798,-14.709,-2.014,17.090
0.354,0.307,0.813,-15.686,-4.517,18.860
0.347,0.316,0.819,-17.700,-6.531,18.188
0.299,0.365,0.801,-20.935,-8.118,15.381
0.246,0.413,0.787,-26.489,-8.545,12.146
0.243,0.424,0.777,-32.654,-6.226,9.033
0.252,0.429,0.775,-37.903,-2.075,4.028
0.322,0.427,0.784,-42.175,2.502,-1.526
0.384,0.432,0.795,-46.082,4.761,-6.531
0.491,0.396,0.830,-49.255,3.296,-10.254
0.505,0.448,0.833,-50.842,-3.052,-12.878
0.488,0.486,0.833,-51.514,-11.475,-12.390
0.418,0.517,0.806,-49.988,-20.264,-8.484
0.309,0.544,0.773,-46.936,-25.513,-4.761

0.709,1.845,0.850,12.390,-8.972,6.958
0.839,2.086,0.878,17.212,-20.264,20.569
0.880,2.283,0.864,18.250,-35.400,37.109
0.777,2.477,0.786,12.512,-51.880,56.213
0.600,2.644,0.670,-0.183,-64.697,76.965
0.382,2.729,0.515,-17.273,-68.237,95.886
0.155,2.753,0.376,-36.621,-60.425,107.788
-0.042,2.749,0.251,-55.176,-43.152,110.046
-0.152,2.756,0.164,-69.519,-22.278,105.591
-0.247,2.730,0.074,-76.050,-5.554,97.717
-0.381,2.674,-0.056,-72.754,3.723,87.708
-0.536,2.564,-0.200,-60.242,7.874,75.317
-0.731,2.405,-0.325,-39.795,9.216,60.425
-0.878,2.084,-0.345,-16.418,8.850,41.870
-0.882,1.627,-0.285,4.456,6.714,16.357
-0.747,1.086,-0.181,18.921,0.244,-17.090
-0.605,0.524,-0.086,22.461,-14.038,-50.232
-0.499,0.000,-0.047,14.282,-37.109,-72.937
-0.446,-0.535,0.044,3.174,-62.378,-85.754
-0.472,-1.103,0.181,-4.150,-82.275,-92.041
-0.560,-1.638,0.311,-5.859,-87.280,-92.834
-0.589,-2.173,0.580,2.075,-67.566,-93.872
-0.548,-2.683,0.865,27.649,-26.733,-102.112
-0.233,-3.095,1.195,69.885,23.071,-122.375
0.454,-2.973,1.561,124.878,66.895,-157.959
1.186,-2.486,1.996,179.626,84.106,-190.125
1.822,-2.100,2.410,227.356,60.059,-185.974
2.176,-1.712,2.609,257.568,-6.653,-136.292
2.024,-1.364,2.594,258.667,-93.567,-69.946
1.605,-1.191,2.380,224.854,-164.673,-21.118
1.104,-1.107,2.007,158.997,-195.923,-5.127
0.693,-0.899,1.591,73.792,-181.091,-16.907
0.432,-0.654,1.343,-9.399,-128.174,-33.386
0.334,-0.361,1.120,-70.068,-56.641,-41.687
0.486,-0.061,0.941,-97.595,12.512,-38.391
0.667,-0.021,0.738,-96.619,62.988,-22.766
0.875,0.126,0.739,-79.224,83.496,-5.188
0.866,0.101,0.607,-49.927,63.721,21.912
0.678,-0.038,0.574,-18.494,20.813,53.772
0.454,-0.034,0.619,10.864,-29.419,72.937
0.184,-0.207,0.652,40.649,-80.811,85.327
-0.154,-0.385,0.574,57.739,-121.399,92.468
-0.580,-0.563,0.491,55.908,-139.099,88.684
-0.885,-0.286,0.483,40.039,-129.456,63.416
-1.007,-0.165,0.679,27.039,-97.168,41.626
-0.853,-0.267,0.619,26.917,-55.481,20.691
-0.754,-0.172,0.703,23.560,-8.789,-10.864
-0.521,-0.114,0.741,17.700,32.227,-29.968
-0.312,-0.082,0.772,14.954,63.904,-39.673
-0.093,0.021,0.853,15.137,85.510,-47.302
0.162,0.074,0.912,21.973,92.773,-52.185
0.330,-0.070,0.865,33.142,85.938,-54.810
0.381,0.197,1.164,40.283,69.031,-55.359
0.537,0.070,1.052,52.124,33.020,-39.001
0.448,0.032,1.039,64.392,3.906,-33.997
0.362,0.048,1.095,72.266,-16.052,-34.363
0.297,-0.081,1.101,84.045,-28.198,-33.691
0.225,-0.161,1.102,87.463,-30.029,-28.198
0.168,-0.189,1.096,78.430,-23.560,-15.015
0.125,-0.202,1.076,64.087,-11.719,0.305
0.110,-0.207,1.073,48.279,2.625,10.986
0.116,-0.164,1.108,35.889,17.212,13.062
0.152,-0.133,1.142,30.762,26.367,11.047
0.208,-0.103,1.168,31.311,27.710,8.301
0.246,-0.132,1.166,36.377,21.667,6.714
0.218,-0.170,1.106,43.335,9.888,5.066
0.163,-0.177,1.027,48.645,-1.465,2.014
0.128,-0.180,0.954,51.453,-8.789,-1.587
0.108,-0.175,0.908,51.880,-11.047,-4.150
0.112,-0.163,0.892,48.157,-9.155,-3.052
0.122,-0.181,0.888,38.879,-4.639,5.310
0.134,-0.215,0.904,27.161,1.160,18.066
0.158,-0.228,0.920,16.113,8.484,29.236
0.200,-0.232,0.942,7.385,16.052,36.926
0.230,-0.227,0.956,0.610,22.705,41.809
0.259,-0.241,0.985,-3.601,28.320,44.128
0.301,-0.275,1.010,-4.395,31.921,43.945
0.361,-0.280,1.042,-2.563,31.677,40.283
0.407,-0.308,1.072,1.587,26.001,35.400
0.419,-0.373,1.080,7.874,15.076,32.471
0.403,-0.431,1.090,13.855,2.991,30.823
0.353,-0.396,1.090,14.954,-6.409,30.823
0.287,-0.347,1.081,12.146,-11.597,33.142
0.239,-0.322,1.054,7.629,-11.292,36.499
0.229,-0.282,1.030,1.099,-5.798,37.598
0.246,-0.266,1.031,-6.653,2.258,35.767
0.282,-0.289,1.027,-14.221,8.301,33.142
0.312,-0.301,1.009,-22.522,10.254,31.006
0.297,-0.231,0.986,-29.968,9.521,28.259
0.266,-0.151,0.978,-34.973,8.484,26.062
0.231,-0.128,0.956,-35.583,7.812,25.635
0.218,-0.149,0.949,-33.386,8.728,26.367
0.211,-0.114,0.933,-29.968,11.841,26.123
0.184,-0.022,0.921,-28.320,16.724,25.208
0.184,-0.039,0.912,-28.259,21.606,26.550
0.224,-0.077,0.902,-29.480,25.696,28.870
0.255,-0.000,0.897,-34.485,28.076,27.893
0.291,0.043,0.888,-39.917,27.649,25.208
0.349,0.059,0.877,-44.373,23.437,23.376
0.345,0.123,0.846,-48.889,16.235,20.386
0.290,0.219,0.824,-53.162,8.545,16.968
0.224,0.288,0.805,-55.176,2.625,15.930
0.186,0.328,0.797,-54.626,-0.427,16.541
0.149,0.383,0.776,-52.307,-0.916,16.052
0.122,0.419,0.749,-49.683,1.282,14.160
0.154,0.433,0.732,-48.462,5.920,11.047
0.232,0.441,0.728,-48.950,10.315,5.493
0.317,0.440,0.742,-50.598,11.353,0.427
0.352,0.469,0.745,-53.589,7.996,-1.953
0.361,0.481,0.750,-56.702,2.014,-1.160
0.336,0.486,0.754,-57.739,-4.028,1.770
0.280,0.514,0.758,-56.213,-7.324,4.944
0.224,0.558,0.766,-52.124,-6.226,7.202
0.187,0.580,0.778,-46.265,-1.465,8.789
0.168,0.593,0.796,-39.063,5.737,8.362
0.194,0.569,0.825,-31.494,12.817,5.981
0.228,0.552,0.853,-24.109,16.968,2.686
0.252,0.536,0.870,-18.860,16.541,-0.366
0.267,0.493,0.874,-14.954,12.268,-1.892

0.839,1.334,1.006,42.847,-5.371,4.883
0.905,1.504,1.048,46.021,-21.851,6.531
0.880,1.669,1.045,48.035,-41.931,10.620
0.780,1.797,1.017,52.246,-60.364,17.456
0.629,1.931,1.007,58.228,-73.792,26.123
0.468,2.101,1.001,67.139,-80.383,32.898
0.323,2.228,0.956,79.163,-81.604,36.804
0.244,2.297,0.901,92.041,-78.186,38.025
0.241,2.357,0.835,102.783,-72.327,35.767
0.278,2.428,0.799,109.009,-68.298,28.076
0.357,2.483,0.790,113.464,-69.641,18.799
0.408,2.463,0.778,118.469,-78.308,8.606
0.359,2.383,0.741,121.033,-93.018,-1.160
0.276,2.252,0.661,118.774,-110.535,-10.010
0.142,2.070,0.553,108.521,-124.084,-19.409
-0.050,1.781,0.392,85.938,-130.859,-26.184
-0.275,1.434,0.201,48.218,-129.761,-26.245
-0.510,1.021,-0.003,-2.808,-118.286,-21.179
-0.696,0.450,-0.230,-60.242,-97.351,-13.062
-0.844,-0.270,-0.434,-116.699,-72.876,-2.563
-1.040,-1.030,-0.602,-166.626,-50.537,10.803
-1.135,-1.730,-0.583,-201.965,-32.227,22.888
-1.135,-2.441,-0.350,-207.520,-13.733,29.724
-1.068,-3.157,0.064,-174.255,-0.671,22.827
-0.963,-3.531,0.656,-92.651,3.662,-7.263
-0.795,-3.134,1.192,47.241,-0.854,-58.716
-0.556,-2.738,1.598,228.394,-6.226,-121.826
-0.242,-3.195,1.624,396.484,1.648,-179.810
0.346,-3.734,1.509,470.093,32.410,-213.806
0.968,-3.488,1.345,421.448,83.679,-210.632
1.384,-2.431,1.550,292.236,128.540,-173.157
2.011,-1.353,1.977,149.597,146.179,-104.065
2.080,-0.992,2.140,42.603,124.146,-33.569
1.593,-0.986,1.968,-32.288,75.928,12.451
1.167,-0.714,1.759,-84.656,23.437,49.438
0.682,-0.412,1.590,-100.403,-22.644,78.552
0.308,-0.439,1.343,-83.374,-58.411,94.421
0.078,-0.651,1.009,-64.148,-78.186,97.900
-0.124,-0.733,0.837,-59.204,-79.956,89.844
-0.246,-0.620,0.782,-62.378,-71.472,80.627
-0.324,-0.475,0.735,-61.523,-58.960,74.402
-0.373,-0.384,0.721,-53.955,-42.664,67.444
-0.388,-0.355,0.718,-41.870,-25.696,59.204
-0.391,-0.392,0.724,-30.701,-9.827,50.842
-0.355,-0.428,0.734,-22.522,4.211,41.687
-0.241,-0.442,0.748,-17.517,15.747,31.433
-0.090,-0.419,0.768,-14.282,22.339,21.362
0.012,-0.336,0.772,-12.085,21.729,14.282
0.087,-0.285,0.783,-7.568,16.052,11.108
0.093,-0.186,0.793,-0.244,9.827,9.460
0.158,-0.148,0.907,8.850,4.456,15.015
0.206,-0.188,0.923,21.240,-5.188,23.621
0.174,-0.185,0.996,31.006,-13.306,30.151
0.065,-0.235,0.971,40.649,-19.287,33.508
0.069,-0.248,1.202,48.584,-13.916,35.889
0.111,-0.364,1.259,54.932,-17.273,37.476
0.123,-0.413,1.249,59.570,-34.851,29.602
-0.018,-0.390,1.221,53.223,-49.072,24.048
-0.127,-0.390,1.201,47.729,-55.115,17.639
-0.194,-0.418,1.168,42.358,-50.659,12.939
-0.240,-0.413,1.120,35.950,-36.133,10.498
-0.221,-0.426,1.111,28.137,-16.357,13.184
-0.182,-0.445,1.091,16.235,5.615,20.081
-0.139,-0.493,1.063,1.282,27.832,28.381
-0.130,-0.443,1.054,-15.808,49.744,34.790
-0.112,-0.375,1.029,-31.006,70.068,40.039
-0.055,-0.377,1.016,-41.321,88.440,45.227
0.043,-0.349,1.030,-47.607,103.027,47.180
0.168,-0.298,1.057,-50.171,109.070,45.837
0.272,-0.294,1.072,-50.659,102.844,43.152
0.343,-0.300,1.074,-50.232,85.266,41.504
0.382,-0.264,1.085,-50.049,59.082,41.443
0.388,-0.243,1.056,-49.988,28.625,42.908
0.313,-0.216,0.998,-50.049,0.061,44.250
0.220,-0.153,0.960,-50.293,-19.043,44.739
0.119,-0.126,0.912,-48.889,-28.259,43.762
0.023,-0.131,0.877,-46.936,-26.306,42.358
-0.032,-0.132,0.856,-46.570,-14.771,41.626
-0.027,-0.105,0.848,-46.814,2.319,40.833
0.036,-0.102,0.855,-46.631,20.874,40.405
0.132,-0.134,0.868,-45.898,35.645,40.833
0.208,-0.146,0.886,-45.105,43.213,41.138
0.254,-0.061,0.886,-44.067,43.335,41.504
0.283,0.010,0.904,-41.016,38.330,42.358
0.324,0.032,0.920,-36.133,28.931,44.067
0.322,0.058,0.934,-30.151,15.991,43.701
0.292,0.036,0.948,-23.865,1.709,42.175
0.246,-0.006,0.951,-18.127,-10.864,40.344
0.184,-0.031,0.952,-14.587,-20.569,36.987
0.124,-0.041,0.934,-12.878,-26.001,32.776
0.093,-0.099,0.915,-13.245,-25.513,29.541
0.093,-0.142,0.895,-15.137,-19.653,26.978
0.072,-0.115,0.883,-18.738,-10.864,24.597
0.088,-0.063,0.879,-24.048,-0.122,24.597
0.095,-0.001,0.868,-27.954,9.644,25.452
0.112,0.018,0.860,-29.846,18.127,25.391
0.152,0.036,0.859,-30.823,24.658,24.719
0.171,0.060,0.858,-31.128,27.039,22.644
0.183,0.082,0.851,-31.372,26.306,20.447
0.212,0.097,0.850,-31.860,22.278,18.433
0.222,0.108,0.835,-32.654,15.381,15.808
0.216,0.105,0.815,-34.363,6.775,13.184
0.226,0.103,0.798,-36.621,-1.221,11.169
0.218,0.162,0.787,-39.124,-7.568,8.118
0.208,0.203,0.773,-40.283,-12.390,5.432
0.196,0.212,0.759,-39.612,-15.015,3.845
0.172,0.231,0.746,-38.940,-14.893,2.686
0.156,0.242,0.745,-39.490,-11.780,2.625
0.152,0.237,0.752,-39.429,-6.836,2.869
0.150,0.249,0.753,-38.513,-1.404,2.136
0.127,0.278,0.751,-37.598,4.517,0.916
0.140,0.245,0.753,-36.316,10.437,0.610
0.168,0.251,0.761,-35.095,15.381,-1.038
0.209,0.274,0.780,-34.729,18.250,-4.333
0.248,0.276,0.788,-34.363,17.273,-7.446
0.240,0.323,0.784,-34.180,12.573,-9.888
0.237,0.304,0.773,-32.715,6.592,-12.024
0.238,0.305,0.770,-30.029,1.282,-15.137
0.219,0.334,0.777,-26.978,-2.563,-19.470

0.732,1.829,0.634,-42.725,38.330,-29.663
0.789,2.061,0.575,-29.907,33.813,-20.752
0.730,2.398,0.545,-17.761,27.527,-9.888
0.622,2.790,0.537,-4.517,21.362,2.502
0.453,3.046,0.457,11.230,16.724,14.648
0.288,3.199,0.342,20.142,16.235,20.569
0.250,3.306,0.162,20.813,20.874,17.151
0.335,3.454,0.013,18.005,28.992,3.906
0.399,3.643,-0.022,18.799,33.691,-13.245
0.493,3.737,-0.055,31.677,34.424,-25.391
0.516,3.569,-0.103,54.260,33.936,-32.166
0.508,3.231,-0.127,71.411,38.574,-38.513
0.405,2.838,-0.186,69.763,50.110,-42.236
0.186,2.345,-0.248,50.293,67.810,-38.452
-0.043,1.747,-0.296,17.273,89.417,-28.809
-0.468,1.196,-0.354,-22.522,110.413,-23.621
-0.795,0.627,-0.392,-51.331,132.263,-27.161
-0.949,-0.104,-0.319,-55.725,153.442,-40.283
-0.971,-0.919,-0.183,-34.790,172.852,-66.650
-0.850,-1.882,0.065,8.972,196.655,-94.788
-0.276,-3.467,0.684,65.369,227.112,-105.774
1.171,-4.000,1.529,127.258,242.615,-117.004
2.149,-4.000,1.914,165.771,212.402,-163.147
2.014,-4.000,1.936,163.208,154.724,-223.633
1.923,-4.000,1.499,142.273,118.347,-237.671
1.920,-3.998,1.145,85.327,119.446,-229.736
1.967,-2.755,0.954,20.203,154.602,-210.205
2.104,-1.900,0.878,-16.479,191.833,-162.048
2.156,-1.362,0.921,-29.541,200.623,-97.107
1.898,-0.832,1.036,-27.344,169.373,-43.762
1.577,-0.589,1.069,-5.737,114.136,-12.085
1.165,-0.661,0.974,25.513,56.458,3.174
0.839,-0.664,0.895,43.152,13.489,13.367
0.561,-0.603,0.784,44.312,-10.254,20.142
0.382,-0.521,0.682,39.551,-16.174,21.973
0.317,-0.481,0.540,33.264,-10.254,24.109
0.301,-0.539,0.553,27.649,0.671,22.827
0.414,-0.376,0.623,22.827,6.775,15.747
0.537,-0.469,0.610,25.208,-1.831,19.470
0.548,-0.462,0.666,24.536,-17.578,25.757
0.439,-0.437,0.613,22.888,-33.630,36.865
0.232,-0.386,0.504,19.897,-35.950,49.316
0.236,-0.369,0.515,17.395,-18.311,58.838
0.212,-0.417,0.412,19.836,7.080,56.885
0.304,-0.320,0.449,17.639,39.246,49.744
0.420,-0.333,0.358,16.907,65.735,43.213
0.495,-0.195,0.385,14.954,88.440,33.813
0.713,-0.039,0.516,13.306,104.126,30.212
0.966,-0.161,0.461,21.912,100.647,34.180
1.005,-0.251,0.482,24.353,91.248,33.508
1.107,-0.126,0.640,22.217,76.599,30.579
1.127,-0.228,0.611,30.762,46.875,33.264
1.094,-0.240,0.601,31.189,23.499,37.781
0.982,-0.203,0.550,29.236,9.094,43.030
0.865,-0.187,0.499,26.306,7.507,47.302
0.793,-0.175,0.469,23.193,18.311,50.720
0.779,-0.183,0.451,20.020,37.537,51.575
0.815,-0.210,0.423,17.822,58.655,50.659
0.871,-0.197,0.423,15.503,76.843,48.340
0.931,-0.191,0.400,14.160,88.684,46.326
0.964,-0.146,0.391,13.672,93.872,44.006
0.985,-0.098,0.372,15.137,93.628,42.786
1.001,-0.074,0.354,17.212,89.355,43.640
1.014,-0.036,0.329,17.944,82.214,46.326
0.996,-0.012,0.286,17.029,73.486,50.537
0.973,0.021,0.255,14.038,65.552,54.016
0.974,0.081,0.239,11.047,58.472,56.396
0.975,0.112,0.211,9.277,51.331,58.350
0.967,0.152,0.181,7.385,44.312,57.922
0.987,0.147,0.185,6.226,38.574,56.763
0.986,0.119,0.173,4.944,32.593,57.678
0.966,0.066,0.148,3.540,26.855,59.937
0.923,0.053,0.121,2.380,23.682,59.326
0.890,0.030,0.113,2.258,23.865,56.702
0.895,0.010,0.103,4.089,26.428,52.917
0.915,0.014,0.100,6.653,28.809,48.340
0.926,0.057,0.096,9.399,30.273,44.006
0.934,0.095,0.099,12.695,31.128,40.771
0.962,0.115,0.099,15.747,31.189,39.856
1.002,0.125,0.113,17.517,29.480,40.344
1.019,0.125,0.137,18.372,24.963,40.894
1.011,0.181,0.147,18.921,18.494,41.382
0.977,0.195,0.130,19.775,12.146,44.495
0.930,0.211,0.140,21.423,7.263,44.800
0.915,0.205,0.181,24.414,4.639,42.908
0.894,0.220,0.163,27.466,3.113,42.297
0.879,0.175,0.165,26.978,5.493,44.922
0.897,0.111,0.157,22.583,11.902,49.866
0.927,0.135,0.165,14.343,19.653,54.993
0.958,0.138,0.163,6.104,24.353,58.472
0.984,0.143,0.139,-0.244,24.780,58.899
0.993,0.238,0.137,-6.409,21.484,56.580
0.995,0.298,0.131,-9.094,12.817,54.016
0.974,0.294,0.082,-8.118,0.610,49.805
0.908,0.386,0.081,-7.874,-8.667,42.603
0.871,0.399,0.085,-5.310,-15.320,39.001
0.896,0.362,0.093,-2.502,-19.226,37.903
0.880,0.398,0.115,-1.587,-20.447,38.452
0.857,0.384,0.129,0.000,-19.409,40.100
0.868,0.286,0.117,2.197,-15.503,40.955
0.845,0.283,0.113,1.465,-7.324,37.903
0.831,0.364,0.131,-0.366,3.418,34.302
0.821,0.437,0.128,-1.709,13.367,34.546
0.807,0.508,0.123,-2.319,20.386,36.682
0.803,0.528,0.119,-2.197,23.376,38.269
0.787,0.512,0.091,-2.136,21.851,38.452
0.785,0.546,0.083,-4.150,18.433,36.499
0.797,0.585,0.097,-5.066,12.573,32.715
0.794,0.554,0.095,-3.845,4.333,27.527
0.795,0.530,0.109,-3.113,-4.272,20.996
0.786,0.524,0.114,-2.441,-11.536,14.160
0.781,0.515,0.120,-2.808,-16.418,10.193
0.773,0.514,0.125,-4.944,-18.188,9.583
0.785,0.514,0.131,-7.812,-17.944,10.803
0.798,0.499,0.135,-10.559,-17.212,11.719
0.794,0.512,0.128,-13.489,-16.418,11.780
0.769,0.565,0.135,-16.235,-15.259,10.742
0.734,0.604,0.136,-16.968,-13.489,9.827
0.705,0.619,0.135,-15.076,-10.803,8.179

1.194,1.888,0.103,-10.864,-2.808,-37.354
1.312,2.117,0.072,-18.921,-27.161,-42.480
1.339,2.325,0.024,-23.682,-60.608,-47.791
1.299,2.467,-0.027,-24.048,-95.825,-47.729
1.235,2.591,-0.096,-22.400,-126.953,-39.978
1.125,2.771,-0.146,-18.860,-151.611,-24.475
0.945,3.036,-0.207,-13.000,-169.250,-4.272
0.679,3.260,-0.282,-2.380,-177.856,17.639
0.376,3.398,-0.346,12.268,-173.950,41.260
0.035,3.329,-0.346,29.968,-158.264,59.998
-0.337,3.110,-0.366,46.692,-133.850,66.650
-0.731,2.815,-0.347,58.350,-101.807,56.702
-1.022,2.254,-0.283,65.186,-63.110,37.781
-1.156,1.611,-0.185,63.171,-26.917,8.728
-1.098,1.010,-0.069,54.565,-2.930,-34.363
-0.961,0.437,-0.009,46.875,6.104,-70.129
-0.864,-0.178,-0.055,46.448,4.456,-76.538
-1.039,-0.796,-0.147,66.528,6.531,-56.213
-1.141,-2.017,0.037,114.624,41.870,-31.921
-0.639,-3.906,0.406,165.894,125.061,-18.005
-0.078,-4.000,0.931,177.002,212.097,-47.119
0.834,-4.000,1.023,121.521,262.207,-163.269
1.999,-4.000,1.115,33.813,279.419,-287.537
2.762,-4.000,1.058,-58.960,244.263,-359.436
3.022,-3.941,0.882,-140.137,168.518,-373.596
2.845,-2.303,0.561,-181.885,98.755,-346.375
2.389,-1.143,0.008,-172.913,68.726,-293.884
1.933,-0.534,-0.712,-140.381,90.393,-225.830
1.896,-0.289,-0.870,-106.201,155.518,-154.236
2.283,-0.187,-0.578,-74.951,213.806,-92.468
2.686,-0.084,-0.228,-43.457,222.412,-50.171
2.742,-0.096,-0.008,-12.207,172.241,-17.334
2.418,-0.290,-0.003,16.357,80.078,15.869
1.850,-0.450,-0.084,34.363,-15.930,43.701
1.267,-0.508,-0.124,43.640,-86.792,56.519
0.791,-0.552,-0.101,48.401,-124.146,56.641
0.455,-0.594,-0.035,49.927,-132.080,52.185
0.265,-0.505,0.105,47.058,-118.896,50.049
0.211,-0.528,0.174,44.983,-95.886,54.626
0.140,-0.556,0.275,42.175,-66.040,50.354
0.272,-0.282,0.392,34.790,-36.621,41.626
0.139,-0.337,0.281,29.785,-16.418,45.898
0.232,-0.299,0.279,18.616,6.714,48.584
0.293,-0.170,0.277,10.071,28.503,41.443
0.491,-0.171,0.285,6.836,41.809,32.532
0.644,-0.181,0.257,5.310,42.969,23.193
0.758,-0.163,0.254,3.418,34.485,10.620
0.876,-0.116,0.268,2.686,20.752,-0.549
0.979,-0.120,0.256,4.639,3.967,-7.019
1.047,-0.121,0.270,6.042,-12.329,-12.634
1.127,-0.114,0.294,7.202,-27.161,-15.381
1.124,-0.012,0.312,5.920,-40.466,-10.986
1.163,-0.013,0.332,4.272,-51.147,5.371
1.156,0.018,0.329,3.113,-58.228,22.949
1.072,-0.023,0.286,3.662,-60.303,35.767
0.986,0.001,0.283,4.700,-54.443,42.603
0.990,-0.047,0.291,7.141,-42.297,47.302
0.969,-0.147,0.253,10.498,-28.015,47.974
0.980,-0.125,0.294,10.620,-12.207,43.823
1.039,-0.166,0.300,11.230,-0.916,42.297
1.074,-0.174,0.302,11.414,5.676,42.114
1.077,-0.164,0.281,11.353,7.141,42.908
1.056,-0.154,0.248,11.658,6.714,44.373
1.042,-0.145,0.215,11.292,6.958,46.021
1.060,-0.122,0.191,10.071,7.812,47.180
1.102,-0.120,0.180,7.385,7.202,48.828
1.166,-0.115,0.197,3.723,1.343,51.758
1.209,-0.069,0.222,0.977,-11.353,56.030
1.203,-0.033,0.232,1.953,-30.029,60.303
1.146,-0.016,0.235,6.287,-49.133,64.758
1.063,-0.020,0.245,12.512,-63.904,69.153
0.974,-0.050,0.251,17.822,-72.021,73.853
0.896,-0.094,0.259,20.142,-71.594,77.332
0.828,-0.142,0.254,19.531,-63.477,78.186
0.794,-0.133,0.255,15.381,-48.523,76.416
0.786,-0.070,0.261,9.277,-30.579,72.571
0.794,-0.031,0.269,4.822,-13.000,67.261
0.824,0.001,0.281,2.869,1.953,61.707
0.862,0.058,0.308,1.831,13.733,57.251
0.906,0.103,0.340,2.258,19.958,55.725
0.934,0.086,0.356,3.357,20.142,56.580
0.943,0.084,0.358,4.700,15.930,57.373
0.942,0.110,0.349,5.554,9.949,56.763
0.924,0.119,0.331,5.371,3.235,55.603
0.915,0.094,0.301,3.906,-2.808,54.443
0.900,0.104,0.272,1.038,-6.714,52.246
0.874,0.128,0.253,-3.296,-7.935,50.720
0.841,0.130,0.229,-6.958,-6.714,52.063
0.816,0.134,0.200,-9.399,-3.357,55.542
0.794,0.187,0.203,-9.460,2.380,57.861
0.780,0.244,0.213,-5.188,9.216,58.167
0.790,0.268,0.230,2.441,15.747,57.434
0.812,0.318,0.257,9.216,21.240,55.115
0.843,0.357,0.297,14.343,22.766,53.528
0.891,0.338,0.314,16.479,18.433,54.626
0.932,0.340,0.332,14.404,7.568,56.580
0.947,0.324,0.344,9.277,-8.850,58.899
0.923,0.277,0.325,3.723,-29.297,60.974
0.859,0.266,0.287,-1.282,-47.913,60.425
0.774,0.290,0.253,-4.639,-60.364,56.946
0.679,0.360,0.223,-5.310,-64.575,53.467
0.608,0.428,0.223,-3.113,-59.265,50.415
0.580,0.438,0.240,1.282,-46.326,48.767
0.570,0.438,0.251,5.188,-29.358,47.546
0.618,0.417,0.272,6.897,-10.620,46.204
0.687,0.409,0.304,6.653,5.188,44.128
0.742,0.416,0.321,4.944,14.954,41.443
0.792,0.395,0.327,2.197,17.883,38.757
0.858,0.351,0.316,-2.075,14.893,35.339
0.859,0.378,0.297,-7.568,7.141,31.128
0.826,0.428,0.274,-12.756,-2.930,29.297
0.784,0.465,0.254,-14.099,-11.230,29.419
0.748,0.464,0.244,-12.390,-15.991,29.602
0.694,0.511,0.240,-8.545,-16.968,28.320
0.645,0.551,0.254,-2.625,-13.855,26.733
0.632,0.562,0.271,3.174,-8.057,26.855
0.638,0.565,0.305,6.592,-1.709,28.076
0.695,0.522,0.347,7.385,1.343,29.602
0.729,0.477,0.350,6.104,-0.671,29.175

0.779,1.950,-0.014,3.723,4.089,-29.480
0.800,2.110,-0.082,2.563,1.770,-31.555
0.829,2.339,-0.151,0.549,-5.249,-32.043
0.852,2.624,-0.215,-1.709,-18.372,-29.907
0.831,2.852,-0.265,-2.441,-36.926,-24.353
0.692,2.915,-0.361,-2.563,-58.716,-15.686
0.538,2.866,-0.452,-7.202,-81.299,-5.432
0.397,2.800,-0.480,-14.648,-101.074,2.747
0.153,2.770,-0.496,-17.334,-118.652,3.357
-0.145,2.696,-0.557,-15.076,-132.019,-4.211
-0.484,2.548,-0.661,-6.653,-137.451,-16.113
-0.792,2.361,-0.685,5.920,-132.568,-30.029
-1.031,2.011,-0.633,22.888,-122.375,-45.532
-1.125,1.403,-0.434,49.988,-104.492,-66.284
-0.994,0.686,-0.070,80.078,-83.191,-96.802
-0.709,-0.173,0.280,101.379,-68.237,-127.380
-0.293,-0.905,0.596,98.633,-50.842,-125.244
0.084,-1.303,0.847,85.388,-37.659,-83.069
0.181,-1.691,1.017,96.191,-29.236,-27.771
-0.024,-2.514,1.181,137.268,-12.390,13.428
-0.224,-3.804,1.229,188.232,18.005,6.409
-0.083,-4.000,1.176,211.304,75.439,-60.364
0.621,-4.000,1.150,174.438,151.001,-157.471
1.717,-4.000,1.367,94.727,208.801,-252.319
2.615,-3.882,1.415,6.104,214.172,-316.772
3.027,-2.631,1.201,-75.623,174.011,-330.078
3.005,-1.353,0.866,-131.714,118.164,-298.401
2.768,-0.466,0.558,-150.635,75.073,-231.934
2.432,-0.075,0.166,-142.334,52.917,-153.931
2.058,-0.046,-0.148,-120.178,50.293,-83.862
1.799,0.056,-0.221,-95.276,59.387,-28.320
1.659,0.226,-0.032,-63.843,66.284,13.489
1.493,0.122,0.129,-19.348,55.054,46.021
1.268,-0.186,0.224,22.705,28.259,72.449
0.979,-0.357,0.298,47.791,-0.610,88.745
0.682,-0.432,0.372,59.753,-22.888,92.896
0.411,-0.500,0.434,64.209,-34.119,86.731
0.239,-0.508,0.574,62.500,-32.776,73.120
0.194,-0.384,0.639,56.030,-25.940,57.495
0.050,-0.465,0.607,45.349,-13.794,49.500
0.151,-0.383,0.679,28.564,8.057,39.978
0.266,-0.351,0.648,13.000,27.222,31.860
0.403,-0.377,0.584,-1.343,41.809,21.667
0.476,-0.216,0.532,-14.526,53.650,4.456
0.541,-0.085,0.476,-22.400,62.927,-7.507
0.662,-0.087,0.371,-22.888,70.007,-13.550
0.826,-0.073,0.311,-20.569,78.064,-23.682
0.888,0.128,0.355,-20.020,83.069,-30.029
1.109,0.050,0.381,-13.977,78.003,-19.470
1.217,0.067,0.392,-6.897,62.988,-13.123
1.220,0.005,0.384,-0.366,42.969,-4.639
1.181,-0.047,0.389,5.554,22.888,0.366
1.099,0.031,0.413,8.301,7.263,5.310
1.060,-0.077,0.348,11.292,-4.150,16.052
0.992,-0.015,0.330,9.094,-6.470,20.874
0.964,0.015,0.328,5.920,-3.113,25.391
0.986,-0.006,0.322,4.578,1.892,28.931
0.984,0.002,0.336,3.723,7.141,28.259
0.992,-0.002,0.361,3.845,10.498,25.635
1.016,-0.040,0.396,5.859,11.169,22.278
1.046,-0.085,0.417,6.958,9.644,19.226
1.071,-0.113,0.408,6.287,5.737,16.968
1.059,-0.117,0.363,3.174,1.221,15.564
1.016,-0.076,0.319,-2.258,-0.732,14.526
0.988,-0.012,0.292,-7.507,0.061,14.587
0.986,0.026,0.273,-10.315,2.441,16.418
0.990,0.041,0.261,-9.888,5.554,17.761
1.002,0.041,0.260,-5.920,8.301,18.738
1.043,-0.013,0.285,-0.671,10.071,21.240
1.078,-0.066,0.311,3.357,9.644,25.208
1.074,-0.070,0.320,5.127,5.676,29.724
1.039,-0.054,0.316,5.371,0.366,34.180
0.987,-0.030,0.302,4.639,-3.235,37.598
0.932,-0.004,0.297,4.822,-3.601,39.063
0.904,0.009,0.296,5.920,-0.854,38.635
0.898,0.037,0.298,6.958,3.601,36.987
0.939,0.044,0.322,7.996,8.240,36.072
0.986,0.018,0.343,7.629,9.705,36.072
1.012,-0.001,0.354,6.348,6.897,34.729
1.031,-0.024,0.359,4.700,2.075,32.104
1.017,-0.054,0.347,2.197,-2.075,29.724
0.996,-0.027,0.356,-2.258,-4.761,28.870
0.969,0.011,0.349,-5.920,-5.859,30.762
0.923,0.035,0.337,-7.507,-4.822,33.997
0.900,0.034,0.334,-6.897,-0.793,36.255
0.890,0.021,0.323,-4.700,4.822,36.560
0.883,0.026,0.316,-3.601,11.353,33.264
0.883,0.049,0.325,-3.723,17.029,28.625
0.900,0.055,0.323,-5.554,19.592,22.888
0.938,0.036,0.307,-10.071,18.311,15.564
0.950,0.074,0.287,-16.907,13.123,8.118
0.941,0.153,0.256,-24.719,5.676,1.465
0.919,0.207,0.213,-30.945,-1.099,-1.404
0.895,0.228,0.183,-34.424,-4.944,0.488
0.865,0.229,0.166,-34.851,-4.395,5.371
0.844,0.239,0.152,-32.410,0.671,11.353
0.828,0.275,0.149,-26.489,8.301,16.968
0.829,0.287,0.158,-17.639,16.357,21.912
0.854,0.236,0.179,-7.812,23.376,26.245
0.870,0.205,0.202,0.183,27.771,28.442
0.886,0.190,0.224,5.249,28.503,27.588
0.916,0.161,0.239,7.324,26.245,24.963
0.941,0.150,0.244,6.592,22.339,21.057
0.981,0.155,0.250,1.709,16.541,17.761
1.010,0.173,0.256,-5.737,7.568,16.052
1.004,0.211,0.251,-13.733,-3.784,15.320
0.977,0.265,0.236,-20.142,-15.503,16.602
0.924,0.317,0.214,-23.499,-24.780,19.348
0.886,0.289,0.189,-23.315,-29.541,23.193
0.842,0.277,0.173,-21.484,-28.748,26.001
0.787,0.309,0.164,-17.456,-23.499,25.635
0.761,0.314,0.152,-11.230,-14.893,23.865
0.761,0.303,0.144,-3.601,-4.456,20.813
0.766,0.297,0.135,3.174,6.714,15.381
0.792,0.272,0.135,7.812,17.273,10.132
0.832,0.267,0.140,9.277,25.635,6.592
0.851,0.320,0.160,7.080,30.212,6.042
0.867,0.342,0.187,3.967,30.273,9.766
0.883,0.320,0.199,0.854,25.574,16.235

1.090,1.374,0.184,-7.263,-31.738,-5.676
1.112,1.501,0.125,-8.911,-44.922,-5.127
1.127,1.632,0.078,-12.451,-58.105,-5.432
1.116,1.820,0.064,-15.869,-72.876,-5.310
1.086,2.068,0.097,-15.930,-88.196,-2.075
1.031,2.297,0.155,-10.315,-104.919,6.775
0.937,2.418,0.161,-0.793,-122.925,18.127
0.780,2.517,0.112,5.798,-138.611,26.306
0.576,2.607,0.043,7.507,-146.851,29.724
0.377,2.683,-0.055,6.714,-143.738,27.893
0.194,2.753,-0.143,2.625,-127.991,23.437
0.084,2.756,-0.169,-5.249,-102.783,16.479
-0.025,2.657,-0.196,-12.085,-76.904,8.179
-0.125,2.524,-0.195,-21.057,-55.420,0.427
-0.211,2.280,-0.144,-30.640,-42.908,-3.296
-0.308,1.978,-0.107,-33.691,-42.297,-7.324
-0.427,1.604,-0.089,-29.602,-55.359,-8.545
-0.558,1.151,-0.109,-15.747,-78.918,-0.793
-0.732,0.591,-0.152,13.489,-101.746,15.503
-1.111,-0.130,-0.078,65.613,-109.375,29.724
-1.599,-1.580,0.281,140.564,-84.961,10.864
-1.508,-3.630,0.616,214.355,-26.978,-71.899
-0.513,-4.000,1.121,233.643,46.265,-197.266
0.585,-4.000,1.601,170.715,111.816,-285.645
1.498,-4.000,1.899,69.763,140.808,-320.679
2.277,-4.000,2.099,-18.555,132.446,-320.801
2.597,-3.365,2.010,-65.674,103.882,-315.735
2.372,-2.476,1.237,-83.374,79.834,-313.843
1.952,-1.624,0.077,-109.070,91.736,-290.161
1.902,-0.991,-0.635,-140.259,147.095,-239.502
2.224,-0.397,-0.673,-155.273,202.576,-167.664
2.564,0.154,-0.373,-130.920,210.083,-106.506
2.703,0.375,-0.090,-69.824,162.476,-64.209
2.525,0.123,-0.019,3.540,80.750,-24.902
2.129,-0.182,0.087,54.871,1.831,19.348
1.604,-0.475,0.168,80.078,-53.589,61.157
1.104,-0.682,0.298,86.548,-80.933,91.858
0.718,-0.763,0.400,79.712,-87.952,110.107
0.297,-0.871,0.429,66.772,-82.031,120.972
0.135,-0.790,0.530,49.255,-66.345,121.155
0.066,-0.693,0.537,35.767,-53.345,113.953
0.014,-0.696,0.535,25.635,-43.518,101.013
-0.081,-0.517,0.530,16.907,-37.231,77.087
-0.111,-0.385,0.524,11.902,-30.640,55.115
-0.043,-0.339,0.499,10.986,-23.315,36.133
0.089,-0.343,0.500,9.888,-15.320,15.625
0.185,-0.235,0.468,5.432,-8.789,-7.202
0.359,-0.173,0.485,-0.977,-0.488,-20.203
0.589,-0.134,0.484,-6.775,5.920,-27.039
0.801,-0.064,0.500,-9.338,9.338,-31.372
0.973,-0.072,0.512,-8.057,10.071,-31.677
1.072,-0.021,0.569,-5.005,8.362,-30.884
1.132,0.008,0.578,-0.061,4.028,-24.353
1.149,-0.063,0.555,5.005,-0.305,-11.719
1.084,-0.053,0.541,6.104,0.244,-2.808
1.028,-0.035,0.534,5.493,4.700,5.554
1.005,-0.045,0.543,5.310,11.841,12.573
0.992,-0.054,0.558,4.700,19.775,15.991
0.976,-0.068,0.571,4.456,26.550,16.724
0.968,-0.089,0.558,4.211,30.945,16.846
0.959,-0.109,0.530,2.991,34.241,15.869
0.963,-0.119,0.502,0.610,37.415,13.489
0.981,-0.130,0.469,-1.343,39.795,10.559
0.990,-0.119,0.437,-3.906,42.114,8.484
1.003,-0.097,0.421,-5.493,43.274,7.690
1.049,-0.064,0.416,-5.981,42.664,9.460
1.089,-0.016,0.402,-5.981,37.903,14.709
1.106,0.000,0.382,-5.127,28.809,22.400
1.108,-0.005,0.367,-2.869,17.822,29.968
1.094,0.001,0.360,-0.244,7.629,36.865
1.076,-0.012,0.355,2.686,-1.831,42.175
1.053,-0.031,0.347,5.615,-9.949,44.861
1.033,-0.046,0.350,7.629,-15.503,44.617
1.005,-0.053,0.356,9.583,-19.226,43.091
0.994,-0.060,0.370,10.315,-20.874,41.626
0.983,-0.076,0.388,10.193,-20.813,41.199
0.975,-0.091,0.409,9.338,-19.409,43.213
0.986,-0.093,0.432,7.812,-17.151,47.913
0.997,-0.120,0.448,7.141,-14.832,52.063
0.975,-0.112,0.443,6.531,-13.123,51.941
0.956,-0.047,0.451,5.188,-10.681,49.255
0.955,-0.015,0.455,4.395,-8.667,47.058
0.971,0.005,0.470,3.906,-7.996,45.227
1.008,0.000,0.488,3.601,-10.071,46.570
1.027,-0.049,0.476,3.174,-15.503,49.072
0.998,-0.074,0.452,2.075,-20.996,49.255
0.959,-0.051,0.445,-0.427,-22.339,48.401
0.934,-0.017,0.446,-1.831,-20.996,47.180
0.911,-0.003,0.429,-1.709,-18.555,46.265
0.880,0.009,0.412,-0.732,-14.587,45.959
0.848,0.045,0.404,-0.366,-8.667,46.082
0.819,0.055,0.391,0.610,-2.502,47.485
0.816,0.046,0.373,1.221,5.127,48.767
0.812,0.099,0.351,1.587,13.306,48.218
0.824,0.143,0.349,1.953,20.447,47.302
0.865,0.143,0.358,2.502,24.231,48.767
0.910,0.129,0.376,2.686,23.132,51.880
0.913,0.127,0.377,2.502,16.602,53.955
0.887,0.134,0.373,1.892,7.568,54.443
0.845,0.123,0.365,2.258,-1.038,54.016
0.790,0.140,0.350,3.235,-6.470,52.368
0.735,0.185,0.332,3.967,-8.057,51.025
0.709,0.231,0.315,4.150,-5.615,50.476
0.698,0.266,0.299,4.272,-0.488,49.744
0.706,0.269,0.296,2.991,5.981,48.889
0.736,0.259,0.301,0.732,11.169,47.729
0.787,0.255,0.315,-2.197,13.611,46.204
0.827,0.250,0.328,-5.310,10.437,44.678
0.838,0.284,0.325,-7.507,2.930,42.725
0.815,0.347,0.328,-7.568,-6.042,41.077
0.787,0.347,0.327,-5.432,-14.038,41.748
0.762,0.350,0.326,-1.709,-19.897,43.030
0.725,0.384,0.332,2.075,-22.156,43.274
0.695,0.397,0.336,5.615,-21.484,43.396
0.685,0.387,0.340,8.057,-18.494,43.579
0.681,0.357,0.341,8.545,-14.282,42.725
0.671,0.331,0.333,6.836,-9.583,39.551
0.663,0.330,0.325,3.662,-4.761,34.912
0.650,0.345,0.322,-0.610,-0.793,30.823

0.981,1.961,0.063,5.981,-5.127,-39.429
0.931,2.333,0.017,4.822,-7.690,-38.574
0.871,2.682,-0.036,6.042,-13.428,-31.677
0.812,2.914,-0.105,7.629,-24.170,-22.461
0.708,2.876,-0.252,8.789,-41.260,-16.479
0.603,2.827,-0.431,1.343,-63.416,-17.883
0.506,2.872,-0.554,-12.268,-86.060,-28.381
0.412,2.907,-0.608,-20.813,-103.943,-42.419
0.267,2.898,-0.638,-22.766,-115.051,-51.880
0.112,2.683,-0.666,-19.470,-118.835,-54.321
-0.125,2.324,-0.656,-11.902,-115.295,-51.453
-0.372,1.860,-0.543,-1.648,-102.966,-46.387
-0.550,1.312,-0.380,13.123,-86.121,-42.542
-0.657,0.700,-0.098,32.715,-70.984,-43.274
-0.683,0.122,0.129,55.542,-67.261,-51.819
-0.756,-0.408,0.256,80.139,-69.031,-57.983
-0.874,-1.022,0.357,107.422,-58.472,-56.946
-0.923,-1.829,0.450,137.207,-22.034,-60.059
-0.768,-2.828,0.605,162.476,43.274,-63.904
-0.246,-3.741,0.817,174.500,115.540,-72.144
0.271,-4.000,1.004,164.795,170.105,-106.995
0.913,-4.000,1.173,137.146,207.092,-166.687
1.758,-4.000,1.336,89.355,223.511,-236.023
2.405,-4.000,1.439,23.437,210.449,-291.870
2.612,-3.097,1.349,-42.419,168.396,-313.660
2.468,-1.920,0.962,-92.224,122.864,-300.415
2.193,-1.095,0.588,-120.117,104.736,-255.493
1.987,-0.602,0.251,-128.174,120.056,-195.435
1.915,-0.344,0.057,-119.629,156.799,-136.841
1.939,-0.238,-0.011,-101.624,195.190,-86.548
1.949,-0.178,-0.017,-79.895,215.759,-41.504
1.961,-0.071,0.056,-54.504,210.266,-3.784
1.924,-0.049,0.215,-25.269,174.561,34.485
1.741,-0.270,0.234,8.850,113.342,71.594
1.458,-0.363,0.277,34.546,46.997,93.262
1.141,-0.466,0.295,53.711,-10.681,103.821
0.934,-0.474,0.357,65.796,-56.824,101.990
0.700,-0.594,0.304,75.989,-91.187,97.717
0.475,-0.719,0.280,75.928,-105.957,88.135
0.307,-0.706,0.281,67.810,-105.347,73.975
0.253,-0.650,0.319,55.481,-92.163,61.279
0.301,-0.592,0.303,42.542,-74.402,50.720
0.351,-0.521,0.283,29.419,-54.871,40.466
0.433,-0.401,0.295,18.005,-36.377,31.189
0.526,-0.283,0.305,11.230,-21.667,24.475
0.617,-0.191,0.320,11.536,-11.414,18.127
0.693,-0.104,0.343,16.724,-5.188,13.184
0.788,-0.077,0.375,25.330,-2.319,11.475
0.879,-0.094,0.392,34.363,-2.686,11.536
0.940,-0.131,0.410,40.527,-5.737,12.024
0.996,-0.181,0.432,42.786,-8.972,12.573
1.055,-0.176,0.500,42.053,-12.268,11.536
1.108,-0.117,0.564,40.527,-19.653,11.719
1.171,-0.167,0.543,38.513,-31.677,19.409
1.165,-0.261,0.508,33.020,-40.527,30.273
1.112,-0.228,0.530,24.109,-41.931,37.109
1.067,-0.169,0.533,17.212,-38.391,43.274
1.037,-0.196,0.518,13.428,-29.907,50.049
0.998,-0.229,0.509,9.399,-17.334,54.626
0.974,-0.230,0.493,4.456,-3.174,55.725
0.961,-0.232,0.476,-0.122,10.681,54.321
0.971,-0.217,0.466,-4.333,22.827,51.453
0.990,-0.196,0.442,-8.118,31.433,48.157
1.010,-0.141,0.415,-11.108,36.926,43.457
1.036,-0.107,0.391,-13.123,39.307,39.612
1.074,-0.121,0.375,-15.259,39.001,37.720
1.096,-0.127,0.360,-16.968,36.011,37.109
1.097,-0.100,0.362,-18.250,30.762,38.452
1.091,-0.085,0.358,-17.212,23.987,41.809
1.062,-0.091,0.335,-13.611,16.724,45.715
1.009,-0.072,0.306,-9.094,11.597,48.950
0.966,-0.049,0.274,-3.845,10.498,50.659
0.936,-0.042,0.250,1.465,13.672,51.208
0.937,-0.028,0.239,4.822,19.226,51.819
0.951,-0.006,0.236,6.287,23.560,52.612
0.951,-0.007,0.229,7.141,25.085,53.650
0.944,-0.024,0.227,6.958,25.208,54.626
0.942,-0.039,0.231,6.042,24.902,55.908
0.958,-0.067,0.240,4.700,24.536,58.044
0.977,-0.079,0.245,1.465,23.010,61.340
0.985,-0.074,0.250,-2.075,20.203,63.843
0.972,-0.038,0.248,-4.456,17.395,64.697
0.937,0.024,0.242,-5.554,15.564,64.575
0.925,0.059,0.247,-5.554,14.343,65.918
0.921,0.047,0.246,-5.432,12.939,68.420
0.950,0.024,0.238,-8.728,10.803,72.632
0.965,0.043,0.236,-15.198,6.592,77.393
0.975,0.062,0.230,-23.010,0.244,81.055
0.957,0.077,0.218,-30.823,-7.141,83.801
0.928,0.070,0.194,-36.316,-14.832,84.290
0.886,0.100,0.165,-39.795,-20.447,81.665
0.820,0.186,0.150,-41.992,-22.705,77.515
0.759,0.260,0.140,-40.894,-21.729,73.669
0.726,0.294,0.144,-36.133,-17.700,70.129
0.695,0.328,0.154,-28.198,-10.925,65.491
0.665,0.342,0.157,-19.958,-2.502,60.669
0.656,0.337,0.151,-14.221,7.385,57.739
0.669,0.325,0.143,-12.817,17.517,57.983
0.715,0.316,0.123,-15.625,24.536,59.143
0.754,0.355,0.119,-20.325,26.794,57.068
0.780,0.409,0.114,-22.705,24.414,51.880
0.783,0.480,0.109,-22.156,18.066,45.288
0.783,0.556,0.134,-19.531,10.132,40.344
0.793,0.566,0.158,-13.611,1.343,37.903
0.775,0.577,0.165,-5.615,-5.859,36.011
0.720,0.601,0.184,0.427,-10.132,35.828
0.692,0.548,0.185,4.822,-11.475,39.185
0.646,0.512,0.159,5.981,-8.850,42.542
0.597,0.505,0.144,3.662,-2.625,44.678
0.597,0.476,0.122,-0.366,5.737,45.349
0.619,0.442,0.096,-3.662,14.160,41.748
0.622,0.480,0.066,-7.019,21.606,32.898
0.639,0.524,0.056,-9.827,26.794,23.315
0.702,0.536,0.056,-10.315,28.687,15.259
0.745,0.594,0.075,-8.911,27.466,7.568
0.765,0.668,0.107,-5.493,21.729,2.563
0.777,0.677,0.121,0.427,12.512,1.282
0.747,0.653,0.125,7.690,2.625,0.549
0.724,0.612,0.132,14.160,-4.761,-0.610

0.785,1.822,-0.212,-14.587,30.151,-56.458
0.746,2.100,-0.229,-11.414,25.391,-57.312
0.758,2.415,-0.210,-6.348,17.700,-52.673
0.764,2.636,-0.241,2.869,3.662,-46.936
0.719,2.696,-0.319,11.841,-13.855,-41.321
0.638,2.634,-0.401,16.174,-30.518,-35.095
0.535,2.518,-0.426,13.062,-42.297,-28.198
0.441,2.404,-0.423,3.906,-48.401,-20.996
0.356,2.241,-0.419,-8.972,-49.133,-16.113
0.286,2.055,-0.385,-24.231,-44.922,-15.808
0.204,1.903,-0.345,-38.757,-42.297,-19.836
0.143,1.782,-0.316,-48.950,-47.913,-23.987
0.104,1.656,-0.252,-51.208,-63.538,-28.076
0.004,1.486,-0.158,-38.818,-87.219,-34.241
-0.170,1.208,-0.051,-10.071,-113.892,-40.771
-0.402,0.742,0.056,30.151,-132.874,-43.335
-0.628,0.082,0.155,74.646,-131.409,-42.175
-0.769,-0.670,0.267,114.746,-101.379,-40.344
-0.805,-1.513,0.521,147.827,-45.166,-40.100
-0.708,-2.463,0.730,175.781,26.184,-45.227
-0.364,-3.602,0.955,203.064,105.957,-72.388
0.262,-4.000,1.220,210.388,192.017,-136.047
1.073,-4.000,1.436,170.715,263.306,-213.440
1.928,-4.000,1.594,87.891,294.861,-277.039
2.821,-4.000,1.618,-13.489,280.823,-313.660
3.273,-3.455,1.328,-116.394,225.891,-317.200
3.014,-2.139,0.658,-203.430,158.447,-293.457
2.422,-0.973,-0.059,-258.850,122.559,-248.047
1.983,-0.170,-0.642,-274.353,137.573,-188.477
1.749,0.086,-1.024,-245.850,187.195,-124.512
1.674,0.123,-1.204,-190.063,240.173,-68.298
1.807,0.284,-1.070,-126.648,271.057,-27.039
1.996,0.318,-0.755,-58.533,261.902,3.845
2.105,0.148,-0.429,12.817,207.092,32.349
2.007,-0.204,-0.191,74.646,118.896,57.617
1.776,-0.413,-0.024,117.371,20.935,67.688
1.417,-0.520,-0.000,144.714,-67.078,72.327
1.137,-0.590,0.131,154.724,-129.761,82.031
1.019,-0.698,0.208,152.100,-171.997,96.436
0.840,-0.807,0.275,136.597,-201.782,103.455
0.628,-0.823,0.298,110.779,-220.764,100.525
0.379,-0.800,0.300,79.590,-225.098,92.163
0.200,-0.747,0.264,49.438,-210.205,80.872
0.099,-0.650,0.211,23.987,-176.086,67.444
0.089,-0.542,0.179,4.700,-128.113,53.345
0.140,-0.345,0.156,-8.057,-76.172,39.063
0.262,-0.201,0.170,-14.160,-27.527,33.447
0.489,-0.130,0.179,-14.221,10.620,33.569
0.646,-0.089,0.179,-9.583,36.499,30.884
0.808,0.003,0.246,-4.150,51.147,23.804
1.019,0.094,0.372,1.892,52.002,19.714
1.137,-0.016,0.328,11.353,37.170,18.616
1.201,0.111,0.440,14.404,16.602,12.878
1.249,0.079,0.430,17.029,-10.803,17.883
1.267,0.069,0.435,18.372,-39.001,22.400
1.213,0.063,0.394,17.029,-64.026,28.198
1.141,0.081,0.367,13.367,-82.458,34.363
1.078,0.065,0.349,9.888,-93.323,40.527
1.016,0.033,0.334,8.545,-96.924,44.067
0.941,0.005,0.312,8.606,-92.773,45.288
0.877,0.003,0.297,8.667,-80.933,44.922
0.838,0.005,0.290,8.728,-62.927,43.640
0.826,0.024,0.294,8.606,-41.809,41.077
0.849,0.026,0.292,9.033,-22.217,36.560
0.917,-0.014,0.295,8.911,-6.836,31.677
0.991,-0.039,0.310,7.324,3.052,25.513
1.030,-0.037,0.314,5.615,6.958,18.372
1.068,-0.043,0.306,4.333,5.310,12.146
1.102,-0.034,0.295,4.333,-0.488,6.775
1.104,0.016,0.288,5.859,-6.958,3.296
1.077,0.042,0.277,7.141,-12.634,5.554
1.053,0.036,0.265,7.935,-17.029,14.648
1.021,0.021,0.263,8.423,-18.005,25.513
0.978,0.038,0.249,7.568,-14.832,35.767
0.952,0.052,0.243,5.798,-9.338,46.082
0.936,0.033,0.236,5.005,-4.028,54.932
0.935,0.024,0.234,4.578,0.488,59.875
0.928,0.017,0.234,5.615,3.052,60.242
0.923,0.007,0.226,7.507,3.479,58.105
0.930,-0.024,0.224,9.521,3.113,54.565
0.943,-0.018,0.252,11.536,1.953,48.523
0.912,0.044,0.259,14.404,-1.221,44.373
0.910,0.082,0.291,16.846,-3.601,46.387
0.921,0.091,0.289,19.714,-4.761,52.429
0.885,0.124,0.263,20.630,-3.845,57.434
0.851,0.163,0.268,19.104,0.000,60.974
0.829,0.155,0.284,17.639,5.432,63.293
0.847,0.115,0.292,17.090,10.071,63.171
0.884,0.098,0.301,14.832,12.817,59.082
0.897,0.106,0.300,12.939,11.780,53.772
0.901,0.127,0.296,10.803,8.057,49.744
0.911,0.149,0.299,9.094,3.235,47.363
0.908,0.205,0.307,8.545,-2.502,45.532
0.886,0.241,0.309,10.071,-9.155,45.105
0.860,0.231,0.298,12.268,-15.381,47.424
0.820,0.239,0.275,13.550,-19.409,50.537
0.772,0.254,0.248,13.123,-19.897,53.650
0.740,0.255,0.238,11.353,-17.029,56.641
0.720,0.263,0.238,8.850,-12.085,59.204
0.700,0.267,0.233,6.836,-7.141,59.326
0.697,0.260,0.226,5.554,-2.075,56.885
0.696,0.242,0.215,4.272,2.380,52.856
0.686,0.270,0.201,2.625,6.409,48.157
0.656,0.348,0.192,1.099,10.071,44.312
0.632,0.403,0.192,1.709,12.512,43.274
0.638,0.406,0.195,4.272,13.794,45.044
0.644,0.426,0.197,8.057,14.099,46.143
0.631,0.474,0.203,12.756,13.306,45.288
0.633,0.482,0.225,18.860,12.207,44.250
0.646,0.444,0.243,25.574,10.864,42.969
0.662,0.388,0.268,30.212,10.071,41.138
0.682,0.354,0.290,30.457,10.132,40.527
0.708,0.332,0.314,26.489,10.742,41.504
0.741,0.312,0.322,20.874,10.681,42.725
0.742,0.329,0.311,14.526,10.742,41.992
0.753,0.359,0.302,7.690,10.925,40.955
0.790,0.386,0.297,1.160,10.193,40.527
0.834,0.442,0.301,-5.188,6.042,39.490
0.871,0.471,0.309,-8.301,-3.479,37.964

0.830,1.578,0.290,-1.343,-18.555,-9.705
0.884,1.701,0.238,-4.944,-33.813,-4.028
0.905,1.925,0.195,-7.507,-54.199,-2.380
0.871,2.142,0.130,-6.592,-77.026,-2.625
0.772,2.266,0.028,-0.122,-97.900,-3.418
0.653,2.338,-0.067,8.484,-113.464,-4.700
0.544,2.352,-0.135,17.700,-124.939,-8.118
0.448,2.264,-0.179,26.672,-135.193,-13.000
0.310,2.125,-0.221,30.090,-146.912,-16.602
0.137,1.940,-0.255,23.560,-160.583,-16.296
-0.167,1.642,-0.308,6.897,-175.049,-11.475
-0.570,1.227,-0.398,-13.306,-182.556,-5.310
-0.947,0.839,-0.420,-27.527,-175.293,-9.399
-1.193,0.479,-0.277,-22.644,-156.311,-31.616
-1.252,-0.042,0.125,8.362,-136.536,-62.134
-1.155,-0.798,0.577,59.509,-132.568,-96.680
-1.034,-1.794,0.827,109.009,-145.020,-129.944
-0.976,-2.825,0.997,138.000,-160.828,-163.025
-0.932,-3.617,1.124,158.569,-158.630,-214.539
-0.744,-4.000,1.164,172.607,-117.065,-273.499
-0.319,-4.000,1.140,164.612,-39.978,-302.124
0.508,-4.000,1.193,141.785,50.659,-302.185
1.621,-3.868,1.406,111.938,127.869,-287.964
2.431,-2.801,1.590,77.576,158.691,-264.221
2.786,-1.653,1.647,48.401,145.203,-231.079
2.844,-0.863,1.626,28.442,103.516,-177.612
2.670,-0.468,1.543,17.334,46.753,-113.586
2.309,-0.220,1.458,9.460,-5.005,-55.542
1.807,-0.132,1.322,4.272,-37.415,-7.141
1.325,-0.280,1.148,1.343,-47.485,34.912
0.942,-0.457,0.998,-5.493,-39.673,69.824
0.663,-0.551,0.926,-15.381,-23.804,92.224
0.396,-0.612,0.843,-22.583,-12.512,102.722
0.124,-0.609,0.742,-24.597,-7.935,102.966
-0.092,-0.598,0.652,-22.522,-4.944,92.834
-0.332,-0.469,0.519,-18.555,0.916,72.205
-0.368,-0.324,0.580,-15.137,15.686,55.054
-0.147,-0.318,0.537,-7.568,29.541,39.368
0.008,-0.253,0.613,-1.526,37.720,16.602
0.159,-0.188,0.651,2.808,37.231,-4.150
0.307,-0.196,0.707,7.507,32.959,-19.714
0.422,-0.145,0.771,9.277,29.419,-30.579
0.540,-0.161,0.820,10.437,26.184,-31.921
0.656,-0.199,0.833,10.925,25.269,-29.968
0.721,-0.201,0.834,8.911,28.320,-27.283
0.772,-0.213,0.837,5.554,35.706,-22.339
0.824,-0.205,0.863,3.235,44.617,-17.151
0.879,-0.174,0.893,2.075,51.636,-11.169
0.909,-0.178,0.887,1.343,53.833,-2.625
0.900,-0.191,0.883,-0.061,54.382,7.019
0.876,-0.233,0.869,-1.526,55.298,16.296
0.847,-0.262,0.866,-4.333,57.678,24.353
0.843,-0.233,0.887,-8.911,59.387,32.715
0.892,-0.256,0.900,-13.306,57.007,42.725
0.877,-0.319,0.850,-16.968,50.781,48.462
0.823,-0.239,0.861,-22.583,44.922,48.035
0.800,-0.220,0.804,-25.696,37.781,48.767
0.795,-0.200,0.758,-27.954,32.471,49.072
0.787,-0.151,0.735,-29.114,28.870,47.791
0.795,-0.142,0.718,-26.306,24.841,47.180
0.807,-0.141,0.717,-20.203,19.958,46.204
0.813,-0.153,0.719,-13.000,14.954,45.715
0.805,-0.194,0.702,-5.981,9.521,48.584
0.777,-0.219,0.682,-1.404,6.592,53.772
0.734,-0.151,0.685,1.465,6.714,59.204
0.696,-0.104,0.660,4.272,7.690,65.979
0.680,-0.094,0.636,7.019,9.644,71.411
0.653,-0.083,0.633,7.202,13.428,73.364
0.625,-0.054,0.642,6.104,16.479,72.876
0.624,-0.046,0.653,4.089,17.212,71.411
0.630,-0.057,0.650,2.258,16.113,67.749
0.621,-0.036,0.631,0.916,15.686,60.852
0.641,-0.038,0.631,-0.305,17.029,53.162
0.684,-0.070,0.636,-1.709,19.958,47.485
0.705,-0.067,0.638,-3.479,23.010,44.739
0.721,-0.052,0.646,-6.348,26.306,45.532
0.725,-0.058,0.638,-8.606,29.541,49.133
0.700,-0.028,0.611,-10.620,33.447,53.955
0.669,0.007,0.592,-12.390,39.001,58.289
0.651,0.024,0.570,-12.695,46.143,60.547
0.642,0.061,0.554,-11.780,54.260,59.814
0.682,0.094,0.562,-10.437,61.890,57.800
0.777,0.121,0.581,-9.949,63.782,57.007
0.861,0.138,0.602,-9.949,56.396,56.091
0.896,0.131,0.595,-10.132,41.199,55.054
0.891,0.106,0.573,-11.047,22.766,54.504
0.868,0.072,0.554,-12.573,6.042,54.443
0.831,0.037,0.528,-14.465,-6.104,54.565
0.775,0.025,0.500,-17.151,-12.146,56.030
0.724,0.039,0.476,-20.569,-11.475,59.387
0.703,0.100,0.457,-22.217,-5.432,62.561
0.662,0.188,0.433,-20.813,3.479,62.988
0.621,0.263,0.413,-16.846,13.794,62.805
0.613,0.310,0.401,-11.414,23.865,63.110
0.623,0.326,0.401,-4.272,32.410,63.171
0.665,0.314,0.427,4.150,38.574,62.195
0.704,0.305,0.454,12.695,41.443,61.157
0.744,0.275,0.484,20.264,38.757,62.073
0.826,0.201,0.527,25.085,30.457,65.125
0.859,0.152,0.545,26.489,16.785,67.810
0.824,0.149,0.533,24.658,0.854,69.092
0.766,0.181,0.517,20.325,-14.038,70.557
0.697,0.210,0.489,15.198,-25.085,71.228
0.626,0.228,0.450,10.437,-30.334,70.496
0.583,0.259,0.437,6.104,-29.846,67.566
0.523,0.314,0.422,3.113,-24.475,61.707
0.481,0.369,0.404,0.977,-15.503,54.199
0.478,0.391,0.401,-0.244,-5.005,46.875
0.537,0.363,0.405,-1.404,6.104,39.246
0.598,0.372,0.414,-2.930,15.625,31.006
0.669,0.391,0.438,-5.066,21.301,26.306
0.724,0.408,0.454,-8.301,22.949,28.137
0.771,0.411,0.469,-12.329,20.142,35.095
0.791,0.423,0.482,-16.052,13.062,43.030
0.769,0.427,0.478,-18.311,3.601,47.363
0.727,0.443,0.456,-17.517,-5.615,46.387
0.638,0.501,0.428,-14.404,-12.024,41.260
0.561,0.538,0.409,-9.460,-14.893,36.072
0.510,0.542,0.391,-3.235,-13.794,31.006

0.881,1.124,0.749,-4.761,-72.144,10.193
0.928,1.280,0.751,-7.019,-91.980,10.315
0.915,1.436,0.677,-5.981,-114.197,9.949
0.896,1.613,0.576,-2.502,-132.141,9.644
0.930,1.832,0.483,3.418,-143.311,10.376
0.994,2.047,0.367,12.085,-153.076,10.925
1.098,2.305,0.284,21.606,-163.879,11.108
1.242,2.557,0.206,30.823,-183.777,12.512
1.293,2.715,0.066,41.138,-219.727,14.221
1.303,2.837,-0.134,48.828,-267.090,15.320
1.344,2.918,-0.374,49.866,-322.266,15.137
1.348,2.907,-0.671,46.936,-385.193,10.193
1.366,2.860,-0.967,45.227,-450.684,2.686
1.266,2.869,-1.159,50.476,-512.634,-4.639
1.149,2.697,-1.280,67.688,-567.627,-6.287
0.923,2.284,-1.396,88.257,-610.229,4.883
0.423,1.692,-1.504,97.534,-634.888,30.151
-0.268,1.013,-1.599,92.102,-633.057,61.157
-1.058,0.291,-1.620,74.402,-593.384,91.858
-1.732,-0.417,-1.471,50.476,-516.663,121.216
-2.177,-1.111,-1.256,34.363,-416.870,132.324
-2.264,-1.450,-0.826,35.950,-311.340,122.070
-2.199,-2.116,-0.615,65.979,-224.487,103.516
-2.060,-2.622,-0.226,111.084,-155.334,67.383
-2.019,-3.027,0.162,166.321,-112.427,34.302
-1.902,-3.450,0.696,222.412,-83.740,19.653
-1.581,-3.788,1.255,270.203,-69.946,23.560
-1.392,-3.720,1.592,297.974,-72.632,33.875
-1.298,-3.348,1.803,300.049,-76.538,49.988
-1.251,-2.985,1.830,289.795,-71.350,56.213
-1.147,-2.651,1.731,270.264,-40.771,39.978
-0.948,-2.340,1.535,233.398,22.949,2.625
-0.528,-1.982,1.451,175.110,114.746,-47.668
0.021,-1.559,1.545,105.042,206.848,-87.463
0.728,-1.074,1.669,41.626,266.846,-101.746
1.277,-0.746,1.643,-7.080,279.602,-93.079
1.421,-0.606,1.563,-47.241,254.517,-69.031
1.182,-0.558,1.369,-85.571,205.505,-27.466
0.713,-0.621,1.074,-115.356,151.978,25.757
0.247,-0.525,0.966,-130.432,116.028,71.228
-0.239,-0.391,0.829,-122.864,94.788,98.755
-0.704,-0.400,0.775,-101.013,86.975,111.694
-0.941,-0.458,0.738,-75.195,88.013,110.901
-1.027,-0.488,0.721,-53.162,94.604,96.375
-1.011,-0.527,0.743,-36.926,104.248,75.867
-0.923,-0.572,0.768,-23.804,111.511,51.575
-0.793,-0.525,0.819,-13.733,115.784,27.466
-0.639,-0.487,0.849,-8.850,115.601,14.587
-0.516,-0.463,0.846,-9.399,111.633,13.123
-0.471,-0.381,0.853,-15.137,106.934,17.273
-0.404,-0.321,0.898,-21.790,102.173,23.560
-0.312,-0.305,0.959,-24.902,94.727,26.733
-0.264,-0.270,0.975,-25.330,83.923,25.208
-0.249,-0.260,0.893,-25.757,72.693,22.461
-0.024,-0.123,1.290,-26.489,75.867,15.625
-0.065,-0.095,1.117,-26.978,54.932,20.691
0.002,-0.282,1.093,-23.193,17.029,36.011
0.007,-0.285,1.015,-27.161,-2.441,39.429
-0.132,-0.178,1.056,-31.616,-17.151,39.063
-0.212,-0.133,0.999,-34.302,-24.719,39.978
-0.285,-0.200,0.957,-32.532,-24.963,45.288
-0.362,-0.168,0.941,-30.701,-15.869,46.021
-0.406,-0.143,0.930,-27.100,-3.235,46.692
-0.394,-0.164,0.913,-23.254,12.329,48.279
-0.350,-0.145,0.960,-21.240,28.198,47.852
-0.267,-0.135,0.983,-20.996,37.231,46.570
-0.206,-0.130,1.003,-21.484,38.330,46.265
-0.157,-0.145,1.020,-22.705,33.630,47.058
-0.148,-0.168,0.998,-24.780,24.292,47.058
-0.167,-0.138,0.991,-28.137,15.076,44.922
-0.169,-0.111,0.984,-32.104,7.263,43.396
-0.175,-0.119,0.966,-36.255,-0.427,42.053
-0.195,-0.110,0.956,-39.124,-6.348,38.940
-0.239,-0.069,0.933,-40.405,-9.766,34.912
-0.281,-0.014,0.904,-40.405,-10.010,30.396
-0.305,0.022,0.862,-39.001,-6.226,26.428
-0.306,0.035,0.830,-36.560,1.648,22.705
-0.283,0.037,0.806,-33.997,12.878,19.409
-0.242,0.022,0.798,-31.921,24.597,16.968
-0.181,0.008,0.799,-30.151,35.583,15.442
-0.103,-0.008,0.807,-28.137,44.556,14.465
-0.046,-0.028,0.808,-25.574,50.049,14.160
0.008,-0.061,0.826,-24.353,53.345,14.954
0.068,-0.068,0.844,-24.353,52.734,16.541
0.088,-0.044,0.856,-25.024,47.974,17.151
0.111,-0.044,0.872,-24.719,40.466,17.395
0.116,-0.036,0.872,-23.437,31.128,16.907
0.090,-0.033,0.867,-22.034,21.301,15.442
0.057,-0.028,0.849,-20.447,14.221,13.916
0.028,-0.008,0.824,-19.409,11.414,12.756
0.009,0.006,0.811,-19.653,12.329,12.939
-0.008,0.008,0.803,-20.569,15.076,13.794
-0.053,0.043,0.786,-21.301,18.921,14.587
-0.082,0.073,0.776,-20.630,24.780,14.893
-0.108,0.088,0.764,-17.761,32.410,13.977
-0.143,0.106,0.754,-13.245,42.358,11.475
-0.154,0.112,0.746,-9.338,54.565,8.301
-0.128,0.107,0.748,-6.042,67.932,5.920
-0.057,0.085,0.772,-4.822,80.627,3.418
0.053,0.057,0.808,-5.554,88.745,0.977
0.143,0.085,0.829,-9.216,90.210,-2.014
0.216,0.116,0.845,-14.954,85.266,-4.150
0.269,0.135,0.852,-22.461,75.256,-5.981
0.293,0.153,0.850,-29.785,62.561,-6.897
0.284,0.175,0.847,-35.828,49.683,-7.446
0.272,0.193,0.844,-39.490,39.734,-7.202
0.217,0.229,0.821,-41.626,33.020,-6.958
0.145,0.249,0.787,-42.542,30.701,-6.042
0.096,0.251,0.770,-42.419,33.875,-5.127
0.109,0.250,0.786,-40.161,41.931,-6.958
0.154,0.267,0.825,-36.499,50.232,-12.756
0.210,0.280,0.863,-32.959,54.688,-18.433
0.255,0.315,0.891,-30.945,54.626,-21.301
0.283,0.338,0.895,-29.968,51.453,-22.034
0.327,0.325,0.907,-29.968,46.936,-21.423
0.320,0.331,0.893,-30.945,42.114,-21.118
0.310,0.336,0.866,-33.081,38.574,-21.362
0.321,0.358,0.842,-35.461,38.147,-22.827
0.295,0.399,0.822,-37.659,39.063,-25.330

0.534,1.477,0.832,19.836,-0.854,0.366
0.572,1.620,0.845,21.973,-12.207,5.554
0.585,1.752,0.838,26.978,-26.428,12.207
0.570,1.853,0.825,34.668,-40.100,18.982
0.546,1.962,0.803,43.640,-51.758,24.292
0.484,2.110,0.745,53.345,-62.317,26.855
0.374,2.301,0.652,63.293,-69.641,29.114
0.307,2.565,0.555,72.449,-73.486,33.752
0.360,2.802,0.440,81.177,-74.829,37.231
0.448,2.962,0.290,87.402,-77.087,34.851
0.495,3.030,0.137,89.111,-83.618,28.809
0.526,3.052,-0.001,85.999,-93.628,23.987
0.486,3.036,-0.137,79.651,-107.849,21.606
0.404,2.911,-0.232,70.679,-125.793,22.400
0.242,2.598,-0.319,62.134,-146.484,26.917
-0.010,2.163,-0.470,54.077,-168.213,31.494
-0.316,1.631,-0.658,47.180,-187.012,34.973
-0.707,0.974,-0.817,45.044,-198.242,36.682
-1.223,0.217,-0.853,46.753,-198.608,34.241
-1.599,-0.758,-0.589,56.152,-189.331,21.973
-1.519,-1.983,-0.081,72.571,-171.570,0.122
-1.413,-3.057,0.257,81.665,-153.259,-25.635
-1.483,-3.805,0.503,84.229,-129.028,-56.152
-1.475,-4.000,0.862,96.436,-81.116,-92.834
-1.145,-4.000,1.208,127.502,-14.160,-135.315
-0.619,-4.000,1.513,178.406,56.763,-181.885
0.134,-4.000,1.705,228.943,111.267,-219.055
0.803,-3.828,1.740,254.456,134.827,-234.436
1.103,-3.308,1.530,244.812,133.728,-231.812
1.139,-2.643,1.455,204.651,128.906,-205.872
1.217,-2.004,1.526,156.311,126.587,-163.940
1.349,-1.487,1.615,117.004,123.840,-123.840
1.401,-1.101,1.626,85.632,114.929,-91.309
1.380,-0.885,1.614,56.091,97.473,-58.289
1.246,-0.747,1.599,27.161,70.740,-22.217
0.959,-0.680,1.506,0.732,36.865,15.869
0.601,-0.722,1.393,-21.912,5.371,52.185
0.263,-0.760,1.288,-39.673,-19.531,76.294
-0.031,-0.736,1.193,-51.636,-38.818,84.717
-0.251,-0.756,1.065,-58.289,-50.964,83.740
-0.411,-0.772,0.936,-61.279,-53.711,72.876
-0.469,-0.737,0.828,-62.805,-46.875,56.885
-0.414,-0.694,0.740,-62.439,-34.607,42.847
-0.278,-0.658,0.704,-60.730,-21.179,34.668
-0.143,-0.609,0.667,-58.472,-12.085,31.311
-0.061,-0.501,0.666,-55.176,-7.080,29.358
-0.018,-0.444,0.651,-49.500,-3.967,31.372
-0.001,-0.375,0.687,-41.931,-0.732,35.156
0.075,-0.323,0.701,-33.081,2.991,41.504
0.103,-0.310,0.732,-26.001,6.226,47.241
0.223,-0.129,1.120,-19.409,14.954,49.561
0.124,-0.200,0.943,-14.099,-1.404,61.768
0.215,-0.373,0.983,-4.822,-26.794,71.899
0.087,-0.376,0.966,-3.662,-39.734,69.519
-0.054,-0.313,1.012,-3.784,-48.401,63.782
-0.095,-0.314,1.000,-3.235,-52.063,60.608
-0.134,-0.308,0.996,-3.479,-49.194,58.289
-0.145,-0.291,1.016,-4.456,-41.382,54.138
-0.165,-0.269,1.032,-6.042,-32.837,51.392
-0.170,-0.281,1.022,-7.812,-24.536,50.781
-0.179,-0.292,1.021,-10.193,-15.564,48.584
-0.197,-0.277,1.024,-12.817,-6.653,43.396
-0.177,-0.257,1.041,-15.259,2.808,39.551
-0.096,-0.241,1.060,-17.883,10.986,37.598
-0.034,-0.268,1.067,-20.996,14.648,36.255
0.024,-0.281,1.097,-25.269,14.221,33.997
0.079,-0.305,1.109,-30.579,9.399,33.142
0.090,-0.310,1.110,-36.499,3.174,32.532
0.095,-0.297,1.098,-42.419,-1.526,31.921
0.100,-0.299,1.079,-47.058,-3.906,30.762
0.094,-0.300,1.046,-50.293,-3.540,29.358
0.073,-0.251,1.012,-53.040,0.244,28.442
0.081,-0.196,0.987,-54.993,6.653,28.992
0.122,-0.158,0.962,-55.603,12.268,30.945
0.130,-0.132,0.953,-55.725,14.160,32.043
0.148,-0.117,0.957,-54.016,12.146,32.349
0.169,-0.114,0.962,-50.476,6.348,31.616
0.178,-0.126,0.969,-46.021,-1.038,30.029
0.161,-0.132,0.972,-40.466,-8.423,28.442
0.107,-0.087,0.957,-34.912,-14.038,28.076
0.046,-0.073,0.943,-30.334,-15.625,29.297
-0.001,-0.085,0.927,-26.917,-11.719,31.921
-0.042,-0.082,0.921,-25.208,-2.930,33.936
-0.057,-0.087,0.920,-25.146,9.644,35.156
-0.067,-0.098,0.924,-25.513,23.987,35.767
-0.073,-0.109,0.939,-26.550,37.964,35.767
-0.038,-0.115,0.971,-27.649,49.561,32.898
0.034,-0.123,1.013,-29.419,55.725,27.344
0.084,-0.107,1.012,-32.349,54.749,19.897
0.147,-0.076,1.010,-38.086,47.852,13.733
0.215,-0.034,1.000,-45.837,36.560,9.338
0.237,0.010,0.958,-55.054,21.179,6.775
0.224,0.057,0.901,-63.721,5.920,5.737
0.187,0.110,0.841,-70.374,-5.554,5.066
0.115,0.173,0.789,-72.876,-12.024,4.578
0.085,0.209,0.781,-71.350,-13.245,4.700
0.071,0.230,0.779,-64.331,-11.292,4.578
0.006,0.255,0.775,-54.626,-8.301,3.601
-0.039,0.254,0.774,-45.410,-3.662,4.211
-0.052,0.257,0.779,-38.269,2.930,5.066
-0.021,0.243,0.790,-32.532,11.169,3.113
0.039,0.238,0.803,-29.053,19.958,-1.892
0.081,0.256,0.795,-28.442,26.550,-8.179
0.094,0.301,0.774,-31.555,30.334,-12.573
0.124,0.337,0.761,-37.109,32.104,-12.573
0.182,0.345,0.753,-43.030,31.860,-11.169
0.184,0.378,0.738,-47.791,29.968,-12.512
0.169,0.428,0.741,-50.049,27.222,-14.648
0.152,0.482,0.741,-48.218,23.926,-16.602
0.132,0.506,0.733,-42.908,20.081,-18.494
0.111,0.512,0.732,-35.278,16.846,-21.057
0.092,0.515,0.742,-26.367,14.526,-24.109
0.101,0.508,0.760,-17.334,13.000,-26.611
0.088,0.497,0.763,-9.277,11.902,-27.832
0.092,0.468,0.771,-3.540,11.536,-27.832
0.101,0.443,0.779,-0.305,12.817,-27.527
0.116,0.425,0.798,-0.305,15.564,-27.161
0.154,0.400,0.812,-1.282,19.226,-28.931
0.170,0.411,0.827,-4.211,23.682,-34.546

0.312,1.613,0.555,46.326,-100.098,54.321
0.300,1.651,0.444,42.969,-111.084,54.138
0.265,1.707,0.342,39.001,-117.188,52.673
0.181,1.783,0.243,35.828,-119.446,51.331
0.138,1.932,0.133,34.485,-117.920,49.011
0.120,2.126,-0.007,35.461,-113.403,41.138
0.063,2.324,-0.163,39.063,-106.995,30.640
0.029,2.395,-0.326,46.448,-100.098,22.705
-0.066,2.298,-0.500,56.580,-93.933,16.846
-0.180,2.005,-0.580,70.435,-87.585,14.954
-0.240,1.562,-0.604,85.449,-81.421,16.296
-0.330,0.962,-0.540,99.121,-80.139,15.625
-0.457,0.236,-0.369,106.812,-85.327,14.648
-0.609,-0.611,-0.124,105.103,-98.816,13.611
-0.680,-1.557,0.151,98.389,-119.568,2.502
-0.665,-2.499,0.423,92.468,-140.320,-20.569
-0.764,-3.261,0.564,89.722,-157.104,-47.607
-1.095,-3.563,0.745,99.487,-160.461,-71.655
-1.321,-3.390,1.039,126.770,-137.512,-84.778
-1.382,-3.430,1.212,172.485,-93.994,-85.938
-1.345,-3.628,1.359,224.548,-32.715,-95.459
-1.020,-3.465,1.560,255.981,37.598,-116.455
-0.645,-3.077,1.558,249.390,101.257,-137.451
-0.238,-2.627,1.382,209.778,156.677,-148.682
0.252,-2.114,1.307,154.541,204.956,-146.851
0.630,-1.602,1.314,103.271,235.657,-135.071
0.900,-1.154,1.412,68.115,243.469,-110.840
1.090,-0.714,1.534,50.354,228.027,-75.439
1.112,-0.416,1.624,48.035,189.636,-34.851
0.893,-0.454,1.634,51.453,136.719,4.089
0.513,-0.634,1.547,48.218,85.510,36.743
0.045,-0.650,1.452,34.607,50.171,57.251
-0.343,-0.649,1.343,17.151,36.987,71.289
-0.528,-0.682,1.283,1.465,43.762,78.735
-0.626,-0.815,1.098,-9.277,62.378,74.097
-0.658,-0.771,1.031,-22.583,92.041,59.021
-0.559,-0.778,0.907,-33.447,122.498,48.645
-0.305,-0.800,0.897,-41.870,150.818,40.039
0.064,-0.667,0.957,-48.950,162.598,35.400
0.363,-0.581,0.990,-53.467,143.066,38.147
0.534,-0.565,0.966,-53.284,97.717,43.030
0.538,-0.496,0.910,-51.514,42.542,46.936
0.425,-0.428,0.831,-46.753,-7.935,51.392
0.266,-0.394,0.763,-39.612,-43.579,56.091
0.005,-0.545,0.370,-30.273,-57.739,55.847
-0.038,-0.029,1.056,-23.071,-40.894,46.997
-0.002,-0.412,0.844,-9.705,-44.556,64.270
-0.086,-0.468,0.854,2.502,-30.334,65.613
-0.052,-0.462,0.874,4.761,-12.207,63.049
-0.007,-0.434,0.973,4.944,7.812,58.289
0.005,-0.491,0.998,5.615,24.048,56.641
0.036,-0.526,1.014,4.822,36.682,57.251
0.043,-0.542,1.047,1.099,47.974,59.082
0.090,-0.517,1.109,-4.822,57.922,61.523
0.194,-0.501,1.158,-11.902,62.256,65.308
0.249,-0.494,1.164,-20.569,56.824,66.589
0.243,-0.480,1.133,-30.151,45.715,63.843
0.224,-0.421,1.110,-38.574,34.424,59.326
0.206,-0.362,1.073,-44.189,23.499,54.810
0.194,-0.327,1.046,-46.997,13.489,51.880
0.170,-0.276,1.010,-47.363,5.920,49.622
0.102,-0.229,0.982,-45.532,2.563,49.377
0.039,-0.191,0.940,-42.786,4.333,50.537
0.002,-0.189,0.894,-38.330,13.184,50.293
-0.021,-0.201,0.842,-33.936,30.212,47.302
-0.013,-0.196,0.821,-31.921,53.833,42.969
0.102,-0.189,0.839,-32.104,78.674,41.443
0.233,-0.191,0.855,-33.813,95.825,42.053
0.354,-0.181,0.870,-37.537,102.478,43.274
0.446,-0.113,0.876,-42.480,98.145,44.189
0.505,-0.037,0.873,-47.546,85.144,44.617
0.531,0.015,0.847,-51.331,67.383,45.837
0.534,0.049,0.812,-54.199,46.814,47.363
0.499,0.088,0.780,-54.932,25.940,46.265
0.458,0.115,0.767,-52.124,7.629,42.664
0.407,0.139,0.758,-45.532,-6.348,39.063
0.338,0.127,0.740,-38.025,-15.686,37.354
0.289,0.083,0.745,-31.128,-19.958,36.621
0.243,0.080,0.757,-26.367,-18.188,35.767
0.193,0.109,0.773,-23.682,-12.207,35.156
0.191,0.149,0.786,-21.729,-3.845,33.752
0.233,0.179,0.799,-21.484,4.822,31.616
0.299,0.196,0.809,-23.621,10.132,29.358
0.325,0.218,0.802,-27.527,9.033,26.001
0.302,0.264,0.773,-31.616,4.517,21.484
0.287,0.288,0.763,-34.851,0.366,17.273
0.298,0.306,0.770,-36.621,-2.502,14.771
0.300,0.337,0.782,-36.499,-5.798,13.000
0.303,0.329,0.790,-36.072,-8.850,14.282
0.314,0.268,0.786,-35.767,-10.864,17.883
0.279,0.271,0.801,-36.499,-9.949,19.409
0.268,0.285,0.813,-38.818,-7.874,19.470
0.299,0.299,0.800,-42.786,-6.104,17.944
0.303,0.319,0.757,-50.293,-5.371,12.756
0.316,0.331,0.718,-61.279,-5.249,5.859
0.328,0.392,0.667,-72.571,-4.944,-2.502
0.320,0.457,0.639,-79.651,-4.639,-10.132
0.351,0.513,0.645,-81.360,-5.493,-14.526
0.373,0.568,0.651,-78.491,-8.057,-13.672
0.351,0.607,0.651,-71.106,-13.123,-9.705
0.315,0.610,0.657,-60.059,-18.860,-6.226
0.298,0.595,0.665,-47.485,-22.644,-5.676
0.258,0.575,0.671,-34.485,-23.437,-8.728
0.236,0.555,0.705,-22.278,-21.545,-14.648
0.262,0.523,0.753,-13.367,-18.860,-20.325
0.274,0.497,0.783,-9.583,-18.066,-23.376
0.289,0.472,0.811,-10.315,-19.165,-23.987
0.283,0.456,0.826,-13.184,-20.630,-24.902
0.267,0.452,0.839,-16.846,-20.325,-26.489
0.281,0.458,0.858,-20.935,-17.578,-26.917
0.285,0.471,0.873,-23.926,-15.015,-27.222
0.282,0.480,0.884,-25.574,-13.000,-28.442
0.289,0.477,0.894,-25.513,-10.925,-29.480
0.283,0.473,0.894,-24.536,-9.277,-30.579
0.279,0.465,0.889,-23.682,-7.324,-31.921
0.279,0.457,0.881,-22.949,-4.150,-33.508
0.292,0.449,0.865,-22.400,-0.488,-34.668
0.303,0.455,0.845,-23.193,3.662,-35.583
0.318,0.457,0.830,-23.621,7.874,-36.011

0.637,1.215,0.889,35.461,-25.024,9.949
0.678,1.369,0.891,45.227,-35.278,10.498
0.711,1.478,0.880,58.167,-47.546,11.108
0.759,1.524,0.872,73.242,-61.584,11.414
0.831,1.552,0.875,86.487,-77.637,12.634
0.881,1.584,0.888,95.886,-97.229,16.785
0.888,1.607,0.876,102.600,-120.300,24.292
0.864,1.636,0.829,108.948,-142.456,30.701
0.839,1.726,0.775,114.929,-160.522,31.677
0.833,1.784,0.694,120.178,-173.828,27.161
0.793,1.818,0.614,123.047,-183.350,20.020
0.724,1.881,0.521,121.643,-190.186,10.315
0.584,1.952,0.424,114.563,-193.359,1.465
0.423,2.061,0.330,104.248,-191.284,-2.441
0.258,2.210,0.250,91.431,-183.777,-3.784
0.097,2.321,0.177,77.148,-171.143,-2.808
-0.006,2.338,0.084,62.805,-155.212,2.808
-0.150,2.177,0.008,50.598,-136.841,10.193
-0.335,1.869,-0.070,40.161,-117.798,15.930
-0.456,1.518,-0.139,32.410,-97.351,16.846
-0.573,1.116,-0.166,29.114,-75.195,12.634
-0.695,0.628,-0.236,29.114,-54.810,4.700
-0.754,0.093,-0.299,33.142,-39.734,-4.150
-0.793,-0.388,-0.294,46.143,-32.043,-17.029
-0.867,-0.851,-0.243,67.078,-33.569,-31.128
-0.914,-1.429,-0.150,89.355,-44.250,-37.048
-0.958,-2.139,-0.048,107.178,-59.753,-34.912
-0.995,-2.917,0.103,116.333,-73.608,-28.748
-0.984,-3.606,0.264,115.051,-77.881,-18.250
-1.041,-3.993,0.345,102.234,-66.101,-4.272
-1.068,-4.000,0.490,85.693,-29.968,4.272
-0.967,-3.786,0.723,79.285,26.611,2.380
-0.664,-3.166,0.955,86.670,90.881,-5.676
-0.206,-2.582,1.109,105.652,148.499,-19.226
0.198,-2.173,1.193,124.084,188.354,-36.072
0.498,-1.834,1.252,127.258,210.266,-47.852
0.776,-1.527,1.322,115.784,214.111,-48.950
0.972,-1.227,1.442,93.689,199.585,-39.429
1.060,-0.954,1.593,68.481,167.358,-21.912
1.046,-0.766,1.710,47.485,120.361,-0.366
0.883,-0.675,1.708,32.776,64.697,20.081
0.602,-0.681,1.606,19.348,13.489,37.842
0.294,-0.738,1.464,3.235,-22.644,52.246
0.014,-0.759,1.312,-16.846,-40.405,60.181
-0.205,-0.763,1.189,-38.025,-41.016,62.012
-0.354,-0.724,1.059,-56.458,-29.236,57.800
-0.382,-0.698,0.970,-69.641,-9.460,52.002
-0.335,-0.697,0.857,-76.294,12.146,44.067
-0.241,-0.638,0.790,-78.796,34.912,34.180
-0.120,-0.537,0.746,-77.942,53.589,26.245
0.045,-0.498,0.732,-72.754,65.674,21.606
0.216,-0.450,0.756,-65.613,69.519,20.203
0.320,-0.386,0.783,-57.556,63.171,23.437
0.377,-0.351,0.820,-48.706,49.194,31.982
0.392,-0.330,0.855,-37.598,31.555,42.542
0.358,-0.326,0.885,-24.841,14.771,51.758
0.316,-0.378,0.905,-12.451,1.648,58.228
0.308,-0.431,0.960,-4.761,-5.615,61.584
0.254,-0.445,0.935,-2.625,-11.536,64.331
0.295,-0.452,1.232,-3.174,-17.822,68.787
0.274,-0.475,1.196,-5.371,-35.889,70.435
0.205,-0.519,1.207,-11.292,-46.875,67.566
0.100,-0.515,1.174,-16.663,-53.101,61.523
-0.001,-0.412,1.166,-23.010,-50.171,53.345
-0.052,-0.345,1.098,-26.611,-42.725,49.011
-0.082,-0.326,1.062,-27.222,-28.503,46.265
-0.080,-0.285,1.035,-25.757,-11.292,42.664
-0.052,-0.249,1.020,-23.193,3.906,41.321
-0.010,-0.247,1.019,-19.409,15.808,41.382
0.051,-0.256,1.027,-15.259,23.437,41.382
0.076,-0.213,1.028,-13.672,26.428,41.199
0.101,-0.222,1.049,-14.771,25.391,42.847
0.159,-0.253,1.058,-17.456,21.240,44.678
0.163,-0.258,1.042,-21.729,14.343,43.823
0.155,-0.245,1.025,-28.137,7.935,41.687
0.133,-0.206,0.995,-34.424,2.625,39.063
0.096,-0.155,0.970,-39.185,0.244,37.781
0.082,-0.106,0.952,-41.504,0.549,38.208
0.048,-0.071,0.915,-41.382,3.235,38.818
0.020,-0.036,0.884,-39.490,9.094,39.001
0.040,-0.009,0.871,-37.354,17.944,38.513
0.076,0.003,0.864,-34.546,27.771,37.415
0.097,0.019,0.852,-32.166,36.926,36.743
0.138,0.028,0.852,-31.128,44.128,36.865
0.198,0.015,0.868,-30.884,48.218,36.865
0.255,0.001,0.877,-31.067,47.668,36.804
0.277,0.003,0.875,-33.142,41.626,36.499
0.280,0.005,0.874,-35.217,32.166,34.912
0.275,0.020,0.871,-36.621,20.630,32.104
0.269,0.024,0.870,-36.499,7.935,27.283
0.258,0.030,0.876,-35.156,-3.845,21.851
0.219,0.054,0.871,-33.691,-14.465,17.761
0.175,0.072,0.858,-31.982,-23.376,14.954
0.125,0.094,0.848,-29.175,-27.954,12.817
0.087,0.121,0.837,-25.818,-27.161,10.437
0.072,0.146,0.831,-23.193,-21.851,8.179
0.087,0.128,0.832,-22.156,-14.099,7.019
0.107,0.101,0.817,-22.705,-5.798,5.310
0.118,0.101,0.801,-25.269,2.930,1.953
0.160,0.089,0.800,-29.541,11.169,-1.709
0.226,0.073,0.817,-33.081,16.846,-4.944
0.288,0.096,0.829,-35.828,17.883,-8.972
0.304,0.148,0.826,-37.048,13.428,-12.268
0.273,0.183,0.812,-36.926,5.676,-13.062
0.230,0.207,0.787,-35.278,-2.075,-11.414
0.156,0.254,0.759,-32.593,-6.165,-9.888
0.101,0.285,0.741,-28.870,-5.493,-9.644
0.064,0.310,0.732,-23.926,-0.427,-11.353
0.057,0.340,0.728,-19.287,7.507,-14.648
0.092,0.342,0.729,-16.052,16.235,-18.494
0.136,0.360,0.736,-14.709,23.987,-23.254
0.210,0.371,0.761,-16.052,28.687,-25.696
0.310,0.345,0.786,-19.531,27.405,-25.146
0.331,0.356,0.778,-24.719,21.423,-24.719
0.310,0.393,0.780,-29.968,14.343,-24.353
0.268,0.445,0.779,-35.950,7.812,-22.827
0.230,0.474,0.772,-39.368,2.563,-20.935
0.189,0.499,0.769,-40.527,0.671,-19.043
0.174,0.491,0.771,-39.612,1.892,-17.090

0.293,1.620,1.006,-14.038,28.015,21.545
0.455,1.822,1.025,3.723,38.513,16.724
0.658,1.959,1.032,22.095,42.542,10.193
0.890,2.029,1.049,37.842,37.354,4.700
1.068,2.093,1.040,47.241,20.203,4.822
1.155,2.136,0.995,50.720,-8.240,9.827
1.162,2.194,0.913,50.476,-41.321,15.808
1.029,2.256,0.801,47.363,-73.547,21.423
0.800,2.354,0.659,42.664,-100.403,27.222
0.558,2.544,0.515,39.307,-116.394,30.212
0.281,2.661,0.316,39.246,-119.751,30.579
-0.048,2.732,0.112,37.476,-111.816,33.630
-0.367,2.714,-0.081,32.715,-93.445,42.114
-0.606,2.539,-0.235,29.846,-66.223,51.270
-0.771,2.208,-0.351,32.288,-33.203,54.321
-0.890,1.790,-0.428,40.588,-0.549,46.631
-0.903,1.253,-0.380,56.580,27.039,28.992
-0.834,0.676,-0.243,77.087,42.419,7.080
-0.769,0.062,-0.070,94.177,38.086,-14.038
-0.713,-0.614,0.114,104.370,16.052,-35.706
-0.619,-1.299,0.253,104.126,-12.573,-60.913
-0.389,-1.981,0.412,89.905,-40.894,-86.182
-0.193,-2.603,0.479,60.669,-64.392,-100.037
-0.246,-3.162,0.434,23.743,-73.486,-100.647
-0.413,-3.532,0.435,-5.981,-48.584,-96.680
-0.416,-3.656,0.657,-15.686,7.751,-94.604
-0.192,-3.597,1.027,10.986,75.928,-100.708
0.243,-3.316,1.339,70.068,133.301,-117.920
0.759,-2.718,1.489,137.146,168.945,-138.428
1.164,-2.187,1.412,184.937,182.678,-155.579
1.379,-1.787,1.189,197.876,181.396,-157.837
1.550,-1.438,1.044,179.016,170.166,-138.000
1.688,-1.129,1.073,141.785,147.095,-100.159
1.686,-0.900,1.176,98.328,109.131,-53.589
1.517,-0.717,1.281,58.044,58.716,-10.620
1.210,-0.545,1.392,31.433,5.615,22.705
0.832,-0.409,1.469,28.076,-44.556,49.561
0.415,-0.497,1.365,39.490,-88.928,71.960
0.025,-0.589,1.233,46.082,-116.455,81.360
-0.245,-0.673,1.140,40.833,-124.084,84.412
-0.354,-0.713,1.090,27.588,-118.408,80.688
-0.361,-0.723,1.050,9.705,-107.605,71.411
-0.325,-0.705,0.986,-9.583,-96.619,59.509
-0.274,-0.690,0.908,-28.564,-86.243,50.659
-0.220,-0.664,0.818,-45.227,-76.477,47.363
-0.205,-0.599,0.750,-57.800,-64.819,48.645
-0.190,-0.478,0.717,-65.430,-49.866,53.772
-0.148,-0.575,0.608,-65.979,-32.776,58.899
-0.234,-0.272,0.792,-65.125,-9.399,55.664
0.003,-0.285,0.715,-54.504,6.836,65.369
0.018,-0.474,0.604,-40.466,18.921,67.078
-0.109,-0.294,0.319,-32.471,40.100,59.631
0.051,-0.070,1.216,-18.494,57.007,60.608
0.314,-0.228,0.969,4.517,21.301,67.566
0.310,-0.413,1.004,15.076,11.414,68.237
0.165,-0.252,1.167,18.738,-0.916,58.411
0.206,-0.277,1.194,22.949,-17.517,55.725
0.199,-0.378,1.185,26.062,-32.227,55.054
0.141,-0.361,1.240,23.315,-40.955,53.040
0.080,-0.299,1.240,17.883,-48.950,52.246
0.006,-0.340,1.210,12.573,-53.040,53.528
-0.047,-0.334,1.180,5.676,-50.415,51.331
-0.116,-0.309,1.159,-1.526,-43.274,45.593
-0.143,-0.285,1.126,-7.874,-32.776,38.269
-0.114,-0.238,1.124,-13.184,-20.203,31.250
-0.051,-0.203,1.079,-17.151,-9.827,26.062
0.011,-0.157,1.070,-21.057,-2.319,23.071
0.081,-0.145,1.049,-23.560,1.465,23.071
0.124,-0.139,1.033,-24.109,1.953,23.865
0.163,-0.121,1.038,-23.621,0.610,24.963
0.201,-0.138,1.039,-22.278,-2.563,27.710
0.205,-0.177,1.030,-20.325,-6.836,30.579
0.200,-0.186,1.034,-19.348,-10.681,32.776
0.185,-0.178,1.028,-19.531,-14.587,34.790
0.154,-0.167,1.006,-20.569,-17.578,36.499
0.120,-0.175,0.982,-22.766,-18.311,37.781
0.094,-0.162,0.968,-25.452,-16.785,37.231
0.078,-0.120,0.955,-27.100,-14.099,33.875
