aX,aY,aZ,gX,gY,gZ
0.268,1.400,1.351,-12.146,32.593,-5.798
0.280,1.820,1.472,-24.048,31.006,0.244
0.286,2.256,1.567,-30.212,23.987,11.963
0.252,2.565,1.609,-30.334,9.644,27.161
0.231,2.759,1.584,-29.358,-9.460,41.748
0.266,2.909,1.493,-30.334,-32.471,49.011
0.271,3.075,1.358,-30.090,-59.692,45.776
0.308,3.134,1.133,-25.208,-90.820,33.386
0.387,3.196,0.810,-17.639,-123.108,13.184
0.469,3.212,0.458,-13.550,-154.053,-5.859
0.548,3.206,0.143,-18.616,-181.885,-13.733
0.557,3.253,-0.120,-35.034,-205.566,-8.240
0.466,3.164,-0.354,-56.702,-220.886,5.310
0.236,2.981,-0.584,-77.148,-221.924,20.081
-0.029,2.676,-0.787,-85.571,-203.186,26.550
-0.207,2.237,-0.885,-74.402,-164.917,24.292
-0.282,1.674,-0.886,-47.119,-117.615,21.851
-0.394,0.949,-0.882,-16.602,-73.181,29.785
-0.635,0.078,-0.809,4.150,-33.936,49.866
-0.877,-0.774,-0.668,11.780,4.395,67.627
-1.007,-1.580,-0.519,8.972,47.119,73.547
-1.151,-2.301,-0.293,3.967,90.149,65.552
-1.146,-3.112,0.041,14.099,126.404,35.278
-0.996,-3.998,0.442,49.316,147.827,-19.409
-0.847,-4.000,0.928,100.464,152.039,-82.703
-0.522,-4.000,1.612,164.612,137.451,-133.484
-0.074,-4.000,2.097,253.723,105.469,-175.232
0.328,-4.000,2.125,344.849,71.838,-210.571
0.902,-4.000,1.781,384.033,59.265,-235.596
1.307,-3.448,1.558,355.469,85.571,-253.662
2.099,-2.375,1.734,269.165,143.860,-237.915
2.769,-0.827,2.162,163.513,180.908,-176.758
2.979,0.236,2.675,93.140,163.818,-81.909
2.664,-0.209,2.360,71.899,96.313,11.902
1.695,-0.765,2.192,49.133,28.076,66.528
1.107,-0.755,1.902,-10.193,-23.682,98.633
0.572,-0.832,1.513,-75.745,-60.913,119.995
-0.111,-0.673,1.269,-119.690,-67.383,117.126
-0.534,-0.636,0.983,-127.869,-48.279,104.492
-0.659,-0.695,0.742,-120.544,-10.559,87.097
-0.618,-0.626,0.671,-112.854,33.081,63.293
-0.398,-0.601,0.655,-102.600,65.674,43.762
-0.018,-0.567,0.749,-90.637,79.041,30.945
0.306,-0.544,0.865,-77.209,66.284,23.071
0.449,-0.639,0.911,-61.707,30.762,21.423
0.436,-0.680,0.911,-52.612,-8.667,27.466
0.274,-0.717,0.855,-52.795,-37.842,40.771
0.101,-0.658,0.842,-57.068,-47.058,53.711
-0.019,-0.639,0.842,-59.143,-36.926,61.890
-0.043,-0.655,0.892,-58.777,-13.245,65.674
-0.047,-0.660,0.907,-57.129,13.367,66.956
-0.065,-0.665,0.930,-54.749,39.612,67.017
-0.052,-0.704,0.927,-48.828,64.514,66.956
-0.041,-0.715,0.907,-39.734,88.074,65.125
-0.005,-0.695,0.882,-28.137,111.633,62.683
0.134,-0.699,0.896,-18.677,134.033,65.552
0.360,-0.746,0.981,-17.517,149.414,76.599
0.519,-0.724,1.049,-27.466,149.292,93.384
0.535,-0.574,1.039,-46.204,133.118,107.727
0.455,-0.472,0.955,-67.688,113.892,118.896
0.282,-0.496,0.814,-88.196,102.783,127.014
0.232,-0.276,0.857,-104.736,106.750,126.892
0.206,-0.119,0.787,-109.009,111.145,126.587
0.121,-0.047,0.615,-105.225,114.929,129.761
-0.047,0.069,0.528,-98.022,133.057,126.465
0.038,0.214,0.554,-83.984,163.635,120.422
0.256,0.139,0.520,-62.256,186.096,121.460
0.416,0.183,0.630,-45.837,201.050,117.004
0.470,0.137,0.526,-34.546,200.989,114.868
0.480,0.170,0.549,-30.762,197.754,114.014
0.464,0.191,0.499,-31.494,194.580,112.427
0.525,0.339,0.477,-33.325,188.477,108.948
0.567,0.389,0.497,-35.217,180.420,104.492
0.606,0.531,0.573,-35.889,171.875,100.098
0.603,0.488,0.462,-34.302,154.358,102.173
0.597,0.513,0.500,-33.875,137.817,103.821
0.562,0.536,0.474,-32.166,122.131,101.868
0.530,0.545,0.463,-28.931,105.774,98.938
0.440,0.579,0.465,-24.841,91.553,95.642
0.396,0.562,0.452,-17.944,83.252,91.614
0.405,0.606,0.444,-9.949,82.825,85.876
0.343,0.635,0.411,-3.357,84.229,80.872
0.381,0.595,0.407,-0.305,90.454,77.576
0.482,0.647,0.420,-1.831,96.680,73.242
0.508,0.670,0.421,-6.287,95.886,70.618
0.467,0.623,0.373,-14.221,89.844,70.923
0.430,0.578,0.329,-24.597,84.778,70.313
0.429,0.655,0.333,-33.936,80.872,67.322
0.377,0.745,0.339,-37.292,75.500,66.772
0.357,0.744,0.344,-34.424,70.557,69.214
0.354,0.737,0.373,-27.222,64.819,70.740
0.349,0.759,0.369,-16.602,57.922,68.909
0.385,0.734,0.386,-4.456,51.086,69.092
0.426,0.641,0.359,4.578,43.152,71.045
0.401,0.627,0.358,6.348,35.339,67.566
0.377,0.721,0.397,1.770,31.128,58.899
0.339,0.824,0.384,-8.118,28.687,55.237
0.255,0.824,0.368,-19.409,29.114,55.176
0.188,0.860,0.371,-29.480,34.912,50.903
0.147,0.896,0.397,-35.095,42.969,43.518
0.115,0.907,0.355,-35.522,51.086,32.593
0.085,0.911,0.352,-30.334,61.340,18.616
0.092,0.942,0.385,-23.254,73.181,4.639
0.170,0.925,0.422,-17.456,80.383,-6.409
0.248,0.864,0.437,-14.709,80.322,-15.076
0.294,0.839,0.396,-15.686,74.402,-23.743
0.369,0.855,0.409,-18.127,67.200,-32.654
0.470,0.915,0.435,-22.217,56.274,-38.879
0.483,0.962,0.447,-29.968,40.955,-39.734
0.446,0.974,0.434,-40.100,24.719,-37.720
0.413,0.951,0.405,-49.927,11.841,-36.072
0.403,0.942,0.355,-56.946,3.662,-36.438
0.402,0.925,0.322,-60.669,0.793,-39.063
0.448,0.893,0.332,-62.012,0.671,-42.542
0.498,0.861,0.355,-61.157,0.427,-45.227
0.522,0.857,0.364,-58.960,-1.343,-46.875
0.556,0.837,0.345,-56.396,-5.127,-45.227
0.557,0.795,0.328,-54.321,-8.728,-41.565
0.545,0.777,0.313,-54.688,-10.559,-40.405

0.742,1.801,-0.172,16.968,-93.994,-9.827
0.811,1.956,-0.199,13.794,-83.801,-3.540
0.831,2.150,-0.289,8.545,-77.454,4.517
0.781,2.454,-0.357,2.930,-70.068,11.414
0.825,2.765,-0.359,-1.648,-59.631,17.212
0.878,2.953,-0.429,-2.136,-52.979,20.752
0.791,3.074,-0.483,-1.404,-52.979,24.658
0.499,3.162,-0.531,-0.305,-64.941,39.124
0.222,3.228,-0.599,-0.366,-88.440,66.772
-0.109,3.265,-0.751,0.854,-121.094,96.985
-0.514,3.356,-0.923,4.395,-154.602,117.065
-0.965,3.438,-1.108,14.526,-182.861,119.385
-1.341,3.436,-1.205,38.818,-196.655,102.173
-1.605,3.184,-1.066,76.782,-197.571,74.707
-1.735,2.491,-0.779,118.408,-203.674,41.626
-1.759,1.632,-0.617,150.269,-220.764,-5.493
-1.689,0.662,-0.437,157.593,-238.708,-66.711
-1.660,-0.308,-0.237,134.888,-249.207,-125.793
-1.696,-1.066,-0.008,83.984,-237.915,-167.053
-1.519,-1.763,0.186,30.090,-183.289,-191.162
-1.105,-2.395,0.284,0.244,-68.604,-201.477
-0.322,-2.134,0.499,1.953,82.886,-178.162
0.916,-1.786,0.892,59.265,206.482,-109.497
1.989,-2.300,1.305,163.391,256.287,-20.447
2.213,-3.825,1.626,276.917,221.741,27.771
2.297,-4.000,1.472,346.191,140.808,-10.925
2.587,-4.000,1.260,316.223,56.824,-139.587
2.733,-4.000,1.422,192.200,-20.508,-278.198
2.565,-3.759,1.234,56.335,-96.130,-347.412
2.158,-2.596,0.921,-43.762,-143.311,-359.436
1.657,-1.433,0.521,-102.905,-137.268,-323.303
1.193,-0.545,0.275,-116.272,-73.792,-265.076
0.967,-0.120,0.047,-98.572,18.494,-204.407
1.075,-0.245,-0.134,-63.232,104.065,-137.146
1.421,-0.396,-0.056,-29.968,166.016,-86.304
1.760,-0.261,0.348,-4.944,187.317,-61.340
2.072,0.035,0.728,20.569,155.212,-45.044
1.984,-0.416,0.674,47.974,75.989,-18.250
1.710,-0.301,0.727,57.251,-5.798,-10.254
1.212,-0.377,0.607,59.937,-69.946,4.211
0.828,-0.322,0.588,60.181,-102.722,15.381
0.515,-0.353,0.573,60.608,-103.149,26.550
0.372,-0.375,0.589,58.716,-81.970,30.884
0.351,-0.389,0.624,53.040,-50.537,28.381
0.404,-0.376,0.667,44.983,-18.921,18.066
0.491,-0.369,0.720,36.560,6.775,6.470
0.602,-0.368,0.759,27.588,25.208,-0.916
0.713,-0.326,0.771,17.944,34.668,-2.441
0.808,-0.254,0.764,7.812,37.476,0.305
0.873,-0.199,0.744,0.122,36.377,4.395
0.930,-0.166,0.724,-4.517,33.203,8.057
0.970,-0.133,0.714,-7.507,29.724,10.010
1.012,-0.103,0.732,-9.460,26.062,13.428
1.066,-0.090,0.763,-9.399,21.484,20.447
1.104,-0.093,0.786,-8.362,15.015,28.503
1.122,-0.106,0.806,-6.165,6.653,35.461
1.119,-0.135,0.813,-2.991,-3.052,41.687
1.086,-0.139,0.807,-1.465,-12.268,48.279
1.049,-0.122,0.789,-2.258,-19.287,55.359
0.990,-0.115,0.755,-4.028,-23.254,60.547
0.925,-0.125,0.731,-6.714,-22.888,63.538
0.893,-0.152,0.718,-8.728,-18.311,65.369
0.881,-0.169,0.720,-9.705,-10.986,66.589
0.928,-0.220,0.744,-8.972,-3.601,67.017
1.004,-0.295,0.757,-8.118,0.427,66.833
1.040,-0.332,0.751,-8.301,-0.061,67.139
1.042,-0.327,0.718,-10.498,-3.235,69.458
1.006,-0.317,0.664,-13.000,-6.287,72.998
0.917,-0.291,0.614,-15.015,-5.798,76.538
0.827,-0.235,0.573,-15.930,0.366,79.834
0.770,-0.194,0.535,-14.832,13.428,84.106
0.768,-0.174,0.536,-12.390,30.334,87.402
0.812,-0.190,0.548,-8.423,45.837,88.745
0.889,-0.223,0.564,-4.089,55.725,87.158
0.945,-0.213,0.576,-2.869,56.396,84.412
0.947,-0.180,0.576,-3.418,47.241,83.191
0.910,-0.150,0.551,-3.296,32.654,84.045
0.838,-0.113,0.504,-2.930,18.127,86.182
0.753,-0.109,0.467,-1.831,8.545,89.478
0.706,-0.149,0.428,-0.061,5.127,92.102
0.662,-0.071,0.400,-0.732,7.996,92.773
0.604,0.060,0.391,-1.587,16.113,93.201
0.613,0.074,0.366,-0.854,26.428,96.619
0.646,0.056,0.341,-0.854,36.377,100.342
0.661,0.057,0.330,-2.380,44.128,100.525
0.690,0.044,0.304,-2.136,47.974,98.022
0.694,0.073,0.285,-0.183,48.523,92.590
0.694,0.136,0.289,3.296,47.607,86.731
0.699,0.217,0.313,9.033,45.166,83.313
0.745,0.243,0.352,16.296,40.222,83.069
0.804,0.205,0.382,23.254,31.738,83.618
0.809,0.209,0.377,26.489,19.348,82.153
0.773,0.226,0.356,23.499,5.676,81.360
0.747,0.228,0.336,15.808,-7.812,83.618
0.683,0.267,0.316,6.042,-20.508,86.304
0.600,0.329,0.275,-3.296,-30.457,88.135
0.510,0.418,0.234,-10.132,-35.034,87.769
0.443,0.479,0.216,-10.803,-33.569,85.571
0.384,0.558,0.210,-5.249,-27.649,80.688
0.356,0.592,0.229,4.211,-17.578,74.524
0.409,0.527,0.251,15.625,-6.348,68.359
0.441,0.524,0.287,23.865,4.272,60.425
0.470,0.563,0.331,28.015,12.817,52.979
0.520,0.546,0.374,28.625,17.151,49.866
0.578,0.540,0.421,23.865,17.700,50.842
0.584,0.590,0.454,15.869,14.038,53.894
0.555,0.594,0.473,8.789,5.432,60.059
0.510,0.589,0.438,2.258,-4.578,64.392
0.443,0.607,0.398,-2.563,-11.047,62.195
0.346,0.626,0.332,-4.883,-12.695,54.993
0.268,0.625,0.244,-4.395,-7.996,44.434
0.235,0.621,0.192,-2.197,6.104,31.128
0.294,0.659,0.185,0.244,26.855,18.616
0.389,0.750,0.234,4.395,47.852,9.827
0.420,0.801,0.279,11.658,62.622,6.897
0.475,0.772,0.334,20.935,69.397,11.169
0.537,0.714,0.399,27.771,70.679,15.564
0.497,0.690,0.438,27.649,67.932,15.381
0.413,0.643,0.445,20.752,64.270,12.085

0.987,1.777,-0.206,-7.202,-239.075,-31.311
1.069,2.022,-0.222,-2.991,-252.563,-21.118
1.159,2.339,-0.204,5.920,-268.250,-5.554
1.225,2.629,-0.166,21.301,-289.734,14.832
1.277,2.828,-0.109,44.250,-317.566,36.377
1.275,2.828,-0.049,71.472,-352.722,56.885
1.166,2.745,-0.071,94.360,-395.508,74.585
0.919,2.604,-0.208,108.459,-441.650,83.801
0.629,2.583,-0.387,111.145,-479.187,84.717
0.418,2.574,-0.597,105.652,-500.610,79.590
0.283,2.590,-0.800,96.680,-502.136,74.219
0.162,2.660,-0.869,84.961,-486.633,71.655
0.118,2.647,-0.871,75.012,-462.402,70.007
0.130,2.476,-0.857,68.359,-438.293,63.110
0.150,2.145,-0.819,62.988,-416.260,52.063
0.163,1.817,-0.808,54.932,-399.902,44.128
0.031,1.382,-0.787,48.828,-386.047,38.940
-0.012,0.890,-0.735,50.598,-368.042,34.180
-0.142,0.316,-0.695,61.340,-346.436,26.428
-0.445,-0.296,-0.628,68.909,-317.139,25.269
-0.788,-0.900,-0.542,56.335,-274.231,43.030
-1.028,-1.347,-0.364,25.879,-216.919,71.472
-1.193,-1.745,-0.052,-3.662,-151.733,95.215
-1.154,-2.033,0.295,-11.230,-91.248,109.131
-1.028,-2.342,0.623,15.320,-49.561,107.300
-0.856,-2.637,0.916,62.744,-38.269,86.365
-0.736,-2.888,1.250,115.479,-59.753,68.359
-0.632,-3.042,1.600,165.894,-107.117,67.627
-0.686,-3.115,1.817,209.290,-165.161,85.022
-0.891,-2.934,1.923,234.680,-214.417,123.352
-1.150,-2.576,1.730,249.390,-237.183,162.415
-1.408,-2.241,1.446,262.512,-210.571,176.636
-1.501,-2.012,1.221,266.418,-130.310,156.616
-1.116,-1.961,1.073,243.469,-11.047,95.886
-0.580,-1.821,1.100,179.077,112.122,9.277
-0.187,-1.414,1.276,92.773,205.322,-60.791
0.280,-0.825,1.396,16.968,245.239,-81.482
0.513,-0.323,1.562,-22.705,239.868,-68.787
0.555,-0.099,1.593,-26.550,200.256,-42.480
0.481,-0.175,1.518,-12.207,138.367,-14.038
0.261,-0.546,1.226,0.488,72.754,5.310
-0.177,-0.112,1.365,0.305,24.048,6.165
-0.337,-0.489,1.057,-3.601,-19.592,23.499
-0.508,-0.467,0.945,-5.005,-46.387,31.433
-0.643,-0.441,0.865,-10.742,-55.359,28.503
-0.746,-0.512,0.784,-14.709,-56.641,26.855
-0.773,-0.510,0.765,-19.958,-47.974,23.682
-0.767,-0.455,0.761,-24.231,-34.790,18.066
-0.739,-0.404,0.771,-25.757,-15.991,10.071
-0.665,-0.389,0.792,-24.292,6.592,3.235
-0.567,-0.387,0.842,-22.461,30.579,-0.916
-0.483,-0.397,0.909,-22.339,50.598,-0.305
-0.431,-0.366,0.997,-25.879,65.979,6.836
-0.408,-0.360,1.082,-32.532,76.843,18.127
-0.434,-0.399,1.132,-39.917,82.764,26.917
-0.447,-0.369,1.198,-47.180,86.121,28.931
-0.425,-0.370,1.231,-52.429,85.815,27.344
-0.404,-0.358,1.224,-55.359,81.177,24.170
-0.400,-0.344,1.211,-56.580,73.975,21.484
-0.398,-0.315,1.184,-56.213,66.040,19.958
-0.443,-0.304,1.130,-51.880,59.265,17.090
-0.477,-0.289,1.063,-43.579,57.251,12.878
-0.494,-0.309,1.026,-35.461,61.523,7.935
-0.464,-0.364,1.018,-30.273,69.946,6.165
-0.401,-0.427,1.016,-28.931,80.078,7.690
-0.288,-0.454,1.056,-33.447,89.111,11.780
-0.189,-0.421,1.069,-45.410,91.736,18.188
-0.160,-0.407,1.061,-61.096,87.158,24.719
-0.189,-0.377,1.029,-75.745,79.407,29.846
-0.257,-0.318,0.961,-84.900,73.914,31.128
-0.321,-0.288,0.895,-87.158,74.097,30.273
-0.340,-0.302,0.848,-83.923,80.750,29.480
-0.326,-0.265,0.820,-77.576,90.515,28.625
-0.273,-0.220,0.823,-69.885,99.731,27.710
-0.172,-0.195,0.852,-60.303,105.042,28.076
-0.093,-0.169,0.886,-51.636,103.638,28.992
-0.091,-0.105,0.876,-45.044,97.534,31.982
-0.124,-0.084,0.835,-41.443,92.590,36.987
-0.155,-0.105,0.793,-39.917,93.384,42.908
-0.163,-0.143,0.758,-41.077,101.379,46.753
-0.139,-0.159,0.737,-44.861,115.356,48.157
-0.097,-0.113,0.709,-50.842,132.019,49.011
0.005,-0.114,0.706,-58.289,147.766,50.964
0.100,-0.096,0.702,-67.322,156.799,54.810
0.110,0.001,0.696,-78.003,157.471,59.570
0.128,0.058,0.707,-85.266,152.466,64.575
0.136,0.119,0.711,-85.754,144.043,65.918
0.110,0.200,0.719,-80.811,132.935,61.340
0.115,0.219,0.741,-73.792,120.667,57.007
0.109,0.207,0.745,-68.726,108.337,55.542
0.083,0.193,0.749,-66.528,97.107,53.955
0.061,0.191,0.747,-66.406,89.661,51.208
0.055,0.181,0.735,-69.275,86.121,49.133
0.049,0.194,0.684,-76.050,85.388,47.668
0.079,0.227,0.655,-84.167,87.585,44.312
0.121,0.340,0.640,-91.614,92.102,39.795
0.175,0.402,0.633,-94.910,95.337,34.790
0.255,0.472,0.624,-92.041,96.375,28.931
0.254,0.564,0.616,-83.801,94.238,20.386
0.272,0.590,0.627,-72.083,90.820,14.587
0.251,0.583,0.627,-61.218,86.914,13.855
0.211,0.558,0.651,-53.650,82.886,13.733
0.161,0.562,0.655,-50.049,81.726,13.367
0.092,0.551,0.639,-50.964,83.252,12.634
0.048,0.549,0.611,-55.603,88.684,11.292
0.088,0.541,0.613,-61.951,98.511,7.324
0.179,0.561,0.612,-68.542,109.131,-0.183
0.234,0.605,0.594,-74.524,115.601,-9.827
0.323,0.652,0.571,-80.200,116.882,-16.785
0.424,0.703,0.566,-83.618,112.122,-22.827
0.481,0.769,0.559,-83.374,101.379,-29.053
0.456,0.830,0.525,-79.651,87.463,-31.494
0.446,0.844,0.498,-73.792,75.623,-28.992
0.428,0.850,0.485,-65.857,69.031,-26.367
0.382,0.859,0.478,-58.350,67.566,-23.682
0.364,0.832,0.473,-53.345,70.190,-18.372
0.422,0.793,0.483,-51.819,76.050,-13.916
0.466,0.795,0.487,-53.467,82.764,-15.442
0.482,0.820,0.477,-57.434,87.585,-21.118

0.731,1.524,0.295,34.973,-73.059,26.550
0.707,1.557,0.234,29.602,-84.473,27.771
0.676,1.666,0.174,23.743,-92.407,25.879
0.627,1.852,0.135,20.386,-97.595,21.973
0.563,2.015,0.063,23.376,-100.403,18.372
0.492,2.213,-0.021,33.386,-101.563,17.822
0.421,2.394,-0.121,46.265,-102.173,21.057
0.328,2.522,-0.216,58.472,-104.248,24.902
0.250,2.609,-0.330,66.833,-110.229,25.391
0.163,2.577,-0.472,67.627,-121.765,20.020
0.107,2.546,-0.559,58.472,-138.184,8.972
0.024,2.525,-0.692,47.546,-160.645,-11.719
-0.011,2.509,-0.835,40.527,-181.396,-38.452
0.017,2.503,-0.872,35.828,-195.496,-58.777
-0.002,2.326,-0.929,41.382,-207.336,-66.040
-0.100,2.064,-0.984,52.063,-216.553,-61.157
-0.343,1.716,-1.000,67.566,-220.764,-50.598
-0.671,1.245,-0.956,89.539,-215.332,-39.978
-1.001,0.613,-0.778,116.394,-197.937,-37.415
-1.236,-0.213,-0.509,142.334,-168.945,-43.762
-1.361,-1.174,-0.085,158.386,-130.798,-54.565
-1.301,-2.151,0.482,163.757,-93.445,-79.712
-1.025,-2.970,1.054,152.405,-67.749,-119.690
-0.364,-3.483,1.643,121.704,-56.641,-149.414
0.215,-3.410,1.927,93.567,-78.308,-158.264
0.267,-2.952,2.042,87.952,-126.465,-147.949
0.060,-2.600,2.016,122.375,-175.659,-108.337
-0.229,-2.688,1.773,198.914,-197.693,-61.890
-0.524,-2.932,1.482,283.386,-171.326,-35.828
-0.673,-3.159,1.146,334.595,-91.919,-35.950
-0.374,-3.147,0.943,329.773,28.442,-57.922
0.226,-2.804,0.997,270.691,158.264,-95.459
0.822,-2.230,1.043,178.528,257.751,-139.099
1.335,-1.560,1.156,80.933,314.087,-162.598
1.780,-0.999,1.265,2.441,319.153,-152.283
1.972,-0.628,1.309,-46.021,276.550,-120.117
1.843,-0.319,1.237,-66.711,206.177,-81.238
1.531,-0.136,1.118,-63.904,128.601,-38.208
1.180,-0.085,1.006,-46.692,58.411,6.226
0.861,-0.137,0.936,-23.560,0.916,46.570
0.581,-0.203,0.921,1.038,-42.725,75.195
0.230,-0.535,0.699,24.109,-70.068,87.769
-0.060,-0.333,1.052,37.292,-64.758,73.059
-0.273,-0.274,0.984,46.082,-55.298,65.063
-0.172,-0.565,0.932,45.776,-43.579,74.158
-0.218,-0.613,0.931,28.259,-17.822,69.946
-0.216,-0.517,0.924,4.211,12.573,55.359
-0.087,-0.443,0.949,-17.029,44.373,36.865
0.105,-0.388,0.967,-33.752,68.848,17.151
0.351,-0.304,0.990,-45.227,79.895,1.343
0.533,-0.229,1.011,-49.622,75.012,-7.080
0.632,-0.149,1.023,-47.119,59.570,-10.376
0.659,-0.077,1.024,-37.598,39.917,-8.972
0.669,-0.062,0.982,-24.292,21.484,-3.540
0.657,-0.129,0.919,-12.695,10.132,5.249
0.605,-0.181,0.890,-6.348,9.460,12.878
0.572,-0.187,0.888,-5.005,18.005,19.165
0.581,-0.177,0.913,-5.920,30.579,25.085
0.636,-0.198,0.957,-8.301,41.138,30.945
0.680,-0.221,1.010,-10.925,45.105,36.194
0.711,-0.262,1.046,-12.085,41.321,40.344
0.691,-0.277,1.041,-12.268,32.532,42.236
0.646,-0.294,0.997,-13.367,24.536,41.931
0.628,-0.285,0.925,-15.869,21.667,40.955
0.600,-0.206,0.865,-20.508,25.269,41.443
0.610,-0.156,0.838,-24.597,32.776,45.044
0.646,-0.169,0.824,-25.635,39.429,51.636
0.661,-0.171,0.822,-23.376,42.969,56.152
0.653,-0.184,0.822,-18.555,43.152,58.594
0.636,-0.245,0.817,-12.390,41.199,60.852
0.634,-0.281,0.794,-8.606,38.513,62.988
0.613,-0.277,0.751,-8.850,36.072,64.209
0.573,-0.258,0.712,-11.475,35.461,62.927
0.532,-0.182,0.685,-14.099,38.208,59.082
0.530,-0.115,0.666,-16.113,43.579,56.030
0.583,-0.115,0.654,-15.930,50.232,55.908
0.638,-0.113,0.664,-15.930,56.702,56.641
0.670,-0.127,0.674,-16.968,60.120,58.838
0.685,-0.132,0.670,-17.395,61.035,60.852
0.664,-0.112,0.655,-17.151,61.340,61.584
0.642,-0.055,0.647,-17.029,62.866,62.622
0.638,-0.043,0.638,-15.198,65.613,63.599
0.651,-0.056,0.644,-13.062,69.275,63.232
0.691,-0.023,0.663,-13.184,71.228,63.599
0.730,0.005,0.677,-14.771,68.848,67.200
0.733,0.000,0.675,-15.747,62.683,71.411
0.691,0.021,0.648,-17.456,55.847,74.646
0.634,0.076,0.616,-18.738,51.636,76.965
0.583,0.104,0.589,-18.982,51.453,77.942
0.558,0.116,0.569,-17.578,54.504,77.393
0.556,0.138,0.549,-16.235,59.265,75.500
0.566,0.176,0.516,-15.991,64.819,72.388
0.597,0.241,0.487,-17.517,69.824,68.604
0.647,0.267,0.479,-19.592,72.937,64.331
0.700,0.258,0.464,-20.569,72.388,60.059
0.726,0.261,0.466,-22.278,68.542,56.824
0.751,0.263,0.476,-24.292,61.768,56.519
0.751,0.267,0.487,-25.146,53.162,58.899
0.754,0.262,0.503,-23.987,44.617,62.012
0.747,0.293,0.510,-21.973,37.476,64.758
0.706,0.379,0.499,-20.020,32.043,67.261
0.679,0.441,0.481,-17.639,28.687,69.641
0.679,0.452,0.459,-14.954,26.184,71.045
0.671,0.473,0.438,-13.794,23.376,68.848
0.660,0.462,0.417,-13.977,19.897,63.293
0.638,0.453,0.387,-16.052,17.151,55.481
0.600,0.455,0.358,-20.630,15.869,47.607
0.630,0.444,0.360,-25.757,16.785,40.039
0.677,0.453,0.368,-29.785,17.578,31.799
0.671,0.548,0.394,-32.227,15.808,24.536
0.667,0.584,0.418,-31.372,10.742,23.987
0.657,0.576,0.422,-29.114,3.418,29.297
0.599,0.601,0.416,-26.794,-2.563,35.583
0.572,0.611,0.395,-23.987,-5.676,41.016
0.527,0.629,0.365,-20.203,-5.188,43.091
0.480,0.625,0.332,-16.663,-0.977,41.992
0.469,0.578,0.289,-13.611,6.409,38.879
0.489,0.529,0.264,-12.512,17.090,32.715
0.551,0.494,0.260,-13.367,28.564,24.475

1.103,1.662,0.113,5.371,-40.588,-27.710
1.146,1.772,0.089,8.911,-71.899,-23.071
1.164,1.871,0.030,13.977,-107.849,-16.968
1.126,1.979,-0.073,19.897,-145.203,-11.353
1.066,2.162,-0.187,25.269,-177.795,-7.446
0.970,2.389,-0.314,32.166,-203.247,-3.845
0.785,2.520,-0.459,41.626,-220.886,1.282
0.545,2.606,-0.609,49.988,-229.065,14.343
0.317,2.641,-0.753,53.955,-227.844,36.804
0.167,2.619,-0.895,53.345,-219.666,62.500
0.075,2.654,-1.031,48.279,-205.811,83.801
-0.034,2.741,-1.130,40.283,-191.345,97.534
-0.104,2.907,-1.171,33.630,-178.345,104.858
-0.175,3.019,-1.223,31.677,-172.913,107.788
-0.355,2.970,-1.284,35.522,-177.734,106.018
-0.618,2.604,-1.391,45.776,-190.552,98.511
-0.899,2.090,-1.515,57.861,-207.153,78.857
-1.234,1.457,-1.565,73.120,-219.788,46.692
-1.531,0.644,-1.496,95.032,-221.436,7.874
-1.710,-0.335,-1.221,119.202,-203.186,-33.997
-1.654,-1.492,-0.522,143.372,-157.227,-66.345
-1.307,-2.805,0.364,180.542,-80.933,-89.966
-0.892,-3.658,1.084,219.177,7.690,-108.032
-0.392,-4.000,1.642,250.061,78.308,-112.732
0.119,-4.000,1.986,273.560,110.474,-127.563
0.280,-4.000,2.202,284.973,111.328,-157.532
0.381,-4.000,2.244,279.602,104.065,-182.007
0.780,-4.000,2.061,250.854,104.065,-193.359
1.074,-3.729,1.757,199.524,115.173,-209.961
1.283,-2.876,1.505,140.503,133.545,-224.731
1.531,-1.983,1.336,83.496,150.635,-222.717
1.643,-1.146,1.275,36.926,157.104,-201.111
1.571,-0.604,1.224,9.766,145.935,-163.452
1.483,-0.370,1.210,2.747,121.460,-122.498
1.401,-0.200,1.276,10.010,90.210,-88.196
1.224,-0.076,1.350,25.391,53.711,-59.998
1.055,-0.126,1.376,41.443,17.578,-33.752
0.828,-0.282,1.320,50.903,-11.902,-14.099
0.559,-0.372,1.257,48.828,-26.123,-2.747
0.345,-0.400,1.184,36.316,-21.484,8.545
0.209,-0.462,1.088,20.630,-1.587,17.151
0.200,-0.458,1.021,4.395,28.259,17.334
0.308,-0.430,0.957,-11.169,56.580,13.428
0.452,-0.383,0.890,-23.376,74.463,8.911
0.574,-0.360,0.811,-31.311,81.299,6.653
0.723,-0.331,0.775,-35.278,80.322,6.287
0.851,-0.288,0.740,-36.072,70.679,7.812
0.887,-0.285,0.711,-33.997,54.932,11.047
0.871,-0.280,0.685,-29.724,38.696,14.099
0.785,-0.281,0.670,-23.621,26.794,17.029
0.687,-0.252,0.673,-17.090,22.766,19.836
0.656,-0.243,0.687,-11.963,25.024,24.048
0.756,-0.071,0.770,-8.240,30.396,28.992
0.691,-0.489,0.636,-3.784,34.729,35.522
0.742,0.017,0.844,-6.165,45.593,19.531
0.782,-0.041,0.822,-3.479,47.607,25.208
0.899,-0.114,0.842,-1.648,44.006,36.743
0.893,-0.121,0.864,-2.319,40.100,45.166
0.902,-0.100,0.885,-3.235,33.447,50.110
0.864,-0.130,0.891,-4.272,25.452,56.335
0.829,-0.140,0.904,-5.737,18.250,62.805
0.813,-0.173,0.902,-7.080,11.597,68.115
0.780,-0.218,0.891,-7.629,6.104,70.862
0.726,-0.262,0.871,-8.423,4.150,72.021
0.683,-0.311,0.827,-9.827,6.653,71.533
0.644,-0.324,0.775,-12.512,15.564,69.519
0.630,-0.323,0.739,-16.602,31.067,68.115
0.653,-0.332,0.720,-22.034,51.453,67.932
0.672,-0.305,0.703,-27.161,73.059,69.397
0.707,-0.257,0.692,-31.189,93.506,71.899
0.734,-0.238,0.671,-32.043,110.107,73.059
0.758,-0.214,0.652,-31.433,122.131,73.303
0.797,-0.191,0.624,-29.236,129.089,74.097
0.806,-0.176,0.575,-26.611,131.165,74.036
0.782,-0.162,0.519,-24.597,131.653,72.937
0.747,-0.124,0.456,-22.644,133.911,71.167
0.752,-0.097,0.421,-20.874,140.076,68.970
0.790,-0.093,0.406,-18.982,147.461,68.726
0.830,-0.090,0.393,-17.517,152.893,70.496
0.868,-0.068,0.381,-16.602,155.090,72.815
0.884,-0.026,0.367,-15.747,153.320,74.463
0.883,-0.014,0.338,-14.038,147.888,74.097
0.845,-0.016,0.288,-11.047,140.869,70.190
0.774,0.014,0.237,-7.812,136.108,63.049
0.720,0.111,0.202,-4.456,136.597,55.542
0.730,0.212,0.198,-1.709,140.442,53.223
0.784,0.221,0.198,0.732,142.273,57.373
0.818,0.179,0.194,2.441,139.160,61.584
0.800,0.154,0.179,3.784,132.202,61.096
0.783,0.138,0.180,5.310,123.962,57.373
0.795,0.085,0.163,7.385,114.624,53.650
0.800,0.022,0.137,8.362,104.248,51.086
0.805,-0.006,0.140,5.615,94.849,49.072
0.768,0.056,0.131,0.854,85.938,47.546
0.729,0.132,0.098,-2.380,77.515,47.058
0.705,0.170,0.062,-3.601,71.045,46.875
0.661,0.273,0.036,-3.357,68.909,42.725
0.675,0.328,0.030,-0.183,68.787,38.574
0.762,0.307,0.034,1.465,66.833,35.767
0.806,0.300,0.043,0.244,60.364,32.104
0.822,0.274,0.029,-3.418,48.889,29.663
0.815,0.251,0.004,-9.521,36.316,27.161
0.801,0.287,-0.049,-17.517,26.367,27.832
0.777,0.380,-0.064,-26.062,19.226,34.119
0.737,0.479,-0.035,-33.752,15.320,40.344
0.708,0.566,0.011,-38.086,13.000,40.161
0.720,0.582,0.046,-37.415,10.437,33.264
0.781,0.567,0.044,-34.424,5.493,21.301
0.816,0.603,0.036,-32.349,-0.488,8.850
0.833,0.637,0.040,-31.311,-7.690,2.869
0.843,0.607,0.006,-32.532,-16.296,1.892
0.821,0.581,-0.052,-38.025,-21.545,-0.305
0.791,0.626,-0.059,-48.584,-19.470,-3.113
0.784,0.701,-0.081,-60.608,-13.428,-5.554
0.789,0.751,-0.125,-69.397,-5.371,-6.836
0.815,0.802,-0.141,-75.195,3.723,-6.348
0.897,0.813,-0.161,-79.224,9.338,-6.226
0.923,0.898,-0.155,-81.360,9.705,-13.062
0.889,0.987,-0.137,-78.308,5.920,-20.447

0.862,2.020,-0.146,52.063,-64.941,-3.906
0.895,2.227,-0.155,70.618,-94.116,-7.202
0.825,2.436,-0.243,90.515,-132.080,-4.456
0.675,2.695,-0.366,105.225,-169.678,7.080
0.480,2.946,-0.516,112.793,-200.134,26.245
0.275,3.025,-0.735,113.708,-218.262,43.457
0.089,3.048,-0.921,106.445,-216.431,50.964
-0.073,3.090,-1.007,91.553,-194.458,47.607
-0.148,3.039,-0.978,73.120,-163.147,40.649
-0.115,2.898,-0.899,50.903,-137.756,36.987
-0.133,2.759,-0.742,25.757,-126.892,31.494
-0.370,2.422,-0.592,12.085,-132.263,20.386
-0.778,1.871,-0.600,13.916,-147.461,0.793
-1.228,1.287,-0.614,23.376,-156.311,-30.151
-1.713,0.541,-0.604,41.077,-147.156,-69.519
-2.044,-0.372,-0.569,66.833,-106.384,-112.671
-2.013,-1.479,-0.385,92.896,-19.531,-145.996
-1.581,-2.646,-0.260,92.529,103.210,-145.386
-0.906,-3.111,-0.010,69.946,240.479,-97.168
0.033,-3.930,0.408,81.177,359.009,-26.184
0.664,-4.000,0.731,133.423,433.960,-3.601
1.720,-4.000,0.854,190.552,464.600,-70.862
3.456,-4.000,1.026,181.152,431.213,-213.318
4.000,-4.000,1.262,64.392,317.444,-387.634
4.000,-4.000,1.130,-90.881,154.175,-514.832
4.000,-2.456,0.406,-194.092,1.709,-531.860
3.347,-0.556,-0.396,-241.150,-72.388,-440.002
2.960,1.236,-0.651,-250.854,-54.504,-306.885
2.871,0.926,-0.821,-209.534,11.658,-174.072
2.701,0.344,-0.926,-142.273,83.008,-79.224
2.300,0.738,-0.379,-86.609,132.324,-7.385
2.444,0.598,0.131,-20.447,118.286,75.867
2.042,-0.734,-0.075,53.650,41.870,129.211
1.428,-0.288,0.435,87.952,-33.203,127.075
0.980,-0.598,0.253,109.558,-113.281,148.682
0.613,-0.901,0.249,113.464,-160.645,165.161
0.118,-0.895,0.339,104.309,-164.368,158.386
-0.053,-0.833,0.408,93.140,-143.738,150.146
-0.029,-0.910,0.480,79.834,-113.892,147.095
0.032,-0.752,0.552,58.655,-76.782,133.118
0.095,-0.800,0.539,36.926,-45.593,116.760
0.208,-0.547,0.553,15.076,-18.066,93.323
0.313,-0.365,0.488,-1.648,4.028,77.209
0.523,-0.302,0.367,-9.460,17.944,71.899
0.656,-0.191,0.318,-10.132,29.236,67.932
0.829,-0.121,0.301,-2.441,33.569,61.584
0.994,-0.069,0.342,8.423,31.372,55.359
1.168,-0.058,0.428,20.264,19.836,52.673
1.312,-0.078,0.502,31.433,-0.488,52.734
1.356,-0.119,0.561,39.856,-25.146,56.885
1.328,-0.147,0.640,44.250,-49.377,66.040
1.197,-0.287,0.474,44.006,-66.895,73.975
0.975,-0.180,0.511,36.316,-66.406,74.402
0.891,-0.239,0.431,30.212,-54.565,77.209
0.845,-0.190,0.438,24.719,-31.738,77.881
0.857,-0.167,0.452,21.851,-6.714,75.256
0.915,-0.181,0.454,23.621,13.367,69.641
0.958,-0.124,0.467,27.344,28.076,63.232
1.025,-0.069,0.456,32.227,35.400,61.279
1.080,-0.043,0.437,37.170,34.546,62.317
1.079,-0.034,0.425,41.016,28.625,62.805
1.043,-0.035,0.411,43.762,22.095,64.331
1.024,-0.069,0.434,46.021,18.127,65.063
1.059,-0.144,0.477,47.424,15.137,65.491
1.077,-0.314,0.443,47.241,9.521,68.237
0.987,-0.330,0.460,41.504,7.202,65.430
0.926,-0.329,0.427,33.752,9.583,63.721
1.000,-0.250,0.443,27.710,11.658,71.777
1.037,-0.271,0.400,21.301,13.306,83.679
1.026,-0.222,0.343,17.029,14.160,91.858
0.953,-0.121,0.295,16.663,17.517,94.482
0.878,-0.058,0.272,19.653,23.560,94.971
0.828,0.014,0.292,25.879,30.579,94.482
0.805,0.001,0.295,34.241,35.400,95.398
0.817,-0.121,0.291,41.626,37.659,96.619
0.783,-0.163,0.297,43.945,39.551,94.238
0.752,-0.168,0.295,42.358,41.992,91.003
0.749,-0.230,0.270,38.696,45.410,90.698
0.753,-0.219,0.265,32.898,50.659,89.478
0.786,-0.163,0.276,25.696,56.519,88.257
0.831,-0.094,0.277,18.555,57.800,89.050
0.832,-0.003,0.268,12.756,53.040,89.600
0.826,0.040,0.228,10.254,44.067,88.623
0.816,0.058,0.214,10.376,34.668,85.571
0.814,0.069,0.194,12.268,24.963,81.482
0.770,0.116,0.183,14.771,16.357,78.430
0.707,0.101,0.141,17.395,10.315,77.637
0.645,0.055,0.095,19.348,10.010,76.782
0.583,0.102,0.070,19.226,17.029,73.364
0.540,0.218,0.087,17.151,29.114,70.068
0.558,0.262,0.089,16.235,40.405,69.702
0.618,0.245,0.081,15.686,49.316,67.871
0.686,0.235,0.083,13.977,56.030,62.195
0.741,0.277,0.075,11.841,58.899,53.162
0.769,0.385,0.102,9.460,57.678,44.922
0.808,0.445,0.107,7.568,50.659,42.664
0.775,0.510,0.100,5.432,38.513,46.875
0.684,0.569,0.071,3.357,24.780,54.871
0.559,0.611,0.041,2.380,14.648,64.026
0.457,0.591,-0.007,2.136,10.498,70.190
0.371,0.598,-0.051,-0.122,14.648,70.374
0.281,0.647,-0.081,-4.883,26.062,64.575
0.211,0.692,-0.097,-9.460,42.236,56.091
0.247,0.671,-0.116,-14.038,61.035,47.729
0.310,0.699,-0.121,-21.545,78.674,38.452
0.316,0.824,-0.056,-30.579,94.055,32.349
0.353,0.894,-0.021,-37.964,102.661,38.269
0.399,0.910,-0.003,-42.542,105.225,49.622
0.429,0.931,-0.008,-44.983,104.675,57.861
0.385,0.965,-0.039,-44.861,103.088,58.167
0.329,1.013,-0.064,-43.457,104.065,50.415
0.329,1.021,-0.092,-41.138,107.605,35.339
0.356,1.025,-0.112,-41.321,111.633,13.672
0.444,1.032,-0.109,-44.922,114.014,-9.155
0.544,1.060,-0.112,-53.284,111.572,-28.381
0.674,1.111,-0.104,-65.002,103.088,-40.039
0.796,1.160,-0.098,-77.026,88.318,-44.983
0.866,1.211,-0.099,-87.036,67.078,-45.959
0.911,1.257,-0.122,-94.055,41.016,-44.617

0.850,1.516,-0.194,-72.449,-65.613,-51.331
0.834,1.584,-0.227,-67.261,-76.965,-50.598
0.789,1.652,-0.257,-64.453,-84.717,-48.645
0.740,1.700,-0.277,-62.256,-88.135,-44.250
0.716,1.746,-0.290,-59.265,-87.830,-37.170
0.719,1.774,-0.277,-55.359,-85.938,-28.137
0.708,1.785,-0.271,-50.354,-86.670,-18.799
0.694,1.795,-0.282,-44.434,-90.637,-11.902
0.627,1.798,-0.286,-38.696,-95.764,-8.911
0.608,1.771,-0.288,-34.119,-100.952,-8.118
0.626,1.767,-0.276,-31.738,-107.178,-8.728
0.642,1.763,-0.259,-28.992,-117.065,-8.728
0.699,1.721,-0.290,-25.757,-131.165,-7.202
0.738,1.689,-0.320,-23.743,-147.827,-4.211
0.731,1.717,-0.334,-21.423,-165.039,1.709
0.704,1.747,-0.348,-16.357,-181.580,12.512
0.615,1.790,-0.400,-7.019,-193.787,29.419
0.524,1.840,-0.452,5.920,-199.341,51.086
0.461,1.859,-0.466,20.508,-196.533,72.693
0.431,1.916,-0.444,35.950,-187.622,86.975
0.451,1.930,-0.416,49.927,-177.856,93.201
0.492,1.969,-0.360,59.143,-174.133,96.558
0.486,2.067,-0.291,66.101,-179.749,97.778
0.412,2.232,-0.277,76.538,-194.824,94.055
0.261,2.304,-0.375,91.125,-213.623,85.632
0.094,2.341,-0.528,105.042,-228.821,75.134
-0.049,2.394,-0.618,110.352,-237.671,68.481
-0.216,2.383,-0.692,108.093,-243.652,64.941
-0.384,2.379,-0.771,97.656,-247.681,57.922
-0.521,2.330,-0.796,82.153,-247.559,43.518
-0.679,2.152,-0.871,69.519,-245.361,22.095
-0.877,2.010,-0.928,61.829,-239.807,-5.249
-1.104,1.840,-0.971,61.707,-232.666,-35.889
-1.360,1.423,-1.029,73.669,-225.037,-69.031
-1.507,0.770,-1.019,90.698,-212.097,-105.286
-1.511,-0.021,-0.901,98.816,-192.627,-138.306
-1.393,-0.841,-0.627,88.806,-166.748,-153.381
-1.177,-1.708,-0.217,68.054,-141.846,-149.414
-0.698,-2.457,0.421,59.326,-124.756,-154.053
-0.205,-3.433,1.016,76.599,-106.079,-162.720
-0.016,-3.816,1.541,114.807,-77.515,-156.494
0.226,-4.000,1.847,182.495,-44.250,-136.719
0.797,-4.000,2.226,248.962,-9.338,-132.935
1.240,-4.000,2.457,286.194,0.671,-154.419
1.482,-4.000,2.578,279.236,-13.062,-197.083
1.445,-3.215,2.361,236.572,-35.706,-228.699
1.283,-2.339,1.961,177.246,-47.913,-223.694
1.269,-1.611,1.708,115.295,-34.973,-187.439
1.201,-1.204,1.461,66.467,-11.719,-141.541
1.161,-0.955,1.265,33.081,10.498,-105.774
1.255,-0.689,1.163,12.390,24.902,-76.172
1.362,-0.486,1.156,4.761,21.912,-46.814
1.255,-0.490,1.038,5.920,4.089,-21.545
0.967,-0.393,0.995,9.094,-14.648,0.366
0.732,-0.391,0.926,13.611,-30.884,27.344
0.465,-0.425,0.868,14.587,-33.936,47.485
0.212,-0.414,0.865,13.428,-24.719,55.481
0.060,-0.443,0.896,12.451,-12.268,57.495
-0.009,-0.469,0.919,8.972,-0.854,53.467
-0.023,-0.479,0.914,2.563,8.423,45.715
-0.009,-0.428,0.873,-5.127,15.503,34.546
-0.002,-0.428,0.792,-10.681,22.583,22.461
0.019,-0.291,0.775,-14.221,34.424,8.728
0.141,-0.240,0.747,-14.709,46.204,3.052
0.283,-0.300,0.709,-13.367,54.138,4.700
0.397,-0.257,0.737,-12.268,60.852,2.380
0.496,-0.223,0.780,-10.803,63.049,0.732
0.583,-0.157,0.848,-8.728,61.218,0.671
0.642,-0.141,0.917,-6.226,56.274,4.578
0.729,-0.068,1.010,-4.333,48.584,10.681
0.759,-0.140,0.990,-1.831,37.720,20.508
0.804,-0.177,1.083,-1.465,28.381,28.809
0.732,-0.174,1.048,-4.272,20.142,31.372
0.669,-0.133,1.078,-10.498,23.010,34.180
0.693,-0.213,1.082,-13.672,26.978,43.030
0.719,-0.251,1.111,-18.005,31.860,47.668
0.747,-0.240,1.099,-21.790,34.302,48.157
0.750,-0.256,1.053,-25.635,35.156,49.194
0.741,-0.305,1.036,-29.785,37.598,51.514
0.757,-0.311,1.017,-32.654,41.565,53.406
0.787,-0.306,0.982,-34.241,44.861,55.359
0.805,-0.258,0.962,-35.339,48.340,56.641
0.814,-0.339,0.904,-34.119,49.438,60.242
0.810,-0.262,0.932,-32.471,49.927,60.913
0.818,-0.153,0.917,-29.602,42.908,67.810
0.866,-0.235,0.859,-26.855,29.968,83.923
0.811,-0.279,0.821,-26.794,19.409,97.107
0.673,-0.271,0.767,-27.100,12.268,106.689
0.549,-0.254,0.716,-25.513,14.404,111.328
0.444,-0.223,0.655,-23.437,27.161,110.779
0.370,-0.150,0.595,-22.949,49.133,107.727
0.385,-0.089,0.562,-23.865,75.867,104.492
0.434,0.012,0.554,-25.696,101.440,102.112
0.529,0.098,0.564,-27.649,119.873,101.318
0.639,0.118,0.553,-28.809,128.052,101.990
0.721,0.104,0.541,-30.701,127.686,101.929
0.728,0.151,0.530,-33.203,122.620,101.624
0.712,0.209,0.519,-35.278,117.004,103.149
0.712,0.231,0.505,-34.668,112.427,105.713
0.687,0.259,0.482,-33.142,109.436,108.093
0.646,0.302,0.443,-31.311,106.934,112.061
0.626,0.352,0.409,-28.381,106.201,116.028
0.602,0.426,0.391,-23.376,107.605,117.310
0.605,0.445,0.389,-17.029,108.948,117.615
0.634,0.431,0.389,-11.475,107.971,116.882
0.642,0.471,0.413,-8.118,104.065,114.746
0.674,0.461,0.454,-6.775,95.886,114.258
0.730,0.389,0.478,-7.202,81.543,114.014
0.677,0.420,0.470,-10.803,62.805,110.291
0.584,0.466,0.447,-16.113,43.274,103.149
0.532,0.467,0.392,-22.156,27.527,93.750
0.456,0.526,0.326,-28.259,18.127,81.360
0.424,0.618,0.305,-34.363,14.893,69.336
0.482,0.615,0.297,-39.063,13.062,61.646
0.512,0.616,0.291,-43.274,8.789,56.091
0.501,0.656,0.308,-45.471,2.136,52.185
0.548,0.615,0.313,-43.762,-5.554,50.964
0.530,0.597,0.300,-40.527,-13.489,48.828
0.467,0.637,0.302,-36.499,-19.836,46.204

0.360,2.322,-0.037,6.348,-169.922,-27.283
0.277,2.527,-0.068,20.935,-181.091,-23.560
0.158,2.743,-0.103,37.598,-193.726,-15.991
0.076,2.878,-0.155,54.565,-208.069,-6.226
0.031,2.788,-0.329,68.359,-225.281,-4.211
-0.159,2.653,-0.512,73.608,-238.892,-13.000
-0.344,2.645,-0.629,68.848,-242.065,-22.766
-0.347,2.662,-0.654,58.350,-235.840,-25.574
-0.357,2.526,-0.663,49.805,-227.112,-24.780
-0.469,2.285,-0.682,44.617,-220.459,-23.193
-0.630,2.003,-0.727,41.809,-215.271,-24.048
-0.841,1.670,-0.779,42.908,-209.839,-35.461
-1.068,1.277,-0.814,49.500,-200.256,-60.730
-1.220,0.795,-0.779,63.965,-186.646,-93.933
-1.293,0.281,-0.666,84.656,-174.438,-130.188
-1.337,-0.269,-0.467,107.422,-168.152,-165.466
-1.323,-0.896,-0.203,129.456,-162.781,-192.871
-1.227,-1.482,0.109,149.048,-150.024,-208.191
-1.071,-2.029,0.437,167.908,-135.498,-212.952
-0.980,-2.653,0.687,184.631,-128.784,-209.656
-0.797,-3.275,0.980,190.002,-114.441,-188.782
-0.504,-3.589,1.142,177.917,-78.247,-123.169
-0.423,-3.416,1.327,171.509,-28.870,-20.325
-0.271,-3.617,1.417,207.520,30.457,74.036
0.139,-4.000,1.444,270.508,94.849,112.061
0.691,-4.000,1.511,317.688,153.809,69.641
1.084,-3.630,1.848,313.477,196.472,-20.264
1.599,-2.957,2.177,251.465,204.346,-111.450
1.912,-2.150,2.196,150.269,168.945,-174.927
1.903,-1.330,2.005,40.649,112.793,-198.242
1.887,-0.720,1.673,-50.781,62.561,-181.274
1.781,-0.362,1.320,-111.816,29.785,-145.935
1.606,-0.114,1.031,-140.869,19.714,-107.300
1.434,0.167,0.886,-142.090,25.696,-62.073
1.222,-0.021,0.603,-118.958,36.438,-13.672
1.058,0.257,0.802,-84.534,53.711,14.832
0.955,0.161,0.872,-41.016,51.697,50.781
0.871,-0.093,0.922,-4.272,33.447,82.397
0.698,-0.287,0.919,20.874,5.310,103.455
0.479,-0.391,0.913,34.241,-18.738,106.262
0.312,-0.450,0.936,38.818,-34.302,95.886
0.187,-0.507,0.919,35.522,-38.818,78.552
0.136,-0.521,0.905,25.269,-32.898,59.692
0.139,-0.508,0.896,10.864,-18.188,45.654
0.209,-0.489,0.889,-4.272,0.305,36.987
0.331,-0.426,0.906,-18.738,17.700,32.898
0.417,-0.314,0.928,-29.846,27.344,28.748
0.474,-0.199,0.940,-34.241,28.381,24.902
0.519,-0.134,0.942,-31.860,23.193,23.743
0.554,-0.094,0.939,-25.391,15.137,24.658
0.574,-0.081,0.937,-16.296,6.836,26.733
0.563,-0.089,0.937,-8.118,0.061,28.870
0.549,-0.109,0.955,-0.732,-3.662,28.748
0.589,-0.176,1.000,3.906,-4.395,30.212
0.626,-0.177,0.996,3.479,-5.676,33.508
0.619,-0.120,1.049,-1.343,-7.690,39.490
0.616,-0.197,1.030,-6.104,-11.292,49.011
0.569,-0.187,1.034,-12.756,-11.292,53.894
0.553,-0.191,1.031,-19.287,-7.996,58.105
0.548,-0.246,1.004,-24.658,-2.991,60.608
0.503,-0.252,0.973,-28.992,4.700,58.350
0.475,-0.183,0.938,-31.921,16.663,54.382
0.480,-0.168,0.904,-33.020,30.273,51.392
0.530,-0.148,0.898,-33.081,44.617,49.255
0.605,-0.130,0.892,-32.104,55.359,48.279
0.712,-0.091,0.943,-31.372,58.472,48.950
0.808,-0.104,0.984,-30.701,47.852,53.284
0.840,-0.144,0.972,-30.212,26.367,59.814
0.764,-0.111,0.928,-31.250,2.747,66.650
0.645,-0.071,0.862,-32.471,-15.137,73.242
0.537,-0.028,0.801,-32.715,-23.193,77.759
0.455,0.002,0.753,-31.616,-19.226,77.576
0.416,0.013,0.731,-29.724,-5.737,74.829
0.428,0.012,0.740,-28.809,12.573,72.693
0.434,0.007,0.742,-30.212,30.273,72.083
0.442,0.024,0.754,-32.898,45.349,71.655
0.492,0.015,0.767,-35.400,56.885,71.777
0.583,0.004,0.781,-37.781,62.317,71.960
0.664,0.042,0.787,-39.612,60.303,70.496
0.724,0.087,0.786,-40.466,50.537,69.580
0.729,0.127,0.766,-41.077,35.095,70.984
0.679,0.154,0.737,-41.138,18.494,75.073
0.602,0.149,0.688,-41.016,5.066,81.360
0.498,0.162,0.642,-41.199,-2.441,87.524
0.411,0.185,0.610,-39.612,-2.197,90.332
0.370,0.183,0.585,-34.424,5.615,88.928
0.342,0.177,0.578,-29.358,19.165,86.487
0.343,0.178,0.581,-25.696,33.752,86.853
0.356,0.195,0.593,-23.437,47.363,88.623
0.373,0.182,0.587,-21.973,58.960,89.417
0.380,0.169,0.549,-22.400,67.688,87.708
0.388,0.171,0.510,-25.330,75.012,82.703
0.410,0.213,0.488,-30.151,81.543,75.989
0.443,0.260,0.490,-34.729,85.632,70.374
0.490,0.298,0.524,-39.185,84.900,67.932
0.538,0.312,0.549,-41.748,77.759,68.420
0.545,0.327,0.558,-40.833,65.735,69.458
0.501,0.323,0.542,-37.415,53.345,70.923
0.443,0.309,0.526,-34.790,44.434,75.806
0.404,0.334,0.510,-33.020,40.649,79.407
0.389,0.377,0.497,-30.579,41.992,78.796
0.344,0.424,0.464,-27.649,46.265,74.280
0.273,0.502,0.448,-25.208,54.260,67.444
0.288,0.552,0.451,-22.949,65.979,60.608
0.336,0.584,0.457,-21.362,78.064,54.993
0.357,0.585,0.468,-19.348,87.402,51.575
0.401,0.540,0.487,-17.639,93.445,48.035
0.521,0.484,0.485,-16.602,97.412,40.222
0.544,0.508,0.491,-17.395,98.877,28.198
0.565,0.540,0.526,-19.226,97.290,19.165
0.612,0.568,0.545,-21.973,92.346,15.381
0.602,0.639,0.538,-23.926,85.754,13.245
0.526,0.730,0.508,-23.865,79.346,12.634
0.455,0.782,0.456,-22.949,75.867,12.939
0.413,0.780,0.405,-22.400,76.477,11.597
0.396,0.764,0.362,-24.719,80.872,8.057
0.377,0.771,0.322,-30.151,86.975,3.357
0.453,0.749,0.299,-36.743,93.079,-1.282
0.539,0.753,0.295,-42.603,96.924,-7.507

0.621,1.832,0.134,-6.470,-135.742,-27.832
0.541,1.963,0.063,-6.104,-167.786,-21.729
0.422,2.101,-0.015,-2.319,-194.519,-11.963
0.262,2.204,-0.099,4.333,-213.318,-1.038
0.056,2.372,-0.174,12.146,-222.229,9.521
-0.174,2.558,-0.274,21.912,-221.375,18.616
-0.378,2.691,-0.347,31.982,-211.304,27.283
-0.451,2.759,-0.430,41.138,-195.007,31.006
-0.450,2.685,-0.531,46.997,-178.833,22.156
-0.399,2.676,-0.587,49.988,-165.161,1.465
-0.326,2.680,-0.557,52.063,-156.311,-20.996
-0.229,2.471,-0.555,55.420,-158.081,-36.804
-0.118,2.155,-0.550,56.763,-168.457,-45.532
-0.059,1.808,-0.522,55.725,-186.096,-51.636
-0.161,1.410,-0.525,53.528,-208.252,-55.603
-0.351,0.930,-0.502,48.035,-227.661,-57.495
-0.596,0.459,-0.465,40.222,-237.427,-61.340
-0.862,0.074,-0.402,34.973,-231.873,-69.763
-1.075,-0.279,-0.270,41.626,-207.764,-81.055
-1.275,-0.758,-0.059,70.313,-158.386,-99.304
-1.182,-1.385,0.263,115.845,-78.430,-129.211
-0.605,-1.962,0.708,162.170,9.338,-151.123
0.247,-2.461,1.134,192.993,73.914,-137.756
0.836,-2.818,1.483,203.735,97.717,-76.172
0.805,-3.174,1.584,220.825,81.726,-3.662
0.761,-3.770,1.623,252.930,69.702,28.198
0.961,-4.000,1.796,272.949,79.163,3.052
1.107,-3.960,1.876,254.333,93.933,-68.665
1.216,-3.225,2.006,200.989,106.201,-147.217
1.314,-2.536,1.959,132.507,108.521,-201.233
1.264,-1.890,1.708,57.861,107.666,-222.168
1.131,-1.298,1.340,-13.916,117.615,-218.811
1.085,-0.831,0.953,-72.449,145.508,-201.904
1.183,-0.472,0.665,-111.938,186.340,-179.260
1.445,-0.220,0.525,-127.625,222.839,-151.611
1.727,-0.019,0.521,-122.864,234.192,-116.577
2.018,0.341,0.740,-101.746,207.214,-74.768
1.863,-0.171,0.380,-63.843,139.771,-25.024
1.676,0.168,0.736,-28.687,75.684,-4.395
1.380,0.219,0.814,13.184,-3.113,26.611
1.201,-0.149,0.761,45.593,-77.942,57.861
0.869,-0.359,0.727,62.805,-128.479,75.317
0.519,-0.385,0.773,66.345,-150.818,79.468
0.285,-0.502,0.780,61.584,-149.658,80.627
0.151,-0.530,0.830,47.363,-125.305,73.914
0.088,-0.548,0.836,28.381,-87.463,64.087
0.081,-0.503,0.834,6.897,-41.199,51.270
0.154,-0.414,0.844,-13.855,6.958,39.124
0.300,-0.329,0.852,-31.250,50.293,28.259
0.483,-0.233,0.847,-43.030,82.397,17.944
0.664,-0.154,0.844,-49.683,100.586,11.597
0.830,-0.079,0.847,-51.392,103.821,10.193
0.921,0.003,0.836,-48.828,93.689,14.160
0.967,0.029,0.814,-42.480,75.134,23.376
0.984,0.016,0.780,-33.447,53.284,33.325
0.953,-0.013,0.737,-23.193,33.569,39.551
0.891,-0.067,0.703,-13.977,19.592,41.687
0.846,-0.118,0.694,-7.019,13.123,42.542
0.808,-0.149,0.692,-2.014,11.780,42.664
0.766,-0.191,0.686,0.671,13.733,42.480
0.732,-0.234,0.670,2.380,19.348,43.396
0.697,-0.210,0.642,2.991,28.259,45.471
0.670,-0.118,0.623,2.441,40.344,47.424
0.678,-0.084,0.620,1.465,53.711,51.147
0.728,-0.095,0.632,0.549,64.819,56.824
0.783,-0.083,0.648,-0.488,71.289,61.096
0.815,-0.065,0.668,-0.671,72.510,61.829
0.823,-0.082,0.666,-0.977,69.275,63.293
0.830,-0.140,0.649,-2.075,62.622,67.627
0.817,-0.129,0.613,-3.845,55.359,72.205
0.772,-0.031,0.578,-5.554,48.950,75.134
0.728,0.010,0.540,-5.310,43.823,78.369
0.679,0.023,0.500,-2.563,40.405,80.139
0.611,0.073,0.456,1.343,42.114,77.698
0.548,0.143,0.420,5.432,50.781,72.449
0.523,0.209,0.405,8.301,64.514,68.481
0.566,0.213,0.416,9.827,78.369,66.772
0.593,0.233,0.425,9.155,88.684,65.247
0.615,0.256,0.436,7.202,94.360,64.697
0.670,0.217,0.447,4.028,94.666,64.880
0.720,0.148,0.450,-0.122,88.684,62.561
0.717,0.128,0.437,-4.822,77.515,56.641
0.679,0.177,0.417,-9.888,64.026,50.476
0.662,0.193,0.389,-13.123,50.903,46.082
0.631,0.259,0.349,-14.709,41.504,41.992
0.596,0.336,0.328,-14.526,37.048,39.368
0.597,0.391,0.326,-13.184,35.156,40.222
0.606,0.428,0.341,-9.888,33.752,41.138
0.618,0.430,0.372,-5.554,31.067,41.382
0.634,0.356,0.382,-1.648,25.574,41.199
0.619,0.313,0.365,-0.916,18.860,39.917
0.606,0.254,0.337,-3.540,13.306,36.621
0.585,0.208,0.291,-8.911,10.681,30.029
0.520,0.238,0.231,-16.541,12.268,21.057
0.510,0.316,0.194,-26.611,17.761,13.489
0.518,0.401,0.180,-35.034,23.926,7.141
0.547,0.450,0.173,-39.001,28.198,1.770
0.583,0.519,0.190,-39.368,29.358,-3.906
0.611,0.560,0.211,-34.912,26.733,-10.315
0.651,0.539,0.224,-27.344,21.606,-16.235
0.672,0.534,0.238,-20.752,16.296,-21.240
0.663,0.533,0.239,-15.137,12.878,-24.719
0.679,0.495,0.226,-10.864,12.756,-27.344
0.727,0.472,0.194,-10.315,16.052,-31.006
0.773,0.451,0.153,-14.954,20.203,-35.583
0.841,0.453,0.133,-25.024,23.437,-38.757
0.896,0.479,0.118,-38.086,22.949,-39.795
0.957,0.524,0.132,-48.523,17.822,-39.795
0.991,0.571,0.153,-54.382,7.141,-39.612
0.978,0.633,0.169,-54.871,-7.568,-39.673
0.917,0.687,0.175,-49.561,-22.522,-39.490
0.837,0.701,0.175,-39.978,-33.691,-38.208
0.750,0.702,0.178,-28.687,-37.354,-36.926
0.675,0.688,0.191,-16.785,-32.715,-35.522
0.666,0.614,0.204,-7.080,-21.790,-33.936
0.694,0.532,0.205,-3.174,-6.836,-33.203
0.731,0.499,0.203,-5.859,9.583,-33.142
0.789,0.469,0.205,-13.184,23.804,-32.410
0.857,0.464,0.198,-25.085,33.752,-30.151

1.117,1.515,-0.130,-53.040,-45.044,-31.982
1.176,1.583,-0.202,-63.477,-34.546,-24.414
1.226,1.616,-0.241,-69.824,-23.804,-16.479
1.294,1.610,-0.265,-70.129,-15.015,-6.287
1.377,1.621,-0.293,-65.186,-11.841,5.798
1.458,1.666,-0.310,-53.894,-15.686,18.005
1.530,1.695,-0.319,-35.950,-27.954,28.320
1.549,1.659,-0.341,-14.465,-48.645,36.865
1.520,1.578,-0.352,6.653,-74.219,44.495
1.494,1.543,-0.321,23.987,-99.243,52.917
1.426,1.570,-0.276,37.903,-122.192,62.134
1.284,1.554,-0.283,50.171,-138.672,72.083
1.201,1.521,-0.288,55.664,-141.846,83.313
1.106,1.551,-0.335,52.979,-132.507,94.177
0.950,1.608,-0.413,44.983,-114.197,102.417
0.822,1.730,-0.484,32.837,-86.487,111.755
0.762,1.778,-0.526,18.188,-54.016,125.244
0.837,1.729,-0.496,-0.793,-26.917,143.433
0.924,1.653,-0.424,-22.217,-16.479,159.302
0.960,1.546,-0.368,-43.884,-29.541,165.527
0.905,1.449,-0.317,-64.819,-68.604,159.912
0.695,1.259,-0.335,-78.918,-127.258,143.860
0.397,1.086,-0.418,-81.970,-192.749,119.995
0.070,1.005,-0.454,-68.787,-250.793,91.003
-0.329,0.889,-0.458,-35.767,-290.405,60.791
-0.776,0.548,-0.403,12.512,-301.819,33.447
-1.264,0.030,-0.391,61.646,-278.198,7.996
-1.703,-0.560,-0.343,102.539,-205.933,-17.395
-1.872,-1.280,-0.202,134.338,-77.942,-42.725
-1.499,-1.935,0.063,150.085,81.970,-55.786
-0.656,-2.298,0.295,150.208,226.990,-40.344
0.243,-2.463,0.585,159.058,320.312,-4.028
0.891,-2.953,0.953,195.923,352.783,23.254
1.326,-3.894,1.245,247.864,334.595,16.479
1.793,-4.000,1.573,280.212,281.738,-41.565
2.254,-4.000,1.512,245.605,204.163,-138.184
2.392,-4.000,1.526,154.785,118.896,-235.168
2.351,-3.180,1.318,42.358,37.231,-311.401
2.040,-2.308,0.811,-49.927,-21.606,-349.670
1.714,-1.451,0.351,-123.413,-28.442,-340.454
1.582,-0.608,0.117,-170.593,14.893,-292.847
1.624,0.043,-0.042,-183.960,83.496,-228.699
1.747,0.276,-0.142,-169.739,150.024,-165.955
1.809,0.025,-0.262,-135.315,193.604,-107.788
1.925,-0.045,-0.065,-92.834,207.581,-68.787
1.975,0.258,0.094,-52.917,178.406,-34.729
1.859,0.001,0.189,-10.803,114.746,14.893
1.726,-0.115,0.313,21.301,38.635,46.143
1.442,-0.211,0.370,48.950,-35.583,66.589
1.193,-0.247,0.447,70.190,-99.670,73.181
0.947,-0.377,0.459,84.717,-142.212,74.463
0.707,-0.542,0.475,88.867,-159.851,75.378
0.648,-0.594,0.580,80.750,-156.799,76.416
0.606,-0.651,0.580,64.331,-142.822,84.961
0.652,-0.571,0.716,43.274,-120.361,95.520
0.698,-0.580,0.757,25.757,-96.619,104.675
0.795,-0.626,0.797,12.085,-72.144,107.483
0.868,-0.685,0.805,2.502,-48.828,104.614
0.881,-0.716,0.769,-5.249,-29.480,98.572
0.889,-0.688,0.712,-12.085,-12.085,94.177
0.891,-0.647,0.643,-15.869,5.005,91.797
0.859,-0.596,0.586,-12.878,23.743,90.515
0.858,-0.541,0.554,-4.395,43.640,91.125
0.891,-0.510,0.549,7.507,61.829,94.849
0.908,-0.475,0.562,19.958,74.280,101.013
0.922,-0.425,0.572,30.945,80.383,108.643
0.940,-0.385,0.572,38.574,81.482,116.760
0.972,-0.405,0.569,42.480,78.613,124.634
0.989,-0.398,0.559,41.931,71.838,130.981
1.001,-0.357,0.554,39.490,60.425,133.423
0.993,-0.325,0.546,36.072,45.410,132.812
0.914,-0.265,0.507,32.166,28.381,132.080
0.807,-0.171,0.450,28.931,13.367,131.958
0.691,-0.084,0.391,27.710,3.723,131.104
0.614,-0.012,0.332,28.320,0.671,128.052
0.541,0.123,0.295,31.067,3.845,121.826
0.515,0.230,0.289,35.034,10.437,117.676
0.553,0.229,0.283,39.124,16.174,117.676
0.551,0.206,0.271,41.870,20.630,118.591
0.526,0.255,0.264,42.847,25.391,119.019
0.513,0.318,0.276,43.701,30.579,118.591
0.529,0.320,0.279,44.739,35.461,116.821
0.530,0.345,0.292,44.739,39.978,114.197
0.512,0.482,0.298,43.335,43.457,111.816
0.475,0.646,0.304,42.664,46.509,109.009
0.467,0.708,0.302,42.480,49.438,106.262
0.479,0.697,0.277,40.039,51.270,102.356
0.426,0.775,0.263,34.302,53.040,94.360
0.356,0.889,0.262,27.405,55.237,86.121
0.377,0.891,0.254,20.874,57.007,80.078
0.413,0.847,0.246,13.733,57.922,71.533
0.378,0.864,0.266,6.836,58.594,59.143
0.446,0.828,0.283,0.427,57.861,47.241
0.568,0.789,0.285,-7.080,54.382,35.950
0.574,0.839,0.301,-14.343,47.607,25.513
0.567,0.892,0.307,-19.348,38.208,18.982
0.581,0.866,0.287,-21.423,27.954,15.259
0.557,0.841,0.252,-25.818,18.555,10.559
0.527,0.828,0.214,-31.921,10.864,3.784
0.516,0.809,0.155,-39.490,5.188,-4.456
0.504,0.825,0.123,-47.302,2.014,-14.282
0.526,0.879,0.129,-52.673,0.671,-22.583
0.576,0.882,0.123,-54.382,-1.465,-26.794
0.654,0.867,0.107,-54.016,-5.737,-31.250
0.668,0.882,0.107,-51.025,-10.498,-37.903
0.687,0.873,0.106,-45.959,-16.907,-42.419
0.694,0.844,0.098,-40.649,-23.560,-45.959
0.685,0.821,0.092,-36.682,-27.588,-49.561
0.675,0.794,0.091,-33.691,-29.236,-53.650
0.676,0.771,0.094,-33.142,-27.771,-56.885
0.686,0.758,0.089,-34.912,-24.963,-58.655
0.730,0.739,0.088,-39.490,-21.973,-56.702
0.741,0.746,0.083,-46.143,-19.958,-52.612
0.756,0.740,0.067,-52.979,-19.104,-48.767
0.771,0.727,0.045,-58.838,-19.043,-46.021
0.767,0.735,0.022,-63.477,-19.592,-44.250
0.774,0.751,0.010,-65.369,-20.752,-43.030
0.783,0.757,0.005,-64.636,-22.034,-41.931
0.788,0.769,0.013,-61.523,-22.461,-41.016

1.197,1.262,0.122,16.296,-22.949,7.690
1.140,1.323,0.090,15.076,-56.885,6.470
1.062,1.362,0.043,14.099,-86.426,3.052
0.965,1.423,-0.010,13.428,-109.680,-1.709
0.826,1.479,-0.078,13.855,-125.244,-7.812
0.695,1.492,-0.120,16.113,-129.883,-14.587
0.602,1.552,-0.120,20.020,-123.962,-20.325
0.511,1.701,-0.096,26.062,-112.244,-25.330
0.432,1.829,-0.071,37.354,-97.656,-28.137
0.367,1.902,-0.080,51.453,-81.726,-27.039
0.316,1.976,-0.098,64.331,-64.514,-25.452
0.286,1.974,-0.106,74.707,-45.654,-24.170
0.278,1.890,-0.127,80.627,-28.625,-22.400
0.231,1.841,-0.164,77.393,-16.602,-22.034
0.222,1.798,-0.153,63.660,-9.644,-22.217
0.337,1.672,-0.089,38.696,-13.245,-17.700
0.407,1.459,-0.049,7.141,-37.048,-12.573
0.352,1.246,-0.068,-26.794,-79.224,-12.146
0.203,1.042,-0.102,-58.533,-126.892,-17.273
0.054,0.840,-0.153,-82.336,-168.213,-26.733
-0.109,0.683,-0.173,-93.628,-197.754,-42.053
-0.300,0.502,-0.151,-88.623,-212.280,-62.988
-0.524,0.230,-0.079,-67.505,-210.266,-85.876
-0.727,-0.098,0.001,-36.377,-192.810,-107.300
-0.845,-0.496,0.094,0.183,-162.720,-122.620
-0.869,-0.945,0.188,35.950,-124.146,-129.822
-0.817,-1.528,0.319,71.960,-76.294,-131.042
-0.673,-2.373,0.505,107.666,-21.118,-133.423
-0.421,-3.328,0.684,134.644,40.466,-139.465
0.043,-4.000,0.856,148.560,109.741,-142.761
0.740,-4.000,1.099,145.264,169.983,-155.151
1.589,-3.962,1.417,128.357,208.984,-181.152
2.451,-3.282,1.814,109.741,210.754,-210.876
2.846,-2.445,1.988,87.341,168.762,-229.675
2.663,-1.694,1.719,56.763,104.065,-234.375
2.122,-1.217,1.133,8.911,52.368,-215.637
1.662,-0.845,0.556,-53.467,45.105,-178.955
1.427,-0.400,0.204,-113.770,81.848,-136.475
1.392,-0.080,0.093,-149.414,138.855,-99.365
1.509,0.072,0.089,-155.212,191.162,-71.899
1.651,0.147,0.157,-137.451,216.370,-47.424
1.725,0.202,0.252,-104.492,203.796,-20.752
1.705,0.175,0.330,-63.293,157.166,8.362
1.622,0.047,0.378,-20.752,90.393,36.438
1.444,-0.091,0.377,15.564,16.907,56.824
1.213,-0.175,0.352,43.274,-47.607,66.162
1.009,-0.233,0.336,64.087,-95.276,64.880
0.877,-0.345,0.350,77.209,-122.681,59.937
0.900,-0.390,0.470,79.956,-133.606,58.350
0.743,-0.609,0.318,74.280,-137.939,64.514
0.593,-0.660,0.411,54.871,-121.704,60.425
0.622,-0.341,0.494,32.471,-96.375,50.354
0.684,-0.462,0.345,18.005,-78.430,54.077
0.704,-0.498,0.364,2.625,-53.772,40.588
0.716,-0.266,0.378,-13.855,-25.269,20.020
0.857,-0.079,0.387,-19.043,-7.446,14.526
1.002,-0.112,0.401,-19.836,2.930,16.663
1.086,-0.092,0.391,-16.296,4.150,19.897
1.127,-0.031,0.406,-10.681,-0.549,22.583
1.144,0.010,0.402,-1.953,-8.179,27.161
1.153,0.014,0.415,7.690,-16.724,33.936
1.141,-0.010,0.400,17.090,-25.330,39.856
1.121,-0.053,0.387,24.536,-30.518,43.030
1.064,-0.106,0.371,29.541,-31.189,45.776
1.009,-0.125,0.369,30.212,-28.076,47.058
1.004,-0.139,0.364,27.954,-23.071,48.584
1.002,-0.172,0.368,25.452,-17.029,49.438
1.024,-0.209,0.388,23.560,-11.353,48.584
1.052,-0.245,0.409,21.973,-7.507,46.997
1.054,-0.266,0.415,22.034,-5.981,44.617
1.044,-0.279,0.420,22.156,-5.737,42.297
1.035,-0.317,0.413,21.484,-5.371,41.626
0.993,-0.343,0.397,20.203,-4.333,41.931
0.944,-0.345,0.395,18.616,-0.610,43.762
0.927,-0.345,0.401,16.113,5.249,49.133
0.916,-0.340,0.397,13.611,10.925,56.824
0.880,-0.328,0.374,10.376,15.503,64.392
0.867,-0.344,0.355,6.775,19.897,70.251
0.833,-0.350,0.321,2.563,22.949,73.669
0.782,-0.319,0.287,-2.075,26.428,74.463
0.760,-0.267,0.264,-6.653,30.762,73.303
0.754,-0.208,0.250,-10.132,35.217,70.618
0.733,-0.134,0.246,-10.803,39.124,67.078
0.718,-0.071,0.246,-8.240,43.335,63.721
0.754,-0.082,0.252,-3.784,47.852,61.096
0.775,-0.087,0.247,-0.427,50.720,59.448
0.761,-0.022,0.241,1.160,51.453,59.326
0.756,0.048,0.232,1.282,50.659,60.974
0.794,0.018,0.220,0.366,47.607,62.378
0.806,-0.003,0.192,-2.441,42.725,60.181
0.769,0.043,0.177,-6.775,38.696,54.321
0.769,0.054,0.171,-11.780,35.156,49.683
0.783,0.052,0.159,-16.174,31.189,45.776
0.779,0.110,0.158,-20.203,26.611,41.870
0.792,0.173,0.173,-21.606,22.278,38.452
0.801,0.213,0.181,-20.386,17.761,35.828
0.776,0.281,0.184,-17.578,13.184,34.668
0.750,0.379,0.199,-14.160,9.338,36.804
0.767,0.364,0.214,-9.277,5.371,41.870
0.782,0.307,0.201,-5.371,1.770,45.593
0.775,0.303,0.188,-4.028,-0.366,46.265
0.803,0.280,0.184,-4.639,-1.526,44.250
0.799,0.301,0.174,-6.897,-2.808,39.368
0.760,0.333,0.176,-11.536,-3.601,35.583
0.751,0.326,0.180,-16.663,-3.235,34.729
0.749,0.324,0.185,-23.193,-0.610,36.072
0.728,0.359,0.192,-31.128,2.686,38.879
0.716,0.378,0.189,-37.476,6.348,41.992
0.687,0.401,0.167,-41.931,9.338,44.006
0.684,0.382,0.145,-44.983,12.512,43.518
0.710,0.319,0.110,-46.509,16.479,37.170
0.687,0.312,0.071,-49.255,22.522,25.574
0.688,0.360,0.047,-55.420,29.968,15.808
0.712,0.443,0.030,-62.683,36.926,11.780
0.750,0.513,0.015,-67.566,41.138,13.245
0.789,0.573,0.022,-68.787,40.955,15.503
0.813,0.650,0.051,-64.880,37.109,15.747
0.825,0.708,0.070,-56.091,29.297,15.015
0.845,0.703,0.073,-45.044,18.921,14.954

1.163,1.499,-0.060,-1.465,24.109,7.874
1.138,1.595,-0.092,-0.183,15.076,20.752
1.129,1.702,-0.100,2.869,9.338,36.377
1.168,1.742,-0.092,9.216,4.578,51.819
1.242,1.710,-0.116,16.846,-5.859,65.247
1.281,1.776,-0.153,22.827,-26.062,71.472
1.258,1.917,-0.210,28.687,-55.603,71.411
1.194,2.082,-0.288,38.696,-91.309,68.909
1.081,2.181,-0.370,52.307,-126.221,67.444
0.973,2.230,-0.458,67.871,-156.555,69.702
0.842,2.190,-0.493,80.505,-179.016,77.271
0.678,2.031,-0.526,88.135,-194.214,88.074
0.479,1.896,-0.598,88.318,-203.308,96.130
0.267,1.860,-0.638,80.139,-203.735,94.482
0.024,1.859,-0.679,67.932,-194.824,82.397
-0.193,1.766,-0.707,58.594,-176.147,63.049
-0.334,1.614,-0.686,52.246,-147.461,39.551
-0.342,1.427,-0.591,50.598,-115.234,13.794
-0.267,1.183,-0.442,54.749,-90.332,-12.329
-0.201,0.871,-0.312,63.660,-81.299,-38.696
-0.229,0.516,-0.229,77.393,-85.693,-65.613
-0.276,0.139,-0.106,99.731,-89.478,-95.398
-0.224,-0.410,0.094,125.000,-84.229,-121.826
-0.013,-1.220,0.445,133.606,-71.655,-129.944
0.521,-2.075,0.871,114.258,-60.486,-114.868
1.087,-2.371,1.207,77.576,-76.843,-94.055
1.344,-2.196,1.381,42.236,-132.874,-78.796
1.176,-2.070,1.334,15.930,-204.651,-48.279
0.891,-1.996,1.204,4.456,-287.048,61.523
0.063,-1.907,1.074,65.186,-270.020,100.586
-0.047,-1.968,0.998,113.708,-222.290,106.384
-0.108,-1.906,0.922,151.123,-155.212,82.520
-0.065,-1.806,0.937,170.166,-81.299,40.466
0.155,-1.690,1.093,166.382,-16.724,-5.310
0.422,-1.526,1.244,143.005,20.813,-42.908
0.661,-1.294,1.333,106.445,25.757,-68.848
0.801,-1.040,1.321,65.247,2.991,-82.397
0.820,-0.833,1.221,28.809,-33.813,-84.167
0.740,-0.636,1.078,3.174,-71.472,-79.529
0.644,-0.458,0.995,-7.935,-97.900,-75.256
0.553,-0.196,0.948,-6.409,-111.694,-71.045
0.456,-0.131,0.849,5.310,-116.394,-55.786
0.421,-0.170,0.800,22.278,-108.704,-38.757
0.434,-0.152,0.832,39.795,-89.600,-27.222
0.493,-0.170,0.919,55.298,-68.909,-17.761
0.546,-0.249,0.995,65.979,-53.772,-9.888
0.545,-0.330,1.051,70.496,-44.312,-3.723
0.543,-0.400,1.112,67.505,-37.415,3.418
0.533,-0.427,1.157,57.129,-34.485,13.367
0.474,-0.453,1.112,41.321,-36.255,22.095
0.388,-0.413,1.103,22.156,-33.936,26.367
0.345,-0.395,1.084,4.578,-27.466,28.076
0.355,-0.346,1.086,-8.667,-19.653,27.832
0.361,-0.319,1.069,-18.677,-11.841,28.137
0.344,-0.268,1.060,-25.452,-3.540,30.640
0.325,-0.224,1.057,-28.137,6.165,36.255
0.347,-0.220,1.060,-27.771,17.639,44.250
0.423,-0.240,1.087,-26.184,27.893,51.697
0.493,-0.262,1.115,-24.719,33.142,56.213
0.522,-0.282,1.138,-23.437,31.006,58.960
0.531,-0.318,1.143,-21.545,23.682,60.425
0.500,-0.380,1.141,-18.433,13.977,60.608
0.480,-0.452,1.109,-15.564,5.127,61.096
0.443,-0.503,1.060,-13.855,-0.488,60.791
0.382,-0.509,1.000,-15.686,-0.732,59.509
0.298,-0.474,0.931,-20.996,6.409,61.218
0.235,-0.406,0.882,-29.053,21.973,65.552
0.209,-0.386,0.853,-35.645,43.823,69.824
0.218,-0.404,0.841,-40.039,68.970,72.205
0.241,-0.406,0.839,-43.274,93.872,72.327
0.295,-0.388,0.838,-45.654,115.967,72.937
0.388,-0.373,0.843,-46.570,132.507,75.317
0.512,-0.324,0.861,-46.387,140.808,78.735
0.607,-0.247,0.885,-45.166,137.573,81.909
0.614,-0.177,0.874,-42.542,124.146,84.839
0.556,-0.131,0.843,-38.513,108.459,88.501
0.503,-0.125,0.823,-33.264,97.229,93.933
0.443,-0.131,0.790,-27.832,93.689,99.731
0.394,-0.066,0.751,-25.452,98.572,104.614
0.402,0.011,0.723,-25.085,110.657,108.032
0.473,0.042,0.727,-27.710,124.573,110.901
0.540,0.064,0.732,-33.142,132.751,114.380
0.623,0.074,0.731,-38.330,132.568,115.906
0.710,0.084,0.731,-41.443,124.573,113.708
0.707,0.155,0.712,-40.955,110.352,106.750
0.661,0.260,0.682,-37.598,94.604,99.487
0.650,0.319,0.639,-31.921,79.468,95.337
0.635,0.363,0.617,-26.611,66.528,91.492
0.627,0.373,0.620,-22.339,55.359,88.989
0.628,0.372,0.618,-20.935,42.847,88.989
0.593,0.331,0.640,-23.071,28.442,89.050
0.561,0.315,0.629,-30.518,14.404,88.074
0.580,0.361,0.658,-41.504,1.709,87.097
0.562,0.395,0.685,-52.185,-8.911,84.717
0.476,0.484,0.687,-59.814,-19.714,79.895
0.386,0.557,0.633,-62.561,-27.771,75.439
0.342,0.572,0.555,-60.852,-31.189,72.144
0.265,0.584,0.487,-56.274,-28.870,65.002
0.176,0.609,0.456,-49.561,-21.729,54.016
0.131,0.624,0.433,-41.260,-8.789,41.809
0.142,0.624,0.435,-34.058,9.094,33.264
0.221,0.581,0.444,-31.189,29.175,29.907
0.236,0.562,0.431,-33.752,48.340,28.992
0.240,0.572,0.411,-40.405,65.063,29.175
0.248,0.594,0.384,-46.509,78.613,26.062
0.315,0.604,0.401,-50.476,89.539,20.203
0.428,0.579,0.420,-54.932,94.482,13.123
0.514,0.583,0.434,-61.951,90.332,4.944
0.577,0.612,0.413,-70.190,75.378,-2.930
0.587,0.674,0.369,-78.125,52.307,-9.460
0.584,0.746,0.300,-80.322,26.611,-15.869
0.556,0.808,0.239,-75.623,3.723,-23.499
0.530,0.836,0.198,-65.247,-13.916,-31.189
0.520,0.833,0.154,-52.795,-25.879,-38.086
0.475,0.857,0.123,-40.649,-31.189,-43.579
0.484,0.858,0.119,-29.663,-30.823,-46.570
0.534,0.860,0.136,-20.264,-29.053,-49.255
0.523,0.875,0.165,-12.817,-29.724,-51.331
0.491,0.861,0.177,-8.118,-32.349,-50.781

0.752,1.277,0.460,-9.888,-18.433,-49.194
0.749,1.301,0.460,-5.249,-36.072,-44.800
0.725,1.323,0.463,-0.793,-49.072,-42.908
0.706,1.332,0.484,3.235,-58.838,-40.527
0.665,1.359,0.503,4.944,-67.139,-33.936
0.594,1.387,0.510,7.019,-73.425,-24.597
0.536,1.379,0.503,8.545,-76.538,-15.686
0.504,1.361,0.501,9.094,-75.806,-7.385
0.510,1.366,0.514,8.423,-74.280,-0.488
0.572,1.348,0.539,7.690,-74.768,5.188
0.662,1.345,0.560,6.409,-78.613,12.024
0.764,1.356,0.586,4.028,-88.257,21.912
0.865,1.363,0.599,2.563,-105.713,32.227
0.927,1.397,0.573,2.686,-128.357,39.551
0.904,1.426,0.516,4.150,-153.320,44.739
0.836,1.493,0.455,7.080,-176.453,50.171
0.711,1.538,0.352,12.573,-195.862,55.725
0.579,1.573,0.257,20.874,-208.557,59.570
0.451,1.636,0.181,31.433,-215.149,60.852
0.337,1.705,0.107,45.105,-218.384,58.960
0.232,1.757,0.014,58.533,-219.604,55.847
0.164,1.823,-0.056,68.787,-219.788,53.894
0.174,1.959,-0.108,75.073,-220.642,51.819
0.202,2.010,-0.152,81.238,-223.450,46.814
0.214,1.973,-0.178,86.182,-226.929,39.246
0.229,1.882,-0.186,88.867,-231.262,31.006
0.224,1.784,-0.199,89.966,-236.877,21.484
0.204,1.680,-0.221,90.698,-241.333,10.010
0.154,1.573,-0.256,91.736,-244.080,-3.540
0.088,1.458,-0.288,95.032,-244.568,-17.151
0.029,1.329,-0.320,101.501,-242.737,-29.419
-0.006,1.161,-0.365,110.718,-239.319,-41.016
-0.052,0.957,-0.364,117.981,-234.375,-50.903
-0.087,0.683,-0.333,121.094,-229.858,-55.298
-0.129,0.370,-0.262,117.493,-227.234,-54.504
-0.230,0.002,-0.186,106.384,-224.609,-47.974
-0.386,-0.439,-0.098,86.243,-215.637,-31.494
-0.552,-0.886,0.020,58.716,-195.129,-7.690
-0.685,-1.293,0.201,31.067,-164.551,14.099
-0.788,-1.723,0.474,15.015,-130.249,27.039
-0.755,-2.090,0.728,18.616,-101.196,24.414
-0.665,-2.246,1.022,44.617,-86.365,9.766
-0.746,-2.243,1.221,91.309,-92.712,-2.075
-0.936,-2.277,1.312,148.437,-109.619,0.061
-1.127,-2.360,1.375,201.721,-114.929,12.085
-1.261,-2.363,1.416,238.159,-96.008,22.766
-1.275,-2.279,1.370,256.836,-52.368,29.602
-1.034,-2.232,1.285,255.127,12.024,29.053
-0.577,-2.160,1.200,227.539,88.745,13.977
-0.029,-1.951,1.245,174.988,160.645,-20.142
0.401,-1.552,1.437,112.000,205.444,-62.439
0.767,-0.996,1.749,58.716,209.167,-80.688
0.997,-0.383,2.050,30.884,166.138,-68.542
0.952,-0.074,2.131,29.663,88.501,-41.016
0.659,-0.198,1.950,36.926,4.089,-12.756
0.243,-0.349,1.717,31.555,-54.993,7.874
-0.088,-0.439,1.475,12.512,-78.003,22.888
-0.412,-0.529,1.289,-12.024,-64.636,26.733
-0.660,-0.283,1.174,-33.142,-25.757,19.104
-0.630,-0.346,1.198,-49.011,10.193,26.184
-0.523,-0.473,1.100,-57.556,35.339,30.884
-0.402,-0.412,1.087,-62.988,48.828,23.437
-0.249,-0.395,1.047,-64.270,43.152,15.198
-0.160,-0.377,0.957,-61.951,23.621,8.484
-0.107,-0.260,0.899,-55.725,2.197,2.075
-0.079,-0.249,0.842,-43.884,-16.174,0.732
-0.090,-0.266,0.818,-31.616,-25.452,5.554
-0.143,-0.277,0.801,-22.217,-25.513,16.907
-0.214,-0.309,0.816,-17.517,-16.296,31.616
-0.283,-0.303,0.845,-16.479,-0.977,45.410
-0.318,-0.293,0.891,-16.479,16.968,54.749
-0.270,-0.307,0.965,-15.259,34.912,59.143
-0.162,-0.307,1.058,-13.611,46.265,58.899
-0.072,-0.330,1.119,-12.207,45.105,56.946
-0.031,-0.353,1.157,-12.817,33.936,56.213
-0.046,-0.406,1.156,-14.832,18.005,58.960
-0.125,-0.431,1.113,-17.517,4.761,61.157
-0.222,-0.413,1.055,-20.264,1.343,60.730
-0.284,-0.421,1.011,-23.132,10.315,58.960
-0.309,-0.440,0.984,-26.733,28.503,59.509
-0.310,-0.427,0.966,-34.424,52.063,63.416
-0.294,-0.425,0.948,-44.067,76.721,69.031
-0.236,-0.442,0.953,-53.894,100.098,74.890
-0.128,-0.442,1.003,-63.599,116.760,79.041
-0.032,-0.444,1.056,-72.083,121.155,79.468
0.040,-0.446,1.074,-77.698,113.525,76.538
0.061,-0.370,1.044,-81.543,98.572,70.740
0.038,-0.233,0.990,-84.167,83.374,64.392
-0.005,-0.156,0.933,-84.900,73.242,63.049
-0.041,-0.159,0.875,-84.229,70.068,68.420
-0.089,-0.146,0.834,-83.618,74.707,76.538
-0.116,-0.141,0.817,-84.045,86.914,85.144
-0.110,-0.101,0.806,-84.045,105.042,91.370
-0.107,0.001,0.794,-82.458,124.939,91.858
-0.036,0.089,0.810,-79.529,142.517,89.966
0.135,0.175,0.856,-76.416,151.550,88.623
0.272,0.258,0.892,-73.425,143.738,85.754
0.380,0.309,0.928,-69.824,120.605,82.397
0.404,0.333,0.917,-64.392,86.182,78.613
0.345,0.358,0.877,-56.458,48.523,73.486
0.284,0.335,0.854,-47.058,16.174,70.801
0.205,0.290,0.812,-37.781,-8.728,69.824
0.116,0.288,0.761,-28.748,-24.109,67.627
0.069,0.284,0.773,-20.142,-27.466,65.613
0.065,0.279,0.799,-13.977,-21.118,65.735
0.056,0.303,0.809,-10.864,-10.559,65.308
0.026,0.354,0.814,-12.817,2.625,66.406
-0.023,0.442,0.791,-18.616,16.296,69.519
-0.035,0.471,0.799,-25.696,29.358,72.632
0.020,0.407,0.788,-32.532,40.100,71.960
0.076,0.365,0.764,-38.757,45.898,61.951
0.161,0.391,0.780,-44.006,47.241,46.021
0.233,0.450,0.805,-46.265,41.626,31.372
0.302,0.498,0.833,-47.119,27.649,22.339
0.341,0.521,0.846,-46.387,5.127,19.104
0.291,0.538,0.818,-43.823,-22.644,17.761
0.192,0.552,0.775,-38.086,-48.950,17.334
0.135,0.539,0.759,-29.724,-67.932,17.822
0.068,0.532,0.726,-20.020,-80.017,15.808

0.319,1.514,0.926,8.789,-80.505,-5.188
0.390,1.707,0.901,12.634,-93.628,-3.296
0.495,1.933,0.832,15.198,-108.398,-4.639
0.564,2.242,0.716,16.174,-124.817,-10.315
0.513,2.603,0.596,20.081,-141.174,-16.541
0.425,2.854,0.391,28.381,-157.288,-18.677
0.284,2.985,0.120,30.212,-170.349,-16.907
0.149,3.087,-0.174,20.325,-177.795,-11.963
0.098,3.269,-0.430,4.089,-179.199,-5.371
-0.024,3.410,-0.663,-12.329,-178.955,1.343
-0.169,3.416,-0.913,-24.475,-178.955,7.690
-0.236,3.250,-1.191,-28.076,-174.500,10.254
-0.356,2.960,-1.441,-23.621,-166.870,7.446
-0.419,2.619,-1.589,-7.874,-162.720,5.249
-0.442,2.163,-1.601,28.931,-169.434,4.700
-0.478,1.562,-1.465,85.144,-189.880,6.958
-0.652,0.593,-1.191,145.203,-216.980,15.564
-0.868,-0.429,-1.017,184.937,-241.394,22.705
-1.202,-1.368,-0.717,196.899,-237.366,30.273
-1.646,-2.298,-0.191,194.397,-192.505,42.053
-1.883,-3.351,0.242,173.401,-109.192,49.805
-1.624,-3.863,0.742,124.817,-1.587,52.429
-1.184,-4.000,1.340,103.210,85.205,42.297
-0.731,-4.000,2.220,145.508,126.404,-1.831
-0.323,-4.000,2.856,225.281,103.882,-54.565
-0.086,-3.861,3.096,298.462,37.659,-85.632
-0.010,-3.568,2.854,322.510,-30.090,-101.868
0.114,-3.043,2.330,277.588,-59.692,-116.394
0.288,-2.221,1.811,188.416,-32.898,-134.033
0.456,-1.398,1.552,96.130,31.982,-138.306
0.793,-0.861,1.446,29.724,97.168,-112.610
1.050,-0.479,1.446,-2.319,135.742,-74.341
1.118,-0.208,1.557,-4.272,140.625,-36.011
1.058,-0.380,1.598,6.897,113.586,6.592
0.770,-0.559,1.559,9.277,66.589,41.565
0.303,-0.644,1.412,-0.854,19.165,63.843
-0.139,-0.778,1.186,-16.418,-11.536,71.960
-0.458,-0.759,1.022,-31.860,-22.827,65.491
-0.737,-0.478,0.892,-40.222,-20.447,49.011
-0.798,-0.479,0.764,-43.091,-11.414,43.701
-0.741,-0.595,0.607,-36.987,-7.202,45.532
-0.699,-0.529,0.537,-33.264,7.019,34.058
-0.589,-0.442,0.606,-27.954,19.531,24.841
-0.472,-0.450,0.626,-21.667,27.161,21.729
-0.359,-0.419,0.674,-15.442,30.640,19.165
-0.335,-0.334,0.717,-11.047,33.203,15.137
-0.294,-0.311,0.784,-8.057,36.621,15.015
-0.247,-0.299,0.873,-8.118,39.856,19.409
-0.225,-0.286,0.976,-8.667,40.710,23.987
-0.195,-0.297,1.077,-9.216,40.039,26.306
-0.168,-0.321,1.185,-9.827,36.926,26.428
-0.117,-0.346,1.273,-13.123,29.480,25.757
-0.120,-0.344,1.320,-19.287,16.052,26.428
-0.169,-0.299,1.297,-26.245,1.038,27.161
-0.243,-0.251,1.233,-32.654,-7.935,27.405
-0.323,-0.225,1.159,-37.598,-7.751,26.794
-0.361,-0.202,1.103,-40.649,1.648,25.513
-0.365,-0.171,1.062,-41.138,16.846,23.560
-0.328,-0.160,1.057,-38.635,33.936,21.057
-0.259,-0.184,1.078,-34.241,48.096,20.569
-0.190,-0.220,1.102,-32.288,55.847,22.461
-0.138,-0.246,1.125,-32.349,56.396,25.757
-0.097,-0.248,1.133,-33.875,52.307,28.870
-0.070,-0.240,1.132,-36.560,45.654,30.457
-0.054,-0.273,1.132,-39.551,38.269,30.640
-0.034,-0.292,1.118,-42.664,30.823,31.921
-0.025,-0.272,1.074,-45.654,23.071,33.630
-0.013,-0.223,1.028,-47.791,16.479,33.752
-0.010,-0.210,0.990,-49.561,11.963,34.485
-0.035,-0.209,0.953,-52.917,10.132,39.185
-0.093,-0.199,0.925,-57.068,12.024,47.119
-0.181,-0.192,0.889,-58.472,19.043,54.138
-0.250,-0.210,0.862,-55.786,32.715,56.458
-0.302,-0.250,0.844,-50.049,52.124,54.932
-0.296,-0.218,0.839,-44.067,74.646,52.002
-0.196,-0.134,0.861,-39.551,95.154,48.584
-0.076,-0.117,0.888,-35.278,107.849,44.800
0.015,-0.136,0.909,-33.020,111.938,41.870
0.122,-0.146,0.965,-35.217,109.253,42.236
0.247,-0.162,1.005,-40.344,97.961,44.983
0.283,-0.160,1.010,-46.265,77.759,45.105
0.253,-0.176,1.007,-52.429,54.688,44.128
0.219,-0.212,0.996,-56.885,34.729,45.166
0.127,-0.164,0.934,-59.509,21.545,44.556
0.031,-0.058,0.875,-60.547,17.639,40.894
-0.018,-0.007,0.817,-58.899,24.048,38.391
-0.064,0.051,0.747,-56.335,37.170,37.537
-0.078,0.128,0.730,-53.406,54.321,37.354
-0.017,0.149,0.753,-48.767,70.923,37.842
0.039,0.141,0.780,-43.213,81.238,37.598
0.132,0.116,0.839,-38.818,84.351,36.926
0.220,0.090,0.896,-35.217,77.942,35.461
0.299,0.043,0.938,-32.593,62.073,30.701
0.318,0.043,0.925,-30.945,40.771,23.499
0.294,0.065,0.879,-32.715,18.921,16.357
0.258,0.074,0.804,-38.025,0.427,12.329
0.193,0.149,0.729,-46.448,-11.597,10.559
0.128,0.251,0.681,-55.542,-17.029,10.193
0.108,0.293,0.645,-62.439,-16.663,9.827
0.104,0.360,0.615,-64.331,-11.108,6.042
0.112,0.441,0.606,-61.829,-1.465,0.916
0.140,0.465,0.623,-55.664,9.460,-2.258
0.166,0.467,0.659,-47.363,19.653,-2.747
0.161,0.448,0.701,-37.903,26.978,-0.977
0.121,0.446,0.706,-29.846,31.860,2.319
0.049,0.453,0.705,-23.621,36.255,6.409
0.044,0.414,0.719,-18.494,41.382,9.277
0.027,0.404,0.702,-14.465,46.692,7.690
0.025,0.413,0.685,-13.428,51.758,1.709
0.089,0.414,0.670,-16.357,56.946,-5.676
0.152,0.442,0.654,-22.766,59.021,-14.709
0.209,0.463,0.645,-31.311,56.580,-24.414
0.242,0.518,0.644,-38.818,50.415,-33.264
0.214,0.596,0.644,-42.053,42.542,-40.039
0.160,0.639,0.649,-39.673,35.095,-42.725
0.100,0.655,0.639,-33.081,30.823,-41.992
0.013,0.660,0.630,-23.804,31.250,-40.344
-0.035,0.628,0.626,-12.939,38.086,-38.574
-0.043,0.584,0.640,-1.892,51.941,-38.513

0.805,1.435,0.686,6.714,-22.156,3.601
0.919,1.485,0.714,11.597,-29.785,11.963
1.012,1.509,0.696,15.686,-45.044,18.616
1.053,1.540,0.684,18.738,-65.674,21.423
1.088,1.579,0.657,22.766,-89.417,20.874
1.121,1.632,0.639,28.198,-114.197,16.846
1.083,1.693,0.646,37.903,-138.000,11.414
1.018,1.820,0.632,52.063,-160.706,8.057
0.911,1.969,0.584,69.336,-181.580,13.123
0.731,2.109,0.526,87.830,-198.303,29.602
0.593,2.157,0.397,105.225,-207.336,53.162
0.482,2.301,0.256,111.694,-206.360,73.975
0.303,2.521,0.138,109.436,-193.542,87.341
0.258,2.689,0.077,101.440,-172.241,96.558
0.200,2.761,0.006,90.759,-146.729,98.206
0.098,2.725,-0.027,76.660,-123.169,90.210
0.018,2.568,-0.049,59.631,-104.553,79.468
-0.160,2.300,-0.130,38.513,-94.849,66.528
-0.390,1.970,-0.277,14.465,-92.590,49.194
-0.575,1.508,-0.475,-8.240,-95.703,27.893
-0.752,1.026,-0.696,-23.682,-104.248,1.953
-1.018,0.486,-0.812,-26.001,-117.676,-25.024
-1.203,-0.250,-0.748,-13.000,-135.254,-52.246
-1.272,-1.195,-0.512,11.353,-154.236,-81.177
-1.330,-2.203,-0.104,39.612,-168.823,-106.445
-1.238,-3.192,0.524,73.242,-176.270,-112.976
-1.149,-3.909,1.020,125.916,-175.964,-90.942
-1.526,-4.000,1.209,199.890,-158.936,-52.856
-1.812,-4.000,1.169,272.888,-101.929,-24.597
-1.557,-4.000,1.127,322.327,0.549,-15.991
-0.790,-4.000,1.181,321.899,126.587,-22.522
0.211,-4.000,1.213,269.531,237.000,-50.598
1.119,-3.309,1.324,187.561,309.082,-89.294
1.697,-2.254,1.543,101.379,330.139,-108.276
1.989,-1.438,1.756,32.043,298.340,-102.417
2.071,-1.014,1.843,-14.343,226.013,-77.332
1.966,-0.732,1.782,-43.030,132.202,-43.152
1.574,-0.491,1.566,-57.312,39.978,-8.667
1.066,-0.399,1.304,-62.134,-26.978,26.917
0.585,-0.401,1.067,-63.049,-60.669,60.425
0.174,-0.400,0.928,-64.026,-63.354,85.571
-0.074,-0.394,0.880,-63.477,-46.448,102.600
-0.234,-0.487,0.780,-60.059,-24.048,111.023
-0.409,-0.553,0.737,-55.725,1.465,104.431
-0.490,-0.474,0.769,-52.063,27.100,86.914
-0.351,-0.384,0.811,-46.204,42.297,72.510
-0.176,-0.661,0.660,-40.527,46.143,61.279
0.010,-0.305,0.840,-41.138,46.326,39.795
0.165,-0.414,0.731,-38.269,28.503,34.546
0.255,-0.242,0.790,-36.194,7.141,27.222
0.268,-0.184,0.770,-32.715,-15.137,30.396
0.234,-0.056,0.812,-28.748,-32.166,34.058
0.188,0.000,0.866,-20.264,-43.762,40.405
0.137,0.043,0.947,-9.277,-49.255,43.396
0.079,0.032,1.029,2.991,-51.331,44.678
0.054,-0.015,1.127,14.954,-51.575,43.701
0.060,-0.076,1.213,23.926,-51.636,40.527
0.057,-0.087,1.271,29.480,-53.528,33.997
0.072,-0.099,1.299,31.982,-55.908,26.550
0.092,-0.149,1.310,31.372,-58.350,19.592
0.086,-0.200,1.310,27.222,-59.265,15.259
0.053,-0.249,1.290,19.409,-56.274,15.869
0.004,-0.303,1.246,9.583,-46.997,19.287
-0.021,-0.351,1.214,0.793,-30.151,22.034
0.010,-0.411,1.199,-5.554,-8.118,23.315
0.060,-0.442,1.158,-9.033,14.282,22.949
0.102,-0.404,1.109,-11.963,35.706,21.179
0.159,-0.371,1.067,-15.137,54.504,22.156
0.217,-0.344,1.043,-17.639,68.176,27.466
0.291,-0.315,1.053,-18.311,74.951,34.302
0.349,-0.315,1.078,-15.442,73.364,40.161
0.382,-0.362,1.099,-11.841,63.965,44.922
0.396,-0.400,1.101,-11.841,48.645,51.819
0.374,-0.423,1.087,-18.250,30.884,61.768
0.330,-0.432,1.046,-29.724,13.367,72.632
0.260,-0.386,0.986,-42.969,-0.427,78.918
0.193,-0.277,0.927,-56.030,-8.484,78.064
0.146,-0.164,0.879,-66.040,-11.536,71.472
0.113,-0.082,0.834,-71.777,-10.986,62.744
0.096,-0.019,0.811,-73.914,-7.629,54.871
0.087,0.018,0.803,-71.106,-3.174,49.255
0.093,0.036,0.803,-64.758,0.977,46.143
0.100,0.070,0.810,-57.190,4.211,45.715
0.093,0.091,0.815,-49.133,6.226,46.753
0.083,0.114,0.816,-41.565,7.446,49.194
0.087,0.153,0.817,-35.339,9.094,51.880
0.061,0.159,0.810,-30.701,11.108,54.077
0.058,0.119,0.801,-27.832,13.123,55.847
0.033,0.118,0.784,-26.611,15.015,55.054
0.007,0.144,0.779,-26.672,17.334,50.720
0.023,0.140,0.780,-26.672,19.836,44.312
0.044,0.129,0.779,-26.001,21.545,36.377
0.073,0.150,0.780,-25.146,23.132,28.015
0.115,0.172,0.807,-23.804,23.804,21.790
0.182,0.169,0.842,-21.423,22.461,19.287
0.225,0.174,0.865,-19.409,17.944,20.081
0.226,0.190,0.867,-19.531,10.193,23.132
0.210,0.183,0.852,-22.522,1.526,27.100
0.179,0.203,0.829,-25.757,-5.432,29.602
0.144,0.257,0.805,-29.175,-8.484,29.785
0.092,0.306,0.787,-32.349,-7.507,28.748
0.070,0.318,0.786,-34.424,-3.723,28.015
0.061,0.309,0.784,-34.424,0.977,26.123
0.043,0.321,0.778,-32.959,6.409,22.278
0.063,0.355,0.791,-30.640,11.292,18.005
0.100,0.373,0.799,-27.527,14.404,13.916
0.143,0.355,0.821,-24.353,15.137,10.376
0.184,0.348,0.829,-20.996,13.855,6.470
0.175,0.392,0.824,-18.860,10.559,3.845
0.162,0.421,0.818,-19.714,6.592,3.967
0.204,0.386,0.818,-22.156,3.052,5.737
0.214,0.364,0.803,-25.757,-0.061,5.615
0.157,0.408,0.781,-30.701,-1.648,3.845
0.104,0.432,0.765,-35.767,-1.465,4.272
0.127,0.400,0.767,-38.574,1.282,5.127
0.129,0.397,0.764,-38.635,5.554,2.258
0.143,0.410,0.785,-37.354,10.193,-2.502
0.196,0.389,0.816,-34.607,12.878,-5.371
0.219,0.380,0.840,-30.151,13.672,-8.057

0.499,1.882,0.593,19.897,91.431,71.960
0.452,2.027,0.445,22.705,102.478,74.646
0.378,2.219,0.334,18.372,117.249,80.933
0.318,2.448,0.205,9.644,133.667,91.370
0.069,2.605,0.013,-6.104,153.198,100.586
0.012,2.722,-0.063,-36.865,177.612,108.704
-0.090,2.830,-0.130,-69.153,196.777,111.450
-0.375,2.920,-0.175,-92.346,207.336,98.999
-0.509,2.980,-0.199,-104.248,213.562,76.538
-0.595,2.919,-0.208,-100.403,212.952,44.922
-0.566,2.662,-0.194,-84.229,203.491,5.615
-0.478,2.358,-0.184,-63.477,178.223,-38.452
-0.461,1.992,-0.150,-36.560,135.925,-88.745
-0.507,1.428,-0.094,-5.188,88.928,-134.583
-0.564,0.789,-0.107,22.461,48.584,-166.687
-0.474,-0.027,-0.023,43.579,23.621,-183.411
-0.131,-1.227,0.139,45.410,23.499,-173.950
0.231,-1.808,0.291,18.494,47.546,-122.131
0.424,-1.732,0.434,14.099,78.125,-43.945
0.372,-2.374,0.589,59.082,133.484,37.659
0.560,-3.588,0.901,117.676,219.971,97.839
1.579,-4.000,1.146,161.438,309.753,88.440
3.078,-4.000,1.600,142.822,362.976,-22.522
3.942,-4.000,2.092,65.735,327.087,-166.748
3.833,-2.970,1.957,-26.917,206.238,-271.790
2.854,-1.575,1.292,-95.093,79.895,-313.049
1.905,-0.939,0.468,-126.953,13.733,-286.499
1.305,-0.598,-0.095,-136.597,30.151,-229.004
1.079,-0.330,-0.370,-133.179,100.708,-182.922
1.308,-0.156,-0.337,-114.075,174.683,-145.569
1.656,-0.019,-0.023,-83.496,207.397,-112.061
1.853,0.140,0.340,-45.776,185.364,-83.923
1.893,0.052,0.526,-5.005,120.972,-55.237
1.689,-0.095,0.547,28.137,39.063,-32.349
1.359,-0.183,0.508,47.241,-32.593,-11.108
1.029,-0.211,0.525,54.932,-81.726,9.033
0.853,-0.305,0.545,57.678,-108.459,28.503
0.734,-0.366,0.592,57.739,-120.117,39.856
0.587,-0.473,0.560,54.321,-120.483,44.067
0.435,-0.515,0.562,45.471,-106.750,39.734
0.346,-0.494,0.579,36.438,-83.923,31.006
0.364,-0.467,0.557,27.283,-58.105,23.743
0.431,-0.412,0.514,17.334,-32.776,19.836
0.488,-0.371,0.438,9.460,-9.766,17.090
0.532,-0.349,0.369,4.395,11.963,11.414
0.634,-0.187,0.392,1.526,31.799,4.211
0.758,-0.140,0.379,4.272,40.833,5.798
0.819,-0.162,0.346,9.094,43.152,5.615
0.922,-0.002,0.449,14.038,44.617,0.610
1.019,-0.103,0.445,21.912,37.109,4.761
1.129,-0.077,0.573,26.184,23.560,7.874
1.211,-0.043,0.647,27.344,1.282,17.639
1.272,-0.110,0.663,28.015,-28.320,35.034
1.218,-0.147,0.654,25.269,-58.472,49.561
1.103,-0.121,0.629,21.301,-82.397,59.937
0.979,-0.152,0.584,18.433,-97.107,67.871
0.851,-0.184,0.525,15.198,-100.159,71.167
0.714,-0.194,0.464,11.230,-89.722,68.542
0.605,-0.190,0.422,8.179,-66.528,61.340
0.561,-0.195,0.404,6.409,-34.363,51.086
0.580,-0.186,0.406,6.042,0.122,41.443
0.664,-0.192,0.447,6.348,31.555,35.217
0.795,-0.212,0.481,5.981,53.284,33.569
0.904,-0.233,0.507,4.211,62.012,35.400
0.975,-0.238,0.522,1.770,59.998,38.879
0.979,-0.225,0.507,0.427,50.842,42.419
0.942,-0.168,0.473,-0.061,40.527,44.250
0.901,-0.091,0.420,-0.427,33.813,44.678
0.862,0.005,0.386,-1.648,31.738,45.349
0.830,0.034,0.370,-2.808,31.616,47.546
0.826,0.021,0.342,-2.869,31.677,49.988
0.816,0.029,0.317,-3.357,32.043,51.086
0.810,0.038,0.307,-4.211,33.997,52.185
0.840,0.059,0.320,-4.395,36.255,53.589
0.883,0.074,0.340,-3.418,36.926,56.458
0.910,0.033,0.348,-0.061,33.752,61.035
0.907,0.043,0.353,4.944,29.663,63.660
0.868,0.120,0.346,10.742,26.733,64.026
0.854,0.150,0.342,17.395,25.513,64.880
0.842,0.152,0.336,24.170,25.452,65.369
0.818,0.177,0.337,28.564,26.428,64.514
0.813,0.195,0.355,30.945,27.649,63.354
0.822,0.193,0.378,31.494,27.344,62.988
0.844,0.143,0.378,30.151,23.621,63.293
0.830,0.124,0.372,25.940,18.921,61.523
0.809,0.123,0.357,20.142,13.306,58.044
0.809,0.116,0.338,13.794,8.301,52.734
0.791,0.152,0.332,8.728,4.150,44.128
0.754,0.212,0.321,5.798,1.343,37.231
0.748,0.244,0.318,4.272,-0.183,34.668
0.761,0.249,0.325,4.578,-0.366,33.875
0.794,0.225,0.343,6.226,-0.305,32.959
0.809,0.252,0.367,7.812,-0.488,32.104
0.802,0.291,0.391,10.132,-0.671,32.959
0.783,0.302,0.391,11.047,-0.183,36.987
0.742,0.322,0.377,9.033,1.587,43.091
0.709,0.313,0.355,4.639,4.761,50.476
0.673,0.290,0.312,-3.052,8.972,57.007
0.643,0.281,0.260,-13.367,13.428,60.181
0.598,0.320,0.223,-24.475,18.738,57.983
0.567,0.405,0.214,-33.142,25.085,53.528
0.600,0.446,0.217,-37.781,29.663,49.072
0.675,0.438,0.226,-38.208,30.640,42.786
0.728,0.435,0.226,-36.560,27.588,33.203
0.749,0.464,0.241,-34.912,20.813,23.132
0.776,0.490,0.251,-33.325,10.925,16.418
0.786,0.499,0.235,-31.921,-0.183,12.146
0.771,0.500,0.204,-30.884,-9.583,8.118
0.707,0.534,0.172,-31.677,-15.076,4.761
0.649,0.587,0.145,-34.363,-15.076,5.005
0.606,0.607,0.119,-36.926,-9.888,6.531
0.580,0.617,0.103,-38.696,-0.488,6.348
0.572,0.625,0.096,-38.757,12.329,2.136
0.579,0.654,0.105,-38.208,26.306,-5.249
0.629,0.675,0.128,-36.438,37.964,-13.245
0.697,0.687,0.147,-33.630,44.861,-21.667
0.760,0.702,0.177,-29.907,46.570,-29.541
0.846,0.695,0.202,-26.550,42.725,-34.912
0.891,0.697,0.211,-25.085,34.241,-38.757

1.402,1.480,0.131,-12.268,-94.910,3.845
1.479,1.582,0.104,-8.179,-122.864,10.437
1.529,1.658,0.066,-2.502,-156.494,18.433
1.583,1.807,0.037,4.211,-193.542,26.001
1.626,2.075,0.020,14.832,-233.948,31.128
1.608,2.387,-0.015,32.593,-276.123,34.363
1.531,2.525,-0.109,55.542,-319.275,41.199
1.409,2.501,-0.272,76.050,-361.755,53.284
1.286,2.468,-0.451,89.600,-398.926,64.758
1.159,2.355,-0.631,95.398,-424.500,67.383
1.117,2.287,-0.774,90.271,-435.730,61.157
1.124,2.338,-0.779,73.914,-435.730,52.795
1.037,2.413,-0.738,59.448,-435.974,46.875
0.853,2.447,-0.692,50.720,-439.453,49.072
0.624,2.317,-0.695,48.401,-442.261,59.204
0.309,2.086,-0.715,51.575,-439.941,67.932
-0.051,1.856,-0.720,60.791,-427.612,69.702
-0.336,1.543,-0.744,76.477,-404.968,69.275
-0.606,1.045,-0.761,96.191,-375.793,69.275
-0.828,0.454,-0.696,115.173,-342.896,64.270
-0.867,-0.441,-0.418,133.667,-308.899,55.908
-0.656,-1.392,0.047,161.011,-282.593,50.903
-0.600,-1.919,0.454,200.745,-269.653,48.950
-0.793,-2.358,0.715,234.131,-258.972,72.510
-0.845,-2.930,0.788,258.850,-229.614,131.592
-1.054,-3.381,0.556,266.235,-173.340,185.547
-1.379,-3.765,0.311,248.413,-86.182,196.472
-1.519,-4.000,0.377,218.018,36.865,169.678
-1.157,-3.581,0.558,174.438,164.307,107.300
-0.567,-3.029,0.732,130.127,265.747,24.231
0.059,-2.641,0.956,93.689,324.707,-43.213
0.612,-2.279,1.200,64.453,326.965,-79.041
0.966,-1.835,1.364,43.152,276.306,-89.722
1.108,-1.331,1.388,32.532,191.528,-87.891
1.105,-0.976,1.280,30.457,96.313,-78.613
0.989,-0.837,1.066,30.518,9.277,-63.354
0.755,-0.785,0.886,27.954,-54.810,-46.509
0.528,-0.716,0.812,24.353,-92.224,-29.053
0.351,-0.683,0.758,22.156,-109.009,-7.751
0.089,-0.745,0.702,21.362,-109.009,11.353
-0.163,-0.527,0.848,18.921,-93.750,26.001
-0.359,-0.597,0.834,20.020,-81.177,48.889
-0.482,-0.682,0.816,13.855,-60.791,59.021
-0.578,-0.709,0.840,4.456,-41.016,60.303
-0.647,-0.742,0.826,-9.827,-21.057,51.025
-0.629,-0.709,0.827,-24.902,-5.127,37.903
-0.578,-0.662,0.813,-39.124,6.409,24.475
-0.496,-0.613,0.810,-50.232,13.428,13.916
-0.382,-0.510,0.827,-56.824,17.212,6.348
-0.303,-0.434,0.843,-57.007,16.785,0.854
-0.230,-0.371,0.867,-50.293,15.747,-3.906
-0.203,-0.359,0.894,-40.100,16.174,-7.263
-0.139,-0.342,0.966,-29.724,19.043,-7.446
-0.052,-0.351,1.036,-18.921,20.569,-3.296
-0.011,-0.351,1.092,-11.047,17.456,2.380
-0.020,-0.364,1.142,-6.409,10.864,9.338
-0.034,-0.410,1.161,-4.456,2.502,16.235
-0.080,-0.451,1.161,-5.310,-4.578,21.912
-0.162,-0.479,1.152,-10.376,-8.362,26.489
-0.223,-0.509,1.133,-17.151,-7.080,29.846
-0.255,-0.496,1.086,-25.391,-1.343,30.029
-0.283,-0.435,1.022,-34.180,10.010,26.367
-0.274,-0.416,0.974,-42.725,25.818,22.278
-0.215,-0.420,0.929,-50.659,42.969,20.386
-0.136,-0.365,0.917,-58.472,57.434,20.142
-0.038,-0.325,0.914,-63.171,65.918,21.240
0.040,-0.321,0.902,-63.965,67.566,23.621
0.085,-0.323,0.896,-61.462,64.514,26.917
0.102,-0.333,0.890,-55.969,59.326,30.273
0.085,-0.354,0.861,-49.011,54.749,34.180
0.043,-0.391,0.830,-42.358,53.650,39.368
0.000,-0.422,0.801,-36.987,57.312,45.532
-0.011,-0.418,0.787,-34.973,65.735,52.612
-0.013,-0.387,0.775,-36.133,76.172,61.157
-0.005,-0.405,0.759,-39.307,86.548,70.190
0.061,-0.373,0.736,-45.471,95.398,78.247
0.128,-0.305,0.737,-53.650,100.098,82.886
0.229,-0.292,0.755,-62.134,97.900,85.266
0.316,-0.261,0.751,-70.923,86.609,86.914
0.323,-0.183,0.747,-76.843,68.848,86.426
0.286,-0.127,0.738,-77.942,47.852,85.938
0.220,-0.085,0.724,-74.585,28.137,87.769
0.140,-0.031,0.704,-67.322,11.963,91.125
0.120,-0.044,0.702,-57.129,1.709,94.543
0.125,-0.044,0.703,-46.753,-4.089,97.046
0.096,-0.013,0.716,-36.621,-7.874,97.656
0.100,0.010,0.734,-27.832,-9.155,98.328
0.067,0.054,0.726,-23.926,-8.606,100.647
0.025,0.070,0.733,-23.743,-5.615,102.295
0.043,0.014,0.751,-26.611,0.793,102.478
0.020,0.001,0.739,-32.410,10.742,99.976
-0.021,0.046,0.741,-41.016,23.865,95.947
-0.013,0.029,0.765,-49.316,38.818,92.957
-0.007,0.004,0.766,-55.847,56.030,90.820
0.031,0.021,0.796,-61.523,72.815,88.257
0.118,0.003,0.846,-65.674,84.778,85.510
0.209,0.020,0.895,-67.444,89.478,79.956
0.285,0.062,0.930,-67.993,85.205,71.167
0.310,0.103,0.912,-70.374,72.144,61.523
0.271,0.147,0.852,-75.867,54.260,53.040
0.192,0.191,0.780,-82.397,37.842,45.044
0.135,0.202,0.712,-85.999,27.588,36.499
0.064,0.231,0.658,-86.365,24.475,25.024
-0.013,0.303,0.643,-84.717,28.503,13.489
-0.016,0.342,0.647,-78.308,37.903,4.272
-0.014,0.365,0.643,-68.604,50.537,-3.723
0.052,0.377,0.665,-58.655,63.416,-10.925
0.159,0.364,0.675,-49.622,72.266,-18.738
0.192,0.368,0.647,-44.189,75.928,-26.978
0.228,0.391,0.621,-44.189,75.684,-33.569
0.256,0.432,0.592,-48.218,74.707,-38.452
0.267,0.478,0.570,-52.979,73.792,-42.480
0.267,0.525,0.553,-55.664,74.402,-46.570
0.274,0.565,0.548,-56.396,76.111,-50.720
0.277,0.595,0.558,-55.237,78.064,-54.199
0.257,0.630,0.565,-53.284,80.261,-55.786
0.240,0.643,0.572,-51.208,83.801,-54.810
0.243,0.663,0.590,-48.584,90.881,-53.345
0.247,0.697,0.596,-44.678,100.464,-53.040

0.714,1.502,0.539,15.869,1.465,15.564
0.686,1.714,0.518,13.916,-10.925,22.095
0.629,2.028,0.464,13.245,-19.836,29.968
0.558,2.299,0.349,16.479,-22.461,37.842
0.449,2.522,0.234,21.912,-15.137,44.189
0.322,2.625,0.092,28.748,1.221,48.584
0.254,2.600,-0.074,34.729,25.146,49.561
0.226,2.591,-0.163,37.598,53.833,44.922
0.248,2.636,-0.231,40.649,78.125,33.142
0.261,2.652,-0.256,44.067,91.675,14.343
0.354,2.574,-0.236,45.593,90.027,-2.991
0.566,2.475,-0.165,42.542,61.401,-16.541
0.542,2.266,-0.121,39.185,-0.244,-30.212
0.336,1.959,-0.167,37.476,-81.421,-43.213
0.059,1.578,-0.265,36.926,-160.217,-50.842
-0.331,1.168,-0.323,40.955,-220.032,-60.669
-0.726,0.625,-0.335,54.810,-250.916,-80.017
-1.057,-0.027,-0.306,71.106,-250.061,-105.652
-1.291,-0.715,-0.217,82.092,-218.689,-130.920
-1.372,-1.430,-0.012,92.407,-161.133,-151.062
-1.127,-2.152,0.373,108.215,-89.050,-167.236
-0.628,-2.688,0.742,128.540,-27.954,-176.514
-0.286,-3.089,1.038,157.593,0.122,-171.143
-0.163,-3.585,1.312,198.242,-0.793,-159.973
-0.005,-4.000,1.584,245.422,-17.822,-154.968
0.243,-4.000,1.787,278.259,-41.138,-175.476
0.333,-4.000,1.801,276.001,-57.678,-213.745
0.359,-3.368,1.673,237.000,-51.941,-237.732
0.503,-2.546,1.390,177.429,-19.470,-244.080
0.756,-1.770,1.158,106.934,38.818,-237.976
1.135,-1.044,1.130,40.222,110.352,-216.614
1.633,-0.599,1.190,-10.498,169.312,-180.176
2.009,-0.455,1.167,-44.678,195.496,-137.573
2.144,-0.341,1.114,-68.359,186.035,-94.910
2.042,-0.174,1.104,-79.346,148.132,-41.748
1.812,-0.129,1.092,-75.867,88.135,21.729
1.612,-0.030,1.238,-60.120,12.085,85.693
1.035,-0.794,0.534,-34.668,-72.632,141.174
0.505,-0.332,1.141,-26.245,-111.572,144.470
0.000,-0.779,0.608,-10.620,-147.461,156.067
-0.205,-0.694,0.714,-3.235,-149.231,145.935
-0.430,-0.739,0.670,-0.854,-132.568,133.362
-0.526,-0.720,0.628,-5.676,-99.915,113.098
-0.476,-0.632,0.599,-14.038,-56.946,96.313
-0.361,-0.544,0.611,-24.170,-12.878,80.017
-0.200,-0.465,0.624,-32.349,25.818,64.148
-0.003,-0.405,0.634,-36.926,55.115,49.377
0.233,-0.319,0.671,-38.513,71.045,38.086
0.400,-0.211,0.691,-37.170,69.946,30.579
0.507,-0.089,0.725,-32.959,56.030,27.039
0.552,-0.011,0.768,-24.475,35.217,27.527
0.537,0.047,0.815,-11.963,12.817,28.992
0.521,0.016,0.839,3.845,-7.141,31.738
0.505,-0.055,0.849,18.677,-20.935,33.386
0.470,-0.081,0.859,28.442,-27.405,33.630
0.450,-0.110,0.877,31.128,-26.978,34.851
0.442,-0.138,0.892,27.710,-21.118,38.086
0.423,-0.136,0.933,20.264,-11.780,41.992
0.423,-0.190,0.956,12.939,-1.221,45.349
0.453,-0.231,0.994,6.348,9.827,44.922
0.503,-0.293,1.014,0.671,18.677,42.969
0.563,-0.338,1.036,-4.822,22.888,40.039
0.615,-0.346,1.024,-11.169,23.132,36.743
0.615,-0.309,0.984,-17.395,20.325,33.813
0.602,-0.302,0.938,-21.362,18.860,32.043
0.572,-0.312,0.889,-21.973,21.240,31.738
0.528,-0.268,0.840,-19.836,28.931,30.945
0.525,-0.229,0.829,-16.418,41.077,30.640
0.565,-0.293,0.806,-12.756,53.894,34.058
0.590,-0.354,0.789,-13.245,65.674,39.185
0.629,-0.351,0.822,-17.517,76.172,45.715
0.693,-0.330,0.866,-21.729,80.017,54.077
0.766,-0.369,0.872,-25.757,75.928,63.904
0.775,-0.410,0.865,-29.541,68.604,72.205
0.722,-0.398,0.852,-32.776,60.791,77.637
0.660,-0.369,0.835,-33.630,55.115,80.627
0.601,-0.329,0.790,-33.081,53.955,80.872
0.530,-0.251,0.736,-32.410,59.753,78.918
0.496,-0.199,0.701,-31.311,71.045,76.172
0.546,-0.178,0.687,-29.663,84.595,73.547
0.617,-0.132,0.699,-29.419,95.886,70.190
0.682,-0.115,0.698,-28.931,99.548,68.665
0.721,-0.122,0.678,-29.114,95.581,69.275
0.730,-0.108,0.664,-29.907,86.365,70.313
0.707,-0.120,0.646,-29.236,75.195,71.472
0.665,-0.120,0.623,-25.391,65.247,70.435
0.607,-0.063,0.596,-20.081,59.448,68.726
0.562,0.010,0.563,-14.893,57.556,68.054
0.535,0.062,0.521,-11.475,58.289,69.336
0.529,0.091,0.479,-9.644,61.157,70.923
0.525,0.144,0.448,-9.644,65.735,71.045
0.532,0.195,0.434,-10.681,70.740,69.702
0.550,0.233,0.405,-13.184,74.951,68.909
0.569,0.251,0.385,-16.663,77.576,68.481
0.630,0.229,0.397,-20.264,79.346,67.383
0.650,0.263,0.413,-22.766,79.468,65.674
0.622,0.328,0.419,-25.085,76.172,65.918
0.604,0.374,0.424,-26.001,70.862,69.458
0.573,0.420,0.408,-24.170,66.345,74.402
0.524,0.488,0.392,-19.409,63.538,79.102
0.510,0.543,0.374,-12.756,62.988,83.069
0.509,0.589,0.355,-6.409,62.378,85.754
0.496,0.645,0.336,-2.319,60.364,87.891
0.505,0.691,0.337,-2.014,55.237,91.980
0.527,0.728,0.342,-4.883,46.509,99.548
0.501,0.766,0.336,-9.155,34.485,106.567
0.467,0.759,0.329,-12.146,22.400,109.192
0.462,0.771,0.328,-15.625,13.489,106.506
0.421,0.814,0.308,-19.775,5.066,96.802
0.355,0.860,0.310,-24.048,-0.610,79.529
0.337,0.896,0.315,-27.405,-3.052,57.495
0.384,0.922,0.339,-30.029,-4.395,34.973
0.446,0.937,0.372,-30.518,-7.751,12.573
0.470,0.972,0.418,-28.809,-13.855,-7.507
0.488,1.002,0.453,-24.292,-22.400,-21.973
0.495,1.001,0.470,-18.372,-31.738,-30.334
0.486,0.973,0.469,-11.902,-39.368,-34.790
0.482,0.925,0.460,-5.981,-42.236,-37.964
0.476,0.896,0.473,-1.526,-40.405,-41.626

0.841,1.546,0.281,5.920,-9.766,3.784
0.900,1.609,0.292,7.568,-15.259,16.907
0.928,1.716,0.319,9.644,-26.489,31.677
0.891,1.875,0.306,12.695,-44.373,45.593
0.802,2.041,0.259,18.005,-65.186,59.204
0.697,2.196,0.207,25.513,-84.534,71.533
0.604,2.357,0.179,34.302,-98.877,79.407
0.522,2.487,0.156,44.617,-109.436,79.956
0.418,2.488,0.098,58.289,-117.798,73.608
0.306,2.390,-0.005,72.205,-122.864,59.326
0.214,2.269,-0.111,81.848,-120.911,39.490
0.126,2.213,-0.192,84.412,-113.647,20.691
0.075,2.125,-0.284,81.116,-104.919,7.812
0.021,1.977,-0.408,73.853,-98.755,0.305
-0.104,1.840,-0.475,63.232,-95.215,-4.883
-0.272,1.673,-0.501,55.664,-95.337,-10.010
-0.479,1.423,-0.510,56.580,-99.670,-17.029
-0.688,1.104,-0.491,65.918,-107.422,-28.931
-0.854,0.666,-0.424,84.534,-116.150,-46.875
-0.945,0.139,-0.305,112.732,-123.657,-72.998
-0.960,-0.494,-0.115,148.254,-131.470,-108.887
-0.968,-1.249,0.081,180.237,-140.320,-144.714
-0.929,-2.078,0.310,198.792,-144.409,-164.551
-0.741,-2.978,0.583,206.299,-135.742,-158.752
-0.562,-3.958,0.807,218.140,-112.671,-130.127
-0.442,-4.000,0.909,236.023,-75.745,-104.980
-0.233,-4.000,1.061,246.521,-21.790,-113.647
0.122,-4.000,1.309,243.103,53.040,-155.823
0.590,-4.000,1.419,224.731,127.563,-208.801
1.129,-3.581,1.286,177.795,186.279,-256.714
1.538,-2.746,1.013,103.027,229.797,-286.926
1.910,-1.814,0.727,18.372,257.935,-287.048
2.350,-0.968,0.618,-56.580,272.644,-253.784
2.617,-0.365,0.702,-110.962,268.127,-202.637
2.553,-0.065,0.696,-135.986,240.967,-146.667
2.204,-0.077,0.534,-139.832,196.594,-85.999
1.781,-0.124,0.402,-133.850,150.085,-22.522
1.447,-0.046,0.434,-117.310,107.910,39.490
1.174,0.040,0.543,-82.336,63.965,93.140
0.830,-0.140,0.593,-29.602,20.081,126.099
0.578,-0.242,0.740,18.188,-17.761,139.526
0.385,-0.604,0.610,55.969,-55.359,150.696
0.210,-0.682,0.775,75.562,-78.674,141.174
0.023,-0.787,0.805,77.942,-91.370,126.160
0.062,-0.851,0.827,67.993,-99.426,114.868
0.116,-0.872,0.902,45.593,-95.825,103.210
0.101,-0.871,0.893,18.311,-86.609,91.980
0.100,-0.771,0.885,-9.583,-69.336,80.505
0.158,-0.646,0.876,-33.997,-46.143,69.336
0.238,-0.512,0.852,-50.903,-21.118,57.678
0.322,-0.387,0.860,-58.899,2.869,46.570
0.418,-0.296,0.864,-57.983,22.644,38.269
0.520,-0.201,0.891,-50.293,36.255,32.593
0.649,-0.128,0.938,-38.208,41.931,30.884
0.786,-0.153,0.981,-24.048,38.696,35.217
0.887,-0.228,1.000,-11.841,27.039,42.419
0.922,-0.287,1.000,-3.906,11.475,48.584
0.874,-0.313,0.972,-0.916,-1.465,54.443
0.782,-0.289,0.937,-2.747,-6.775,61.523
0.699,-0.294,0.914,-6.653,-1.404,68.420
0.642,-0.333,0.890,-10.498,14.160,73.608
0.635,-0.312,0.892,-14.343,36.133,75.867
0.692,-0.310,0.907,-18.494,57.983,79.163
0.789,-0.364,0.930,-22.583,72.571,85.144
0.869,-0.395,0.949,-27.588,75.928,91.003
0.888,-0.402,0.938,-33.752,66.406,97.351
0.855,-0.351,0.890,-40.100,48.828,99.670
0.773,-0.281,0.803,-44.006,31.189,97.351
0.664,-0.254,0.721,-46.021,19.348,91.919
0.569,-0.236,0.657,-46.204,15.991,84.106
0.493,-0.167,0.614,-44.556,21.729,75.500
0.454,-0.108,0.589,-39.673,35.339,68.298
0.449,-0.083,0.564,-35.278,52.795,65.002
0.481,-0.067,0.543,-33.508,69.519,65.002
0.558,-0.070,0.547,-33.752,83.069,65.063
0.585,-0.032,0.536,-34.607,91.187,63.721
0.650,-0.023,0.535,-36.926,93.933,63.843
0.700,-0.028,0.504,-39.429,91.675,64.880
0.652,0.018,0.454,-41.748,86.243,64.392
0.609,0.058,0.424,-42.664,81.421,64.026
0.550,0.096,0.408,-40.222,79.773,62.683
0.516,0.127,0.404,-33.752,82.886,59.509
0.523,0.175,0.401,-25.879,88.501,54.626
0.502,0.214,0.374,-19.165,93.750,51.025
0.499,0.220,0.348,-15.381,98.022,53.223
0.528,0.205,0.320,-15.320,100.281,59.204
0.510,0.215,0.275,-19.226,99.182,64.026
0.432,0.241,0.211,-24.109,96.619,65.796
0.382,0.224,0.139,-29.968,97.229,66.772
0.354,0.205,0.063,-38.086,103.882,66.040
0.264,0.252,-0.016,-48.706,116.150,63.110
0.135,0.329,-0.105,-59.204,134.583,59.998
0.023,0.396,-0.203,-68.604,162.109,60.669
-0.020,0.439,-0.298,-75.623,198.059,64.087
0.004,0.441,-0.386,-79.773,240.662,64.819
0.072,0.412,-0.459,-81.848,286.804,58.655
0.239,0.388,-0.493,-84.656,330.933,46.814
0.461,0.420,-0.479,-89.355,363.220,33.020
0.681,0.453,-0.440,-94.238,376.221,19.592
0.925,0.463,-0.385,-99.182,369.263,8.972
1.193,0.518,-0.306,-105.713,339.905,1.587
1.412,0.634,-0.187,-109.680,284.485,-5.859
1.470,0.766,-0.089,-106.995,206.482,-15.198
1.407,0.850,-0.074,-97.717,117.432,-24.536
1.307,0.900,-0.148,-83.069,31.433,-35.828
1.182,0.935,-0.207,-64.697,-39.795,-49.438
1.020,0.949,-0.255,-46.814,-90.454,-62.866
0.903,0.947,-0.273,-31.982,-119.202,-73.059
0.843,0.938,-0.260,-21.301,-127.380,-78.186
0.844,0.925,-0.234,-15.076,-121.521,-78.857
0.849,0.922,-0.195,-13.367,-108.093,-78.247
0.830,0.924,-0.173,-15.137,-90.576,-79.285
0.841,0.924,-0.145,-19.104,-69.275,-81.177
0.903,0.937,-0.094,-25.085,-47.180,-81.238
0.983,0.962,-0.033,-31.555,-29.968,-80.017
1.057,0.981,0.014,-36.621,-20.935,-77.698
1.133,0.994,0.048,-39.612,-21.606,-74.219
1.166,0.998,0.065,-40.649,-31.372,-70.068
1.152,0.984,0.069,-40.100,-45.959,-65.125

1.545,1.438,-0.010,-28.687,-28.809,14.160
1.592,1.593,-0.057,-28.076,-44.922,20.813
1.614,1.758,-0.118,-26.367,-62.439,27.649
1.627,1.902,-0.168,-23.743,-79.712,34.851
1.645,2.071,-0.178,-19.897,-95.154,45.349
1.627,2.272,-0.179,-12.024,-112.793,56.519
1.544,2.347,-0.207,3.235,-134.216,63.782
1.401,2.359,-0.267,25.879,-158.997,67.383
1.294,2.343,-0.354,49.927,-183.472,68.665
1.123,2.368,-0.514,70.374,-206.177,66.406
0.798,2.496,-0.721,83.984,-224.731,65.491
0.518,2.534,-0.895,91.003,-233.887,77.515
0.417,2.496,-0.970,90.942,-234.070,103.394
0.403,2.328,-1.043,83.435,-238.342,129.761
0.307,2.182,-1.144,68.115,-256.470,137.878
0.092,2.010,-1.237,51.575,-280.273,121.277
-0.190,1.706,-1.354,43.518,-301.086,91.064
-0.493,1.335,-1.407,42.908,-313.660,57.251
-0.764,0.997,-1.352,49.438,-315.674,26.611
-0.983,0.573,-1.246,71.289,-311.829,6.409
-1.134,-0.139,-0.998,114.624,-309.265,-3.784
-1.244,-1.202,-0.612,174.866,-314.026,-17.944
-1.567,-2.617,-0.242,228.882,-304.138,-33.081
-2.023,-3.838,0.091,260.437,-232.910,-10.864
-2.040,-4.000,0.506,301.270,-105.103,53.772
-0.915,-4.000,1.279,369.202,36.438,71.838
0.617,-4.000,2.265,411.804,148.743,-31.738
1.734,-4.000,2.938,378.113,185.364,-192.993
2.500,-4.000,2.857,278.564,139.709,-295.471
2.673,-2.846,2.200,167.603,52.490,-325.439
2.794,-1.188,1.953,66.101,-19.958,-289.307
2.839,0.122,1.843,4.517,-70.496,-201.294
2.392,0.455,1.385,-12.573,-111.633,-113.342
1.798,-0.013,0.894,-26.978,-131.409,-40.710
1.334,-0.375,0.518,-43.335,-123.108,21.851
0.882,-0.432,0.372,-57.007,-94.238,68.481
0.511,-0.478,0.344,-65.125,-58.838,101.379
0.329,-0.844,0.128,-66.040,-31.006,125.427
0.003,-1.050,0.074,-65.186,-2.563,120.544
-0.379,-0.721,0.407,-54.749,32.532,96.436
-0.539,-0.511,0.592,-22.522,45.105,94.910
-0.373,-0.856,0.648,1.526,37.964,106.323
-0.287,-0.887,0.757,13.916,22.095,90.332
-0.298,-0.806,0.777,15.259,7.568,75.562
-0.219,-0.810,0.793,9.338,-1.221,64.575
-0.193,-0.706,0.819,-2.808,2.930,52.307
-0.140,-0.698,0.829,-14.038,19.836,48.828
-0.099,-0.641,0.854,-25.269,53.284,47.302
-0.007,-0.583,0.926,-34.302,96.252,50.598
0.221,-0.548,1.007,-40.283,136.841,54.871
0.468,-0.548,1.104,-44.250,164.001,63.904
0.687,-0.576,1.197,-46.509,170.166,77.820
0.818,-0.656,1.250,-47.668,153.320,91.614
0.852,-0.728,1.235,-48.889,121.033,98.328
0.788,-0.715,1.144,-51.208,85.022,93.567
0.651,-0.638,1.031,-54.504,56.946,83.679
0.492,-0.581,0.930,-56.763,43.091,77.148
0.330,-0.538,0.847,-55.908,44.067,73.486
0.249,-0.472,0.790,-53.284,59.387,72.205
0.209,-0.366,0.740,-52.124,82.153,75.256
0.196,-0.349,0.708,-51.270,108.093,80.566
0.236,-0.312,0.675,-50.842,133.423,82.031
0.256,-0.230,0.628,-50.171,154.663,80.261
0.328,-0.145,0.620,-48.462,172.180,73.975
0.446,-0.138,0.614,-45.959,183.533,67.749
0.520,-0.120,0.595,-46.448,186.340,63.538
0.552,-0.031,0.578,-49.194,183.167,61.646
0.555,0.042,0.536,-50.476,176.758,62.195
0.564,0.036,0.484,-49.072,170.776,62.439
0.567,0.001,0.437,-46.265,166.382,62.195
0.551,0.042,0.411,-42.358,163.513,60.669
0.555,0.126,0.420,-36.316,161.865,59.631
0.641,0.105,0.419,-26.978,159.546,59.509
0.683,0.075,0.379,-17.700,155.273,57.251
0.667,0.112,0.356,-10.315,151.794,53.833
0.703,0.127,0.344,-4.944,151.306,54.138
0.746,0.147,0.313,-4.700,152.527,59.814
0.760,0.177,0.267,-7.202,151.184,66.284
0.787,0.195,0.231,-10.925,148.499,69.824
0.735,0.241,0.181,-15.259,144.226,68.665
0.687,0.294,0.144,-18.860,139.160,64.148
0.738,0.307,0.134,-19.714,134.155,55.847
0.843,0.298,0.131,-18.433,127.747,43.823
0.850,0.342,0.114,-17.456,117.859,30.579
0.813,0.425,0.096,-17.212,106.140,23.560
0.860,0.453,0.074,-17.639,95.032,24.475
0.887,0.466,0.050,-21.545,84.778,26.428
0.804,0.532,0.029,-28.198,75.439,28.687
0.693,0.610,0.007,-37.476,68.115,33.569
0.654,0.643,-0.012,-47.363,62.988,36.804
0.675,0.656,-0.019,-55.786,61.096,31.616
0.673,0.727,0.008,-61.096,60.974,18.066
0.634,0.840,0.057,-60.608,58.472,0.183
0.626,0.896,0.095,-54.382,52.185,-16.907
0.654,0.885,0.104,-46.204,42.969,-32.715
0.697,0.839,0.094,-39.917,31.616,-49.561
0.742,0.809,0.087,-37.598,19.897,-64.880
0.767,0.797,0.063,-40.100,7.385,-73.730
0.803,0.766,0.003,-46.509,-5.127,-78.735
0.800,0.767,-0.065,-54.443,-14.038,-84.045
0.793,0.798,-0.128,-62.622,-17.395,-89.539
0.829,0.828,-0.182,-69.275,-15.747,-93.323
0.867,0.870,-0.206,-73.669,-10.681,-94.421
0.911,0.913,-0.200,-74.219,-4.883,-91.370
0.952,0.942,-0.170,-70.251,-0.366,-85.022
0.985,0.962,-0.144,-63.904,1.404,-76.111
0.991,0.965,-0.131,-55.420,0.671,-67.078
0.965,0.960,-0.125,-45.837,-0.305,-58.716
0.935,0.942,-0.121,-37.048,0.793,-51.025
0.919,0.905,-0.120,-30.334,4.639,-44.067
0.901,0.883,-0.124,-27.649,10.071,-36.987
0.884,0.869,-0.122,-28.198,15.320,-29.663
0.876,0.838,-0.122,-30.090,19.409,-22.949
0.908,0.789,-0.108,-32.959,21.545,-17.761
0.951,0.757,-0.089,-37.354,20.569,-13.794
0.969,0.734,-0.077,-41.382,15.991,-11.536
0.984,0.724,-0.066,-42.603,9.644,-9.338
1.000,0.715,-0.066,-41.565,3.540,-8.423
1.000,0.700,-0.077,-37.720,-0.549,-8.789

1.331,1.856,-0.243,-6.104,47.241,-89.600
1.639,2.096,-0.240,-5.859,54.810,-104.858
1.946,2.205,-0.217,0.732,42.664,-116.882
2.219,2.212,-0.175,11.169,6.592,-125.427
2.294,2.137,-0.187,25.208,-52.551,-131.104
2.148,2.041,-0.304,40.955,-124.329,-133.911
1.884,2.028,-0.389,56.458,-188.416,-128.052
1.633,1.850,-0.561,70.435,-235.352,-112.488
1.558,1.925,-0.677,72.754,-264.526,-93.018
1.495,2.190,-0.660,68.848,-274.231,-71.045
1.312,2.432,-0.666,63.416,-282.043,-29.907
1.015,2.483,-0.679,56.213,-290.100,35.278
0.707,2.267,-0.650,49.438,-290.833,114.563
0.397,1.830,-0.630,43.457,-281.860,181.396
0.018,1.350,-0.625,35.645,-265.320,209.839
-0.388,1.125,-0.564,23.254,-245.178,188.416
-0.707,1.002,-0.461,14.587,-225.281,131.226
-0.944,0.772,-0.380,16.968,-210.266,59.448
-1.019,0.427,-0.301,28.992,-203.857,-15.930
-0.929,0.018,-0.170,46.143,-206.726,-80.383
-0.824,-0.444,-0.053,64.026,-220.276,-124.634
-0.798,-0.989,0.053,76.904,-239.197,-147.095
-0.736,-1.608,0.234,82.031,-250.000,-149.597
-0.539,-2.303,0.382,74.951,-244.995,-124.939
-0.400,-2.899,0.385,59.143,-226.685,-79.163
-0.397,-3.281,0.413,53.467,-194.031,-38.025
-0.349,-3.758,0.610,73.364,-145.142,-14.587
-0.154,-4.000,0.908,111.023,-93.994,-21.240
0.160,-3.735,1.170,156.311,-55.908,-46.753
0.542,-3.029,1.390,202.637,-34.973,-79.834
0.908,-2.455,1.543,236.816,-31.494,-105.225
1.005,-2.049,1.525,237.549,-43.884,-115.967
0.896,-1.729,1.404,197.327,-59.387,-107.361
0.685,-1.407,1.253,127.563,-63.843,-81.055
0.581,-1.084,1.172,48.218,-50.415,-53.406
0.596,-0.859,1.192,-18.494,-24.170,-35.583
0.680,-0.662,1.238,-60.486,2.380,-27.954
0.763,-0.537,1.125,-78.064,19.165,-23.865
0.783,-0.370,1.063,-80.505,28.748,-21.057
0.712,-0.385,0.932,-76.904,29.663,-6.104
0.651,-0.306,0.924,-72.754,23.865,16.418
0.572,-0.440,0.864,-65.186,13.855,43.823
0.472,-0.535,0.856,-56.946,7.690,61.401
0.378,-0.581,0.845,-47.485,6.775,70.313
0.298,-0.623,0.844,-39.246,8.545,73.120
0.214,-0.654,0.837,-32.227,11.780,71.655
0.127,-0.667,0.832,-26.611,19.836,66.101
0.083,-0.658,0.837,-21.912,34.363,59.082
0.147,-0.643,0.868,-19.592,55.359,52.429
0.273,-0.627,0.911,-19.165,75.989,48.035
0.424,-0.630,0.983,-20.447,89.661,47.546
0.586,-0.587,1.072,-23.193,92.346,49.072
0.682,-0.552,1.126,-25.818,81.787,52.612
0.747,-0.516,1.176,-27.893,61.462,56.213
0.761,-0.561,1.153,-29.114,36.255,63.232
0.695,-0.603,1.096,-30.762,11.841,69.458
0.594,-0.587,1.046,-31.555,-3.540,72.632
0.510,-0.580,0.984,-30.518,-7.812,73.303
0.425,-0.603,0.919,-28.381,-1.526,72.632
0.361,-0.646,0.861,-26.123,16.235,71.594
0.318,-0.647,0.799,-24.475,43.274,70.190
0.297,-0.627,0.752,-23.926,77.698,67.627
0.344,-0.608,0.719,-25.330,116.394,67.871
0.455,-0.517,0.695,-30.701,153.137,73.364
0.649,-0.463,0.726,-39.001,180.298,83.130
0.847,-0.485,0.769,-47.668,187.805,94.910
0.935,-0.508,0.780,-55.542,173.401,103.210
0.919,-0.525,0.756,-61.279,144.104,106.201
0.849,-0.522,0.684,-64.087,110.657,104.553
0.695,-0.427,0.581,-63.354,83.313,98.145
0.530,-0.271,0.505,-58.167,69.092,89.539
0.441,-0.150,0.449,-48.523,68.298,82.764
0.408,-0.094,0.385,-36.499,76.782,80.505
0.401,-0.053,0.342,-24.780,92.285,81.299
0.436,-0.058,0.321,-13.916,110.596,84.229
0.525,-0.140,0.296,-6.348,128.418,88.623
0.588,-0.196,0.262,-3.479,144.104,91.614
0.633,-0.181,0.264,-4.944,158.325,93.384
0.722,-0.104,0.317,-7.446,166.870,95.459
0.839,-0.054,0.305,-6.592,165.222,99.182
0.852,-0.010,0.265,-3.113,156.799,102.173
0.809,0.091,0.230,1.343,145.935,103.943
0.757,0.195,0.198,9.094,134.277,107.117
0.737,0.224,0.163,19.958,123.718,110.901
0.778,0.170,0.145,31.311,116.516,112.488
0.897,0.102,0.142,39.124,110.962,109.619
1.026,0.104,0.173,41.748,102.783,101.379
1.158,0.171,0.237,41.626,87.524,89.355
1.217,0.299,0.309,38.452,62.500,79.285
1.143,0.472,0.335,31.616,28.870,75.867
0.994,0.623,0.311,25.208,-6.409,76.233
0.745,0.749,0.268,20.020,-32.715,74.036
0.406,0.848,0.212,16.052,-43.152,65.430
0.130,0.918,0.173,10.254,-33.691,52.979
0.015,0.938,0.161,1.648,-6.836,36.194
0.038,0.970,0.181,-12.024,29.785,13.428
0.170,1.034,0.240,-31.311,64.392,-10.803
0.349,1.129,0.294,-53.833,85.083,-30.457
0.474,1.232,0.346,-75.195,88.257,-39.978
0.569,1.300,0.369,-91.003,75.745,-40.100
0.572,1.342,0.376,-98.572,53.284,-37.781
0.500,1.343,0.365,-97.046,29.358,-37.659
0.412,1.334,0.347,-88.318,9.705,-40.588
0.329,1.305,0.334,-75.745,-2.441,-46.753
0.280,1.232,0.319,-61.279,-7.629,-54.626
0.280,1.149,0.323,-48.340,-6.653,-62.927
0.366,1.056,0.361,-38.574,-1.831,-70.557
0.470,0.974,0.408,-33.630,1.465,-76.782
0.587,0.891,0.451,-32.227,-0.061,-80.750
0.680,0.817,0.475,-34.363,-6.348,-80.811
0.762,0.766,0.484,-39.368,-16.052,-78.369
0.792,0.735,0.458,-44.373,-27.527,-75.317
0.828,0.724,0.434,-47.913,-37.720,-71.350
0.863,0.702,0.374,-48.157,-46.753,-67.627
0.870,0.684,0.295,-45.532,-53.345,-64.453
0.858,0.659,0.219,-39.917,-55.908,-60.730
0.878,0.630,0.161,-33.508,-53.467,-55.725
0.910,0.604,0.114,-26.428,-46.753,-51.208
0.909,0.592,0.083,-19.958,-38.025,-46.997

1.176,1.533,0.393,17.151,-25.085,11.047
1.379,1.823,0.425,19.714,-30.029,19.653
1.636,2.053,0.431,21.362,-45.532,31.860
1.857,2.227,0.414,21.057,-76.355,46.143
1.963,2.394,0.407,20.142,-122.009,63.354
1.942,2.521,0.392,22.766,-181.274,83.984
1.706,2.475,0.264,30.090,-249.939,106.506
1.269,2.301,0.077,36.926,-313.538,124.878
0.775,2.188,-0.090,38.330,-355.713,132.935
0.332,2.144,-0.222,35.522,-372.192,126.038
0.007,2.166,-0.368,31.250,-368.774,104.858
-0.244,2.267,-0.501,30.640,-352.112,77.515
-0.383,2.363,-0.588,33.813,-329.895,51.392
-0.376,2.295,-0.642,38.940,-310.791,27.710
-0.241,2.095,-0.700,47.913,-302.246,3.540
-0.082,1.837,-0.776,58.167,-308.289,-24.841
-0.068,1.530,-0.827,70.618,-326.599,-54.260
-0.128,1.126,-0.831,89.172,-345.642,-76.111
-0.231,0.633,-0.794,108.215,-359.192,-87.830
-0.355,0.099,-0.724,120.972,-366.028,-92.346
-0.487,-0.457,-0.623,124.390,-365.295,-89.233
-0.700,-0.975,-0.526,119.141,-356.445,-75.806
-0.903,-1.434,-0.401,110.840,-338.257,-54.810
-1.072,-1.887,-0.209,105.469,-309.875,-29.907
-1.287,-2.419,0.033,104.919,-270.142,-3.479
-1.469,-3.061,0.404,114.441,-216.919,15.503
-1.418,-3.612,0.858,138.672,-156.494,13.123
-1.251,-3.848,1.295,178.040,-102.173,-7.446
-1.092,-3.563,1.767,225.830,-60.425,-34.607
-0.903,-3.057,2.061,276.672,-31.494,-55.664
-0.769,-2.733,2.052,313.965,-6.653,-75.378
-0.567,-2.622,1.810,310.059,34.973,-97.839
-0.182,-2.384,1.441,248.779,108.826,-124.939
0.409,-1.812,1.277,147.095,204.773,-148.682
1.109,-1.086,1.359,42.725,285.583,-150.208
1.718,-0.500,1.538,-32.410,316.223,-124.695
1.977,-0.136,1.648,-70.740,290.527,-81.970
1.853,-0.016,1.570,-77.148,226.562,-33.020
1.476,-0.099,1.368,-66.956,150.391,17.944
1.029,-0.276,1.180,-54.077,86.243,68.481
0.570,-0.411,1.107,-45.471,44.067,107.056
0.171,-0.485,1.134,-38.879,22.583,128.113
-0.073,-0.544,1.206,-30.884,14.832,133.728
-0.203,-0.716,1.157,-21.240,13.733,124.207
-0.294,-0.949,1.092,-15.991,22.888,98.572
-0.212,-0.608,1.260,-18.738,38.208,63.538
-0.156,-0.984,0.983,-18.066,42.236,47.852
-0.057,-0.854,1.037,-24.475,54.749,31.372
0.025,-0.816,1.001,-31.250,64.880,40.649
0.124,-0.844,0.999,-41.931,77.332,54.504
0.199,-0.842,0.977,-49.683,88.257,69.763
0.193,-0.834,0.938,-56.458,99.243,80.872
0.152,-0.788,0.951,-62.378,114.075,87.402
0.147,-0.770,0.945,-64.758,130.371,93.140
0.136,-0.780,0.901,-63.110,147.095,96.252
0.126,-0.744,0.854,-59.998,166.809,94.910
0.126,-0.694,0.797,-54.565,189.331,91.736
0.145,-0.624,0.727,-47.363,212.463,87.463
0.236,-0.573,0.724,-39.185,234.863,83.130
0.432,-0.600,0.758,-32.593,249.817,84.473
0.594,-0.597,0.800,-32.043,248.596,91.553
0.731,-0.599,0.849,-36.255,231.873,100.403
0.855,-0.595,0.873,-44.312,202.881,110.840
0.854,-0.577,0.852,-54.932,162.598,119.019
0.753,-0.530,0.782,-64.148,120.667,121.033
0.616,-0.471,0.688,-70.496,86.914,119.751
0.482,-0.407,0.579,-73.059,66.406,116.272
0.341,-0.288,0.456,-71.594,61.340,109.741
0.243,-0.175,0.344,-66.040,72.083,101.013
0.197,-0.120,0.243,-58.838,96.619,91.675
0.248,-0.141,0.190,-53.162,129.761,85.693
0.373,-0.144,0.168,-49.072,164.429,80.872
0.510,-0.060,0.193,-46.814,193.298,77.026
0.638,0.054,0.226,-45.532,208.252,77.332
0.663,0.172,0.221,-44.128,207.703,80.566
0.640,0.234,0.203,-41.748,198.608,82.764
0.653,0.309,0.231,-39.185,187.988,81.299
0.645,0.393,0.217,-37.170,174.683,78.735
0.593,0.451,0.166,-36.255,161.865,75.867
0.488,0.518,0.104,-36.621,154.419,70.190
0.393,0.546,0.019,-37.476,154.846,60.730
0.390,0.570,-0.026,-41.016,163.757,45.471
0.405,0.704,-0.010,-47.546,172.791,27.283
0.432,0.818,-0.004,-52.673,173.279,12.939
0.544,0.829,-0.020,-55.115,166.382,1.160
0.559,0.875,-0.036,-56.580,155.396,-12.634
0.484,1.004,-0.000,-57.495,142.944,-24.353
0.403,1.084,0.003,-57.739,129.395,-27.344
0.337,1.055,-0.032,-57.983,117.432,-26.733
0.309,1.030,-0.063,-60.486,111.206,-31.494
0.311,1.050,-0.080,-65.552,109.436,-43.640
0.345,1.075,-0.092,-71.533,108.521,-58.411
0.429,1.125,-0.091,-78.979,106.689,-71.777
0.579,1.148,-0.083,-85.327,100.098,-84.045
0.776,1.150,-0.055,-89.722,86.487,-94.849
0.948,1.158,-0.037,-93.140,64.453,-102.783
1.064,1.171,-0.020,-94.360,35.706,-108.093
1.141,1.183,-0.012,-91.431,5.432,-110.718
1.151,1.194,-0.021,-85.938,-22.461,-110.046
1.099,1.202,-0.031,-77.759,-43.274,-107.544
1.043,1.188,-0.030,-67.932,-53.467,-102.356
1.008,1.162,-0.013,-58.899,-52.856,-94.666
0.995,1.122,0.009,-52.551,-43.762,-84.412
1.010,1.087,0.034,-47.913,-29.358,-73.486
1.067,1.053,0.056,-46.204,-12.878,-62.500
1.131,1.012,0.061,-46.448,1.709,-52.307
1.166,1.001,0.065,-46.570,12.939,-43.823
1.185,1.001,0.068,-43.518,19.775,-35.095
1.208,0.990,0.072,-36.926,20.935,-26.245
1.219,0.954,0.073,-27.283,16.846,-18.127
1.196,0.897,0.067,-17.395,7.507,-11.414
1.130,0.831,0.059,-7.263,-4.211,-7.202
1.057,0.760,0.051,2.258,-14.832,-4.822
1.007,0.671,0.048,10.742,-22.522,-3.296
0.971,0.580,0.047,16.541,-27.527,-1.465
0.943,0.501,0.047,18.188,-29.846,1.038
0.936,0.431,0.049,16.968,-29.663,2.747
0.973,0.370,0.063,13.489,-27.588,3.174
1.011,0.335,0.072,7.996,-26.550,4.456

1.402,1.524,0.042,-16.479,-58.655,-19.653
1.517,1.787,0.002,-24.292,-93.567,-22.278
1.609,1.974,-0.074,-31.677,-134.521,-21.545
1.691,2.120,-0.141,-38.269,-178.406,-18.616
1.767,2.251,-0.197,-39.612,-223.328,-15.625
1.897,2.379,-0.187,-32.349,-268.250,-14.282
2.013,2.441,-0.130,-17.639,-314.514,-12.451
1.942,2.494,-0.103,2.441,-363.953,-7.996
1.689,2.410,-0.140,24.841,-411.621,2.075
1.421,2.267,-0.257,43.518,-451.416,21.545
1.118,2.146,-0.375,53.894,-476.562,44.128
0.814,1.980,-0.474,57.251,-484.253,64.453
0.549,1.838,-0.560,51.636,-475.830,82.092
0.307,1.751,-0.612,38.208,-457.336,93.811
0.141,1.581,-0.630,22.827,-433.105,98.816
0.046,1.347,-0.611,9.521,-408.081,95.703
-0.006,1.104,-0.544,-1.404,-387.573,85.327
-0.102,0.835,-0.498,-8.179,-376.221,74.341
-0.190,0.513,-0.448,-12.512,-372.070,68.604
-0.247,0.160,-0.395,-13.977,-372.742,66.162
-0.352,-0.205,-0.369,-11.597,-377.136,65.125
-0.456,-0.591,-0.283,-4.578,-380.554,67.627
-0.526,-0.939,-0.150,5.432,-381.531,75.256
-0.632,-1.236,-0.074,22.583,-380.005,84.473
-0.826,-1.559,0.054,50.171,-368.713,94.971
-1.041,-1.981,0.250,86.609,-344.849,110.046
-1.232,-2.454,0.488,127.380,-307.312,121.155
-1.374,-2.860,0.638,169.861,-256.470,113.159
-1.505,-2.932,0.912,210.876,-188.354,85.632
-1.611,-2.775,1.178,250.671,-110.657,46.875
-1.357,-2.537,1.432,284.119,-33.081,7.263
-1.022,-2.445,1.494,301.697,38.208,-23.560
-0.658,-2.292,1.630,294.067,99.426,-49.133
-0.111,-2.088,1.577,256.592,146.729,-70.190
0.441,-1.808,1.406,191.956,177.917,-85.022
0.769,-1.422,1.363,108.276,195.862,-91.492
1.012,-1.011,1.301,31.433,189.575,-81.909
1.135,-0.608,1.282,-17.334,161.194,-64.453
1.060,-0.289,1.256,-37.781,123.779,-42.419
0.850,-0.125,1.229,-32.837,89.600,-18.921
0.604,-0.184,1.170,-13.184,64.453,3.906
0.347,-0.171,1.130,4.639,50.659,25.696
0.114,-0.411,1.078,9.705,48.584,53.833
-0.033,-0.624,1.062,4.883,57.556,70.984
-0.175,-0.616,1.115,-4.517,76.294,70.313
-0.214,-0.617,1.166,-13.000,95.520,61.157
-0.137,-0.661,1.220,-20.691,111.084,52.917
-0.004,-0.704,1.250,-29.602,117.432,49.927
0.121,-0.704,1.251,-41.077,112.915,49.988
0.162,-0.676,1.190,-51.331,100.830,51.514
0.107,-0.633,1.119,-58.777,89.661,54.688
0.034,-0.633,1.051,-61.462,87.524,61.096
-0.038,-0.608,1.019,-59.570,95.825,67.993
-0.105,-0.628,0.996,-53.772,112.244,72.693
-0.097,-0.685,0.997,-45.471,135.315,71.472
-0.011,-0.753,0.995,-38.208,161.499,68.420
0.118,-0.731,1.001,-35.889,183.899,67.688
0.218,-0.705,0.985,-36.621,197.571,70.618
0.254,-0.734,0.948,-39.246,205.261,77.209
0.275,-0.734,0.908,-43.823,212.830,85.449
0.302,-0.668,0.869,-49.500,222.107,92.346
0.325,-0.624,0.841,-53.772,231.995,97.656
0.351,-0.599,0.813,-55.359,241.272,102.844
0.359,-0.557,0.777,-55.115,249.023,106.812
0.368,-0.497,0.743,-52.734,256.958,110.107
0.412,-0.462,0.726,-49.561,264.526,115.051
0.437,-0.406,0.690,-44.800,269.897,119.873
0.452,-0.338,0.652,-38.879,273.743,120.544
0.488,-0.329,0.614,-33.203,277.100,117.737
0.540,-0.334,0.566,-31.067,279.968,114.624
0.575,-0.287,0.514,-33.691,281.616,114.136
0.612,-0.215,0.471,-37.048,280.396,114.075
0.677,-0.201,0.416,-37.170,276.062,110.840
0.702,-0.152,0.343,-35.522,268.982,104.370
0.709,-0.073,0.266,-32.593,261.963,97.168
0.734,-0.004,0.187,-28.137,255.920,92.041
0.734,0.089,0.133,-23.132,250.122,87.097
0.718,0.191,0.116,-18.433,243.469,84.106
0.706,0.307,0.120,-15.137,233.643,84.900
0.651,0.402,0.142,-12.146,219.971,86.853
0.627,0.406,0.157,-8.911,204.651,86.060
0.592,0.402,0.162,-9.216,189.453,80.017
0.542,0.421,0.155,-13.611,174.927,70.251
0.508,0.440,0.117,-21.973,161.804,57.434
0.491,0.469,0.076,-32.227,151.001,41.260
0.502,0.544,0.069,-43.640,142.944,25.208
0.615,0.632,0.093,-54.199,132.996,12.573
0.712,0.733,0.106,-61.340,116.821,2.502
0.719,0.846,0.121,-63.782,94.727,-2.380
0.690,0.924,0.113,-61.951,69.824,-1.526
0.603,0.957,0.079,-56.641,46.814,-1.221
0.500,0.967,0.042,-51.941,31.738,-4.211
0.412,0.968,0.002,-51.086,27.039,-10.559
0.356,0.977,-0.030,-54.504,32.288,-19.165
0.370,0.985,-0.047,-61.890,44.067,-27.527
0.468,1.003,-0.059,-71.350,57.617,-35.034
0.604,1.056,-0.048,-80.627,68.115,-40.710
0.747,1.098,-0.049,-87.158,72.388,-42.725
0.895,1.120,-0.052,-90.088,69.946,-42.297
1.012,1.146,-0.053,-89.844,60.974,-39.307
1.056,1.170,-0.064,-87.036,46.448,-34.729
1.034,1.173,-0.074,-81.055,30.396,-30.273
0.975,1.159,-0.079,-72.632,16.357,-27.649
0.917,1.124,-0.069,-63.232,6.287,-26.855
0.873,1.075,-0.062,-54.749,0.122,-27.466
0.856,1.011,-0.063,-48.279,-3.784,-29.663
0.914,0.952,-0.075,-44.739,-5.493,-31.982
0.992,0.913,-0.066,-44.067,-8.057,-32.715
1.061,0.897,-0.060,-44.495,-13.855,-29.785
1.082,0.893,-0.063,-43.762,-22.888,-23.804
1.047,0.879,-0.075,-40.039,-32.166,-16.846
0.987,0.853,-0.098,-33.875,-37.903,-9.766
0.913,0.827,-0.109,-27.527,-38.269,-4.150
0.851,0.796,-0.106,-21.057,-34.119,-1.343
0.814,0.765,-0.091,-15.442,-26.917,0.305
0.802,0.731,-0.073,-11.047,-19.409,0.671
0.799,0.687,-0.060,-7.324,-12.817,-0.122
0.808,0.652,-0.044,-4.761,-7.996,-2.258
0.835,0.616,-0.024,-3.967,-5.371,-4.333

1.048,1.534,0.120,10.620,-87.341,-9.705
1.111,1.669,0.063,12.329,-106.445,-16.418
1.220,1.861,0.022,10.864,-130.615,-21.057
1.300,2.088,-0.005,7.385,-163.696,-20.081
1.263,2.279,-0.073,6.104,-205.627,-14.160
1.082,2.353,-0.199,6.958,-249.634,-3.967
0.811,2.363,-0.319,7.507,-284.790,8.362
0.524,2.327,-0.448,8.545,-306.030,20.020
0.257,2.342,-0.550,13.123,-312.988,24.536
0.081,2.383,-0.594,21.851,-307.556,20.203
0.012,2.318,-0.629,37.415,-298.401,10.193
-0.010,2.212,-0.607,54.138,-293.152,-2.991
0.027,2.018,-0.521,71.777,-295.105,-16.357
0.091,1.732,-0.433,89.600,-309.021,-28.625
0.105,1.362,-0.349,104.919,-335.022,-43.762
0.099,0.894,-0.260,115.295,-366.760,-62.195
0.082,0.437,-0.173,116.577,-398.560,-79.773
-0.027,-0.047,-0.068,112.427,-420.044,-94.849
-0.058,-0.648,0.101,101.501,-421.509,-101.074
-0.126,-1.131,0.167,74.158,-410.767,-87.769
-0.369,-1.426,0.249,40.039,-392.151,-55.054
-0.542,-1.633,0.340,22.949,-360.657,-21.973
-0.670,-1.894,0.445,35.767,-312.927,-0.427
-0.719,-2.263,0.595,72.327,-257.202,11.780
-0.692,-2.693,0.759,129.639,-205.444,15.198
-0.659,-3.123,0.894,200.989,-161.621,6.409
-0.613,-3.402,1.085,266.479,-118.347,-14.709
-0.544,-3.335,1.307,307.739,-71.350,-46.082
-0.388,-3.097,1.424,319.214,-23.193,-83.191
-0.194,-2.953,1.341,292.358,27.405,-118.347
0.117,-2.600,1.241,225.708,91.370,-153.503
0.546,-1.607,1.315,137.573,151.794,-176.086
1.071,-1.034,1.317,54.871,189.026,-156.067
1.518,-0.655,1.394,-3.540,190.002,-129.578
1.678,-0.340,1.463,-31.250,162.842,-99.304
1.737,-0.025,1.504,-35.034,116.394,-64.026
1.515,-0.115,1.326,-24.475,60.364,-23.010
1.210,-0.355,1.130,-21.240,12.146,19.226
0.859,-0.570,0.962,-31.067,-18.738,58.594
0.422,-0.609,0.916,-47.241,-30.457,81.177
0.005,-0.551,0.966,-57.312,-25.574,88.013
-0.279,-0.531,0.979,-59.326,-10.864,88.135
-0.385,-0.652,0.926,-56.274,7.019,85.938
-0.406,-0.712,0.864,-53.833,30.945,72.266
-0.391,-0.761,0.774,-53.223,58.777,52.063
-0.224,-0.747,0.773,-53.589,90.332,32.715
0.045,-0.701,0.814,-52.124,115.234,22.827
0.294,-0.666,0.889,-48.889,125.000,23.010
0.449,-0.637,0.914,-46.082,121.155,37.842
0.635,-0.734,1.038,-44.312,107.117,63.354
0.630,-0.714,0.994,-45.349,85.754,81.238
0.479,-0.734,0.983,-50.232,73.181,97.473
0.388,-0.768,0.967,-52.734,68.298,104.370
0.306,-0.738,0.940,-52.368,75.623,103.455
0.229,-0.781,0.917,-48.950,93.689,101.624
0.247,-0.724,0.865,-45.044,119.507,93.872
0.318,-0.686,0.809,-40.833,149.048,88.806
0.448,-0.642,0.796,-37.231,177.979,87.341
0.617,-0.602,0.802,-34.912,197.754,90.942
0.745,-0.555,0.791,-34.546,203.735,98.755
0.767,-0.515,0.743,-34.973,199.524,107.910
0.680,-0.417,0.674,-34.363,193.848,115.723
0.619,-0.332,0.637,-31.494,192.383,125.427
0.638,-0.350,0.575,-25.085,192.627,135.864
0.635,-0.357,0.531,-18.250,195.679,140.564
0.620,-0.287,0.490,-11.902,201.355,139.465
0.596,-0.171,0.425,-6.836,208.130,136.719
0.583,-0.029,0.390,-4.150,215.393,135.559
0.652,0.042,0.396,-2.563,218.567,136.414
0.752,0.026,0.424,-0.854,211.914,135.254
0.771,0.053,0.447,-0.061,193.481,128.967
0.768,0.071,0.441,-0.549,167.542,124.329
0.742,0.065,0.410,-3.174,140.869,124.268
0.660,0.056,0.364,-8.484,119.568,124.695
0.547,0.116,0.326,-14.893,106.750,120.911
0.433,0.228,0.288,-19.287,103.333,112.305
0.377,0.304,0.245,-21.362,107.910,103.210
0.348,0.366,0.209,-23.621,117.432,93.933
0.329,0.467,0.209,-24.902,128.967,83.191
0.344,0.558,0.232,-24.719,138.123,73.059
0.378,0.586,0.240,-22.888,140.564,63.721
0.362,0.578,0.226,-22.522,138.489,55.664
0.334,0.584,0.211,-25.879,134.827,49.072
0.352,0.545,0.174,-31.982,131.592,43.579
0.394,0.512,0.115,-42.114,130.432,36.865
0.420,0.567,0.104,-56.335,132.446,27.466
0.459,0.661,0.114,-68.848,133.911,18.860
0.507,0.718,0.109,-77.026,130.676,11.353
0.556,0.750,0.087,-81.360,123.840,3.784
0.595,0.797,0.068,-83.435,114.685,-5.005
0.638,0.863,0.065,-82.703,104.126,-14.648
0.693,0.897,0.056,-80.505,90.759,-22.461
0.725,0.898,0.031,-78.064,73.547,-29.724
0.739,0.885,0.007,-77.271,54.993,-36.865
0.760,0.889,-0.022,-80.200,37.598,-41.809
0.787,0.894,-0.079,-86.060,20.264,-46.387
0.815,0.907,-0.141,-93.140,5.798,-53.528
0.854,0.961,-0.185,-100.586,-4.517,-61.768
0.871,1.031,-0.206,-104.553,-12.329,-68.359
0.901,1.074,-0.216,-103.699,-18.738,-69.885
0.911,1.092,-0.232,-99.609,-23.804,-68.604
0.899,1.096,-0.244,-93.506,-26.062,-65.063
0.889,1.096,-0.234,-86.975,-24.536,-58.899
0.881,1.068,-0.220,-80.933,-20.935,-51.514
0.866,1.021,-0.201,-76.294,-17.334,-44.678
0.865,0.954,-0.186,-73.059,-13.428,-39.307
0.920,0.895,-0.167,-71.899,-9.277,-36.316
0.994,0.880,-0.132,-72.021,-6.653,-35.095
1.047,0.888,-0.097,-71.289,-8.484,-34.607
1.086,0.882,-0.082,-68.604,-15.564,-34.058
1.076,0.867,-0.083,-64.697,-26.245,-32.166
1.013,0.846,-0.102,-59.753,-37.842,-28.870
0.939,0.805,-0.135,-54.932,-46.326,-25.635
0.869,0.774,-0.157,-50.781,-48.645,-23.010
0.833,0.755,-0.161,-45.959,-45.349,-20.020
0.807,0.730,-0.157,-39.917,-38.818,-17.090
0.808,0.694,-0.150,-32.837,-30.762,-14.587
0.809,0.655,-0.135,-25.024,-22.217,-13.611
0.809,0.615,-0.119,-18.250,-14.648,-13.184

1.345,1.686,-0.008,-5.371,-51.514,-0.549
1.479,1.952,-0.024,-16.541,-77.515,2.075
1.574,2.204,-0.064,-27.405,-114.990,7.812
1.589,2.420,-0.145,-34.851,-158.997,14.893
1.553,2.552,-0.251,-37.415,-201.233,22.339
1.528,2.590,-0.363,-35.583,-234.863,26.794
1.426,2.618,-0.440,-26.978,-258.057,23.743
1.231,2.679,-0.501,-13.733,-273.071,18.433
1.059,2.667,-0.574,0.061,-283.936,19.409
0.822,2.719,-0.646,13.184,-291.016,27.588
0.582,2.814,-0.682,28.381,-290.405,42.053
0.445,2.682,-0.737,48.035,-284.424,60.669
0.348,2.400,-0.812,63.354,-277.527,75.623
0.265,2.055,-0.868,63.416,-275.574,83.008
0.164,1.674,-0.889,49.194,-283.875,80.994
-0.008,1.202,-0.916,30.273,-299.866,67.322
-0.179,0.657,-0.889,8.911,-316.528,45.288
-0.398,0.198,-0.754,-10.925,-324.524,21.851
-0.600,-0.210,-0.484,-15.137,-316.833,0.916
-0.658,-0.705,-0.146,5.493,-296.692,-13.123
-0.528,-1.335,0.217,47.424,-275.269,-19.897
-0.329,-1.866,0.440,96.313,-262.207,-14.038
-0.091,-2.223,0.645,156.372,-265.747,4.822
-0.025,-2.660,0.813,239.685,-288.513,27.527
-0.229,-3.475,1.035,338.013,-318.848,42.419
-0.410,-4.000,1.461,433.960,-333.130,50.354
-0.607,-4.000,2.147,497.864,-326.904,41.870
-1.054,-4.000,2.928,499.146,-300.232,4.211
-1.223,-4.000,2.799,412.476,-247.925,-71.594
-0.842,-3.313,2.039,244.080,-143.799,-160.034
0.096,-1.791,1.418,50.171,0.305,-236.816
1.134,-0.527,1.002,-94.910,128.479,-256.042
1.948,0.020,0.852,-163.513,197.876,-211.243
2.500,0.284,0.782,-161.743,198.120,-127.625
2.685,0.519,0.698,-110.046,136.536,-32.349
