aX,aY,aZ,gX,gY,gZ
1.372,3.885,4.000,205.750,1.526,-39.368
2.879,2.846,4.000,407.837,91.675,-74.402
4.000,-3.124,4.000,429.138,145.081,-103.149
4.000,-3.664,4.000,166.077,120.056,25.269
1.734,-1.176,2.340,-120.178,71.960,180.481
0.859,-0.204,0.953,-259.338,96.741,169.983
0.490,-0.723,0.206,-320.618,77.576,133.362
0.237,-1.128,-0.109,-346.130,51.208,132.385
0.241,-1.010,-0.032,-378.479,18.494,134.277
-0.095,-0.744,-0.325,-394.897,-24.231,121.765
-0.208,-0.484,-0.378,-368.896,-32.166,90.027
0.145,-0.331,-0.258,-339.966,-20.386,61.646
0.324,-0.182,-0.294,-308.899,-20.447,52.612
0.205,-0.097,-0.210,-268.860,-29.846,53.406
0.004,-0.093,-0.262,-231.812,-48.279,51.819
-0.092,0.003,-0.255,-197.205,-56.091,49.744
-0.209,0.091,-0.255,-165.100,-51.758,57.434
-0.189,0.132,-0.201,-135.498,-40.894,69.763
-0.174,0.166,-0.233,-107.239,-33.386,79.590
-0.162,0.230,-0.186,-80.811,-22.644,87.769
-0.083,0.293,-0.079,-55.298,-13.306,93.872
0.004,0.296,-0.019,-28.992,-11.047,96.741
0.057,0.287,0.030,-5.493,-12.390,95.032
0.101,0.298,0.096,14.404,-15.564,90.393
0.125,0.298,0.130,33.936,-21.606,83.618
0.129,0.263,0.150,51.697,-29.053,76.050
0.126,0.229,0.192,65.857,-35.522,67.993
0.122,0.208,0.252,76.355,-40.955,59.021
0.126,0.175,0.316,83.252,-45.837,49.561
0.141,0.134,0.358,86.487,-49.255,38.879
0.148,0.096,0.391,86.304,-48.706,26.672
0.144,0.078,0.440,82.642,-43.274,14.771
0.148,0.100,0.472,76.111,-36.499,4.761
0.164,0.128,0.490,68.542,-28.137,-1.526
0.214,0.145,0.513,61.646,-17.822,-6.531
0.250,0.163,0.537,56.641,-7.385,-12.817
0.272,0.191,0.557,53.345,2.563,-18.738
0.312,0.225,0.587,51.819,12.085,-22.156
0.366,0.247,0.617,52.246,18.799,-23.132
0.418,0.249,0.648,54.260,23.254,-23.621
0.472,0.241,0.692,58.228,27.100,-25.269
0.524,0.222,0.740,63.416,30.334,-28.015
0.550,0.197,0.769,68.176,30.762,-31.616
0.559,0.176,0.783,70.862,29.358,-34.668
0.571,0.159,0.799,71.228,26.794,-36.194
0.554,0.150,0.794,68.542,24.231,-35.828
0.543,0.143,0.789,64.453,22.339,-34.180
0.539,0.124,0.780,59.814,20.996,-32.104
0.525,0.109,0.770,54.626,20.264,-30.151
0.492,0.114,0.750,49.011,20.264,-28.564
0.489,0.139,0.748,44.434,21.912,-27.832
0.499,0.174,0.769,41.504,23.987,-27.954
0.526,0.199,0.777,40.527,22.034,-28.259
0.544,0.180,0.749,40.527,16.968,-27.710
0.524,0.153,0.714,40.588,13.245,-28.320
0.497,0.168,0.693,40.710,11.108,-29.419
0.491,0.181,0.685,41.504,10.681,-29.297
0.486,0.195,0.700,43.030,11.597,-28.015
0.506,0.193,0.741,45.410,11.719,-25.269
0.524,0.160,0.740,47.058,9.033,-22.095
0.511,0.153,0.738,47.852,5.249,-20.142
0.501,0.169,0.752,48.706,2.747,-19.531
0.505,0.157,0.757,50.293,0.244,-19.531
0.505,0.132,0.764,51.453,-1.099,-21.423
0.506,0.118,0.773,51.514,-0.916,-25.146
0.514,0.113,0.775,50.476,-0.244,-29.236
0.523,0.104,0.787,48.706,1.526,-33.081
0.538,0.097,0.809,47.363,4.028,-35.767
0.550,0.095,0.820,45.776,5.432,-37.048
0.554,0.090,0.822,44.250,5.798,-37.659
0.548,0.080,0.821,43.213,6.592,-37.964
0.530,0.075,0.801,41.809,7.996,-38.208
0.517,0.065,0.777,40.161,11.108,-38.757
0.525,0.058,0.764,38.391,15.869,-39.612
0.544,0.067,0.766,35.828,20.569,-40.100
0.562,0.065,0.759,33.325,23.132,-39.856
0.577,0.054,0.753,31.250,24.048,-39.429
0.586,0.055,0.757,29.663,23.743,-39.185
0.614,0.067,0.774,29.358,21.484,-38.208
0.626,0.069,0.777,31.189,17.273,-36.438
0.641,0.066,0.795,33.264,12.939,-34.058
0.678,0.060,0.821,36.926,8.057,-32.104
0.694,0.045,0.835,40.955,2.441,-30.579
0.685,0.027,0.841,43.884,-2.869,-29.358
0.666,0.013,0.835,44.800,-7.812,-28.748
0.651,0.002,0.837,44.312,-11.169,-28.503
0.634,-0.010,0.836,42.480,-11.902,-28.076
0.603,-0.021,0.825,40.649,-10.681,-28.137
0.583,-0.027,0.819,38.574,-7.568,-28.748
0.604,-0.032,0.833,36.926,-2.197,-29.236
0.635,-0.038,0.852,36.316,2.991,-29.968
0.661,-0.037,0.880,37.231,6.409,-31.006
0.731,-0.039,0.920,39.124,8.118,-31.738
0.769,-0.056,0.946,42.725,7.385,-32.593
0.762,-0.068,0.956,44.983,4.211,-32.166
0.760,-0.073,0.952,45.593,0.000,-29.968
0.766,-0.089,0.945,45.044,-4.456,-26.733
0.749,-0.110,0.937,43.396,-8.545,-23.010
0.702,-0.125,0.917,39.978,-11.047,-19.287
0.638,-0.128,0.885,34.973,-10.925,-15.686
0.598,-0.124,0.855,28.198,-7.690,-12.573
0.574,-0.120,0.821,20.203,-2.441,-10.254
0.571,-0.105,0.795,12.695,3.784,-9.277
0.594,-0.079,0.792,6.775,10.010,-9.705
0.607,-0.065,0.792,3.052,13.306,-10.620
0.624,-0.054,0.792,2.014,13.306,-11.047
0.632,-0.045,0.796,2.563,10.925,-11.108
0.630,-0.035,0.788,4.089,6.531,-10.498
0.643,-0.037,0.794,7.019,1.587,-9.216
0.653,-0.056,0.801,9.827,-2.502,-7.446
0.656,-0.081,0.808,11.597,-6.531,-5.798
0.658,-0.098,0.807,10.986,-10.132,-4.272
0.655,-0.118,0.803,8.911,-12.512,-3.296
0.647,-0.137,0.798,6.165,-13.733,-3.052
0.627,-0.141,0.790,3.784,-13.123,-3.174
0.621,-0.141,0.793,2.197,-10.193,-3.601
0.622,-0.148,0.794,1.587,-6.287,-4.639
0.622,-0.152,0.797,1.343,-2.563,-5.676
0.643,-0.150,0.804,0.671,0.671,-6.897

0.111,1.821,4.000,174.683,49.316,-23.437
2.900,-1.349,4.000,326.355,172.546,-132.446
4.000,-3.137,4.000,238.647,134.521,-151.794
2.983,-3.049,3.975,55.542,-17.090,118.042
0.950,-0.984,2.036,-111.938,-18.005,219.055
0.900,-0.504,1.078,-226.562,45.410,201.538
0.695,-0.725,0.548,-297.729,40.833,148.560
0.205,-0.753,0.078,-334.778,40.222,121.033
0.017,-0.852,-0.206,-357.849,31.250,115.295
0.019,-0.880,-0.291,-375.916,14.404,102.295
-0.236,-0.852,-0.521,-379.700,4.639,83.435
-0.542,-0.711,-0.694,-356.323,25.146,59.082
-0.394,-0.385,-0.549,-319.519,68.909,30.701
0.236,0.187,-0.111,-272.583,99.365,18.066
0.216,0.101,-0.090,-241.699,85.144,34.180
0.049,0.092,-0.111,-209.534,66.589,45.410
-0.016,0.236,-0.065,-180.725,53.467,59.265
-0.068,0.266,-0.099,-148.193,40.161,76.355
-0.074,0.302,-0.096,-115.967,30.579,86.121
-0.019,0.330,-0.081,-84.656,21.362,92.590
0.002,0.331,-0.118,-51.880,11.292,93.018
0.001,0.328,-0.088,-19.348,5.310,85.999
0.016,0.308,-0.008,11.597,0.732,74.707
0.040,0.254,0.034,39.246,-5.310,60.791
0.062,0.183,0.075,61.951,-9.827,45.288
0.079,0.130,0.130,78.308,-12.512,29.785
0.077,0.084,0.154,89.966,-14.038,15.381
0.072,0.042,0.179,96.985,-11.658,3.540
0.098,0.010,0.224,100.281,-4.944,-5.798
0.169,-0.005,0.286,100.159,4.089,-13.611
0.275,-0.011,0.354,97.473,13.123,-17.761
0.380,-0.041,0.404,91.919,18.555,-17.700
0.462,-0.058,0.466,83.496,20.569,-15.503
0.512,-0.045,0.515,73.608,18.982,-11.658
0.569,-0.003,0.562,63.171,14.465,-7.263
0.641,0.052,0.608,55.054,8.301,-4.333
0.711,0.112,0.656,51.392,1.038,-4.456
0.750,0.161,0.689,51.697,-7.629,-7.141
0.736,0.175,0.696,55.115,-16.724,-11.169
0.686,0.165,0.683,59.998,-23.560,-15.686
0.632,0.165,0.666,65.063,-26.184,-20.203
0.599,0.162,0.664,70.435,-23.621,-23.621
0.581,0.132,0.657,74.951,-17.822,-25.757
0.554,0.094,0.650,78.064,-9.399,-28.137
0.520,0.066,0.651,79.285,2.258,-31.616
0.512,0.041,0.651,78.430,15.686,-35.156
0.551,0.010,0.663,74.707,29.480,-37.537
0.568,-0.007,0.657,69.397,42.053,-39.124
0.561,-0.022,0.674,63.110,53.650,-41.382
0.655,0.085,0.783,56.458,61.890,-44.495
0.754,0.118,0.783,51.331,56.396,-41.260
0.717,0.037,0.720,48.096,43.640,-37.292
0.703,0.087,0.760,44.678,34.485,-39.185
0.736,0.143,0.791,42.969,21.912,-38.269
0.750,0.130,0.777,44.800,4.639,-35.278
0.734,0.098,0.781,48.645,-11.292,-33.936
0.671,0.081,0.769,52.246,-24.475,-33.936
0.606,0.076,0.764,54.871,-32.043,-32.837
0.600,0.090,0.772,56.091,-35.645,-29.602
0.584,0.039,0.746,56.641,-37.781,-24.353
0.545,-0.003,0.724,54.993,-35.034,-21.118
0.521,-0.001,0.732,52.246,-28.748,-21.179
0.516,0.011,0.734,49.683,-21.912,-22.217
0.534,0.002,0.742,48.401,-15.320,-23.193
0.568,-0.004,0.765,48.218,-10.010,-25.574
0.579,-0.005,0.776,49.438,-8.240,-28.809
0.609,-0.004,0.802,50.842,-9.399,-31.555
0.672,-0.014,0.841,52.307,-13.855,-32.532
0.706,-0.037,0.859,54.932,-22.400,-33.264
0.678,-0.057,0.856,57.434,-32.043,-34.241
0.641,-0.065,0.849,58.716,-39.673,-34.912
0.616,-0.083,0.840,59.509,-43.945,-34.790
0.580,-0.113,0.829,59.937,-43.701,-33.752
0.524,-0.146,0.823,58.228,-38.513,-31.006
0.499,-0.164,0.822,54.688,-29.358,-26.550
0.523,-0.168,0.834,50.903,-18.066,-21.790
0.563,-0.175,0.851,47.241,-7.385,-18.250
0.612,-0.188,0.860,44.495,1.343,-16.541
0.679,-0.208,0.882,42.908,8.423,-17.700
0.759,-0.217,0.921,41.199,10.559,-21.240
0.775,-0.217,0.901,38.269,5.615,-23.437
0.777,-0.211,0.904,34.302,0.244,-22.461
0.762,-0.202,0.889,29.907,-6.714,-19.958
0.736,-0.187,0.879,26.489,-13.611,-16.235
0.710,-0.181,0.857,25.269,-18.860,-13.123
0.686,-0.171,0.852,26.489,-20.813,-11.536
0.697,-0.176,0.866,30.457,-20.630,-10.925
0.707,-0.203,0.871,35.034,-21.240,-10.437
0.698,-0.222,0.868,39.246,-22.644,-10.498
0.683,-0.226,0.875,43.579,-22.461,-10.681
0.668,-0.230,0.876,47.974,-22.034,-10.071
0.644,-0.247,0.853,51.697,-21.362,-8.606
0.622,-0.273,0.853,54.443,-17.761,-7.141
0.600,-0.305,0.843,55.298,-12.451,-5.920
0.576,-0.327,0.822,54.321,-7.446,-5.981
0.561,-0.328,0.815,52.124,-1.526,-6.836
0.560,-0.322,0.807,49.438,3.906,-7.690
0.557,-0.333,0.793,46.509,8.362,-7.874
0.541,-0.333,0.780,43.335,12.268,-7.996
0.536,-0.321,0.763,39.795,15.198,-6.775
0.551,-0.319,0.751,37.476,16.174,-4.761
0.561,-0.329,0.747,35.156,16.174,-2.563
0.575,-0.345,0.743,32.288,14.648,0.244
0.590,-0.349,0.750,28.198,11.475,3.784
0.595,-0.347,0.748,23.315,6.226,7.507
0.585,-0.339,0.730,18.616,0.366,10.559
0.574,-0.344,0.728,15.076,-4.272,12.390
0.555,-0.354,0.706,11.963,-7.812,13.306
0.542,-0.364,0.697,10.010,-10.010,12.817
0.530,-0.370,0.693,8.972,-10.315,10.986
0.521,-0.365,0.693,8.484,-9.460,8.850
0.527,-0.361,0.688,7.874,-8.728,7.141
0.530,-0.357,0.676,7.690,-8.362,5.432
0.527,-0.356,0.666,7.812,-7.874,3.723
0.528,-0.359,0.650,8.423,-7.019,1.709
0.521,-0.366,0.638,10.193,-6.165,-0.549
0.505,-0.374,0.623,11.780,-5.310,-2.625
0.487,-0.376,0.604,14.038,-3.967,-4.822
0.464,-0.368,0.578,16.418,-2.014,-7.996

-2.096,-4.000,4.000,25.269,-74.829,-123.413
-1.141,-3.911,4.000,-380.737,216.125,-156.555
1.550,-1.505,2.277,-568.420,247.681,52.124
1.398,0.268,0.915,-569.275,205.261,138.306
-0.152,0.411,0.998,-507.568,214.844,102.478
-0.161,-0.097,0.698,-387.146,257.141,108.704
0.520,-0.228,0.240,-303.955,289.612,113.586
0.969,-0.215,0.509,-263.489,308.533,94.910
0.850,-0.241,0.242,-242.065,258.850,70.129
0.706,-0.391,-0.111,-225.891,202.148,63.782
0.748,-0.435,0.024,-217.712,157.898,54.199
0.561,-0.246,-0.104,-211.853,90.149,41.504
0.419,-0.162,-0.285,-198.364,23.926,37.476
0.369,-0.105,-0.250,-178.772,-19.592,32.349
0.268,-0.094,-0.290,-157.593,-55.054,30.396
0.196,-0.030,-0.289,-140.320,-78.064,30.945
0.177,0.051,-0.268,-122.192,-90.210,31.189
0.111,0.125,-0.313,-98.694,-97.229,31.067
0.048,0.133,-0.331,-73.120,-97.290,32.593
0.020,0.123,-0.342,-48.218,-90.515,34.729
0.024,0.152,-0.273,-25.024,-78.003,37.048
0.038,0.147,-0.228,-3.540,-65.247,41.199
0.044,0.092,-0.211,14.648,-52.795,46.631
0.047,0.080,-0.131,28.076,-37.903,51.880
0.072,0.077,-0.048,37.720,-24.475,57.068
0.088,0.047,0.017,46.265,-13.550,59.570
0.086,0.043,0.103,53.528,-4.456,55.420
0.078,0.042,0.175,60.425,2.686,46.448
0.078,0.039,0.242,67.139,9.338,34.546
0.099,0.047,0.324,73.975,17.151,20.691
0.151,0.044,0.413,80.627,25.513,6.836
0.253,0.025,0.513,88.318,32.104,-6.348
0.378,-0.010,0.623,95.459,35.522,-18.066
0.483,-0.050,0.714,99.609,34.424,-24.902
0.572,-0.078,0.790,99.243,30.151,-24.719
0.657,-0.100,0.856,94.543,23.865,-18.494
0.714,-0.113,0.894,86.426,15.869,-8.728
0.743,-0.115,0.917,77.087,6.836,0.488
0.717,-0.108,0.919,67.810,-1.709,7.385
0.665,-0.102,0.901,60.486,-8.240,9.583
0.612,-0.097,0.887,54.810,-10.376,7.690
0.548,-0.092,0.866,50.598,-7.507,2.258
0.495,-0.081,0.846,47.058,0.000,-4.639
0.487,-0.070,0.838,44.739,11.658,-12.024
0.474,-0.076,0.807,44.617,25.452,-18.799
0.473,-0.076,0.799,45.654,41.321,-24.536
0.623,-0.063,0.952,47.180,56.335,-28.442
0.753,-0.083,0.941,49.377,55.603,-29.846
0.755,-0.121,0.896,50.598,44.739,-28.992
0.772,-0.126,0.970,50.293,34.302,-28.748
0.803,-0.119,0.970,49.438,17.212,-26.917
0.750,-0.137,0.925,47.607,-3.174,-23.132
0.704,-0.138,0.925,44.067,-19.348,-18.921
0.643,-0.143,0.875,40.710,-33.630,-15.320
0.568,-0.150,0.840,38.574,-41.748,-14.343
0.506,-0.142,0.817,37.842,-42.542,-16.479
0.467,-0.144,0.789,38.208,-38.147,-19.470
0.453,-0.151,0.779,39.185,-28.687,-21.667
0.459,-0.155,0.771,40.161,-17.639,-22.400
0.484,-0.169,0.772,40.405,-6.409,-21.851
0.509,-0.186,0.786,40.771,4.395,-21.057
0.529,-0.199,0.788,40.649,13.733,-19.226
0.555,-0.216,0.788,39.185,21.423,-16.113
0.596,-0.211,0.810,37.170,25.635,-12.756
0.621,-0.205,0.812,35.217,25.085,-9.277
0.628,-0.209,0.808,33.691,21.118,-6.592
0.630,-0.202,0.811,33.142,15.442,-5.493
0.615,-0.194,0.806,33.264,8.423,-5.737
0.593,-0.196,0.796,33.752,1.160,-5.859
0.560,-0.204,0.777,33.752,-4.089,-5.127
0.536,-0.212,0.770,33.447,-7.080,-4.028
0.535,-0.225,0.777,33.203,-7.935,-2.930
0.529,-0.242,0.778,32.776,-8.240,-1.465
0.518,-0.252,0.774,31.311,-7.935,-0.427
0.512,-0.257,0.768,29.053,-6.775,-0.427
0.500,-0.256,0.756,26.550,-4.578,-1.343
0.500,-0.250,0.751,24.048,-1.099,-2.625
0.520,-0.245,0.754,21.301,3.601,-3.418
0.556,-0.248,0.764,20.081,8.423,-4.761
0.588,-0.246,0.776,19.714,12.146,-6.287
0.625,-0.240,0.789,20.081,14.160,-6.470
0.670,-0.247,0.807,21.729,14.404,-6.104
0.694,-0.267,0.819,25.146,12.268,-5.981
0.704,-0.282,0.823,28.076,8.423,-5.981
0.718,-0.300,0.838,31.067,3.845,-5.798
0.736,-0.319,0.862,34.119,-0.793,-4.883
0.759,-0.336,0.886,37.292,-5.981,-3.784
0.779,-0.349,0.913,40.161,-11.719,-2.686
0.793,-0.365,0.932,42.786,-17.761,-0.793
0.776,-0.376,0.943,44.128,-23.499,1.587
0.746,-0.375,0.937,44.128,-27.771,4.089
0.720,-0.375,0.930,42.358,-29.724,7.019
0.687,-0.385,0.912,39.307,-29.663,9.705
0.636,-0.395,0.885,35.095,-27.710,11.597
0.579,-0.393,0.846,29.358,-23.621,13.489
0.530,-0.385,0.806,22.522,-17.578,15.076
0.496,-0.378,0.766,15.137,-10.437,16.357
0.474,-0.374,0.728,7.751,-3.418,17.273
0.454,-0.361,0.693,0.732,3.357,17.761
0.436,-0.341,0.660,-5.127,9.583,17.761
0.427,-0.318,0.631,-10.315,15.076,17.456
0.427,-0.298,0.612,-14.038,19.836,16.724
0.446,-0.280,0.612,-16.357,23.804,15.991
0.483,-0.264,0.611,-17.151,25.146,15.381
0.525,-0.265,0.637,-16.846,23.621,15.625
0.537,-0.282,0.643,-15.015,19.287,15.625
0.540,-0.287,0.653,-13.367,13.489,15.198
0.542,-0.296,0.661,-11.597,7.690,13.916
0.545,-0.310,0.667,-8.972,2.625,12.451
0.552,-0.326,0.678,-6.531,-1.221,10.681
0.570,-0.331,0.702,-4.333,-3.784,7.935
0.607,-0.335,0.732,-1.160,-5.310,4.456
0.658,-0.351,0.764,2.319,-6.470,1.282
0.715,-0.367,0.796,5.798,-8.179,-1.160
0.761,-0.379,0.831,9.094,-11.108,-1.709
0.769,-0.386,0.844,10.925,-15.991,-0.061
0.746,-0.389,0.842,10.559,-21.240,2.869
0.698,-0.391,0.828,8.545,-24.170,6.104
0.634,-0.385,0.794,4.883,-23.621,8.057

3.505,-4.000,4.000,333.801,-139.587,-69.763
1.894,-3.801,4.000,-66.528,-180.664,-84.290
0.133,-1.728,3.166,-285.400,16.846,234.741
0.668,0.057,2.178,-362.000,149.658,200.195
0.632,-0.902,0.943,-349.854,193.726,128.967
0.843,-1.313,0.684,-317.322,201.660,90.759
0.609,-0.756,0.156,-312.317,156.982,52.124
0.331,-0.563,0.042,-300.049,126.953,50.659
0.167,-0.516,0.245,-290.222,103.333,39.124
-0.015,-0.526,-0.171,-276.001,49.133,31.677
0.191,-0.401,-0.282,-260.559,20.996,40.833
0.138,-0.199,-0.286,-245.422,-2.197,56.641
0.013,-0.167,-0.178,-219.055,-20.935,75.134
-0.036,-0.212,-0.322,-192.200,-38.391,87.769
-0.016,-0.164,-0.199,-170.593,-45.898,96.252
-0.101,-0.142,-0.365,-149.597,-59.204,101.868
-0.144,-0.138,-0.321,-129.517,-64.087,101.929
-0.211,-0.074,-0.332,-111.816,-64.453,95.276
-0.267,0.018,-0.329,-94.849,-62.256,85.999
-0.315,0.101,-0.332,-79.895,-56.519,75.989
-0.343,0.130,-0.339,-65.186,-47.363,65.491
-0.344,0.153,-0.308,-51.636,-33.813,53.955
-0.352,0.160,-0.300,-39.368,-19.226,43.579
-0.361,0.187,-0.261,-29.297,-2.563,33.936
-0.343,0.241,-0.190,-20.691,15.564,26.001
-0.296,0.281,-0.117,-11.536,32.349,19.836
-0.234,0.296,-0.042,-0.610,46.448,13.733
-0.173,0.273,0.025,11.658,56.335,6.714
-0.104,0.245,0.098,22.766,62.195,-1.221
-0.016,0.236,0.192,32.104,62.866,-9.155
0.065,0.204,0.273,40.649,57.312,-17.578
0.174,0.190,0.383,49.316,48.584,-27.344
0.315,0.184,0.506,59.998,36.499,-37.659
0.445,0.167,0.619,72.144,20.508,-46.570
0.507,0.133,0.702,83.557,1.404,-51.392
0.524,0.086,0.758,91.064,-15.869,-49.561
0.505,0.046,0.790,92.163,-28.198,-40.283
0.456,0.012,0.792,88.196,-34.546,-28.259
0.393,-0.010,0.788,81.299,-33.081,-18.616
0.333,-0.006,0.789,72.083,-23.926,-14.343
0.313,0.019,0.805,63.293,-9.216,-16.418
0.304,0.029,0.804,57.861,7.935,-23.804
0.311,0.032,0.797,53.955,26.489,-32.654
0.371,0.047,0.813,51.636,43.884,-40.283
0.483,0.060,0.855,52.002,57.739,-46.448
0.555,0.053,0.872,54.993,64.392,-51.697
0.570,0.030,0.861,58.899,64.819,-54.871
0.581,0.040,0.867,60.608,62.256,-54.260
0.590,0.023,0.844,60.303,55.664,-48.950
0.612,0.004,0.826,59.570,47.546,-43.518
0.618,-0.004,0.860,59.570,39.246,-41.931
0.591,-0.007,0.838,59.692,27.649,-42.480
0.568,-0.020,0.819,59.204,15.747,-42.786
0.588,-0.025,0.843,58.594,6.348,-44.006
0.605,-0.032,0.867,58.899,-2.686,-44.800
0.610,-0.036,0.897,59.753,-9.888,-43.945
0.630,-0.051,0.919,61.829,-15.747,-41.931
0.637,-0.070,0.930,64.087,-19.043,-39.368
0.603,-0.087,0.919,65.186,-19.531,-36.621
0.569,-0.099,0.896,63.416,-16.907,-33.203
0.552,-0.104,0.885,59.326,-11.292,-29.785
0.560,-0.114,0.877,54.443,-5.066,-27.588
0.530,-0.127,0.829,49.744,0.671,-27.283
0.506,-0.110,0.844,44.983,8.179,-28.320
0.545,-0.086,0.867,42.725,13.428,-28.931
0.594,-0.103,0.859,42.908,12.451,-28.625
0.566,-0.127,0.813,43.640,9.216,-28.748
0.546,-0.108,0.845,43.884,6.592,-28.992
0.560,-0.093,0.850,43.945,1.587,-26.917
0.552,-0.131,0.817,43.823,-4.456,-23.193
0.541,-0.132,0.836,43.457,-7.324,-21.057
0.549,-0.117,0.865,43.335,-9.521,-19.348
0.549,-0.134,0.868,44.312,-12.268,-17.639
0.519,-0.158,0.863,45.410,-13.000,-16.479
0.482,-0.163,0.856,45.654,-11.108,-15.381
0.469,-0.170,0.846,44.312,-7.568,-14.160
0.481,-0.180,0.856,42.236,-2.014,-13.733
0.490,-0.190,0.865,39.978,4.211,-14.709
0.502,-0.192,0.868,37.964,10.132,-16.235
0.522,-0.195,0.868,35.828,15.320,-17.212
0.536,-0.198,0.864,33.691,18.921,-16.785
0.555,-0.205,0.872,32.349,21.057,-16.479
0.593,-0.210,0.903,33.142,22.156,-16.968
0.619,-0.214,0.924,36.133,20.752,-18.311
0.613,-0.234,0.932,40.649,17.273,-19.958
0.621,-0.256,0.939,44.495,13.367,-20.569
0.654,-0.275,0.959,47.424,9.277,-19.531
0.667,-0.301,0.978,49.805,4.211,-17.517
0.670,-0.319,0.988,50.781,-0.793,-15.015
0.668,-0.339,0.995,50.537,-4.883,-12.085
0.654,-0.358,0.995,49.377,-7.507,-9.338
0.634,-0.379,0.992,46.387,-8.118,-6.897
0.614,-0.393,0.984,41.565,-6.775,-4.822
0.587,-0.401,0.963,35.278,-3.662,-3.296
0.563,-0.395,0.938,27.771,0.610,-2.258
0.557,-0.383,0.920,20.386,6.104,-1.160
0.546,-0.372,0.898,14.221,11.719,-0.488
0.525,-0.357,0.860,9.155,17.029,0.427
0.506,-0.333,0.823,4.456,22.461,2.075
0.498,-0.317,0.791,1.282,27.649,3.784
0.515,-0.317,0.789,-1.587,32.654,5.615
0.538,-0.312,0.784,-4.395,34.180,7.507
0.557,-0.306,0.786,-6.958,31.494,9.888
0.553,-0.302,0.769,-9.094,25.879,12.146
0.541,-0.290,0.750,-10.498,19.409,13.367
0.526,-0.283,0.748,-10.132,13.794,13.000
0.521,-0.283,0.757,-8.972,9.888,11.536
0.548,-0.287,0.767,-7.080,6.470,10.071
0.582,-0.296,0.779,-5.432,2.258,9.460
0.607,-0.309,0.793,-3.967,-2.563,9.216
0.632,-0.316,0.814,-1.953,-8.057,8.606
0.640,-0.319,0.828,1.038,-13.916,8.179
0.637,-0.324,0.839,4.089,-19.043,7.568
0.628,-0.331,0.845,7.935,-22.461,6.409
0.613,-0.340,0.848,11.414,-23.560,4.883
0.603,-0.350,0.853,14.709,-22.522,3.601
0.587,-0.365,0.850,16.602,-20.630,2.747
0.561,-0.376,0.838,16.113,-18.250,2.625
0.521,-0.371,0.814,12.268,-14.526,3.357

-0.564,0.391,4.000,206.726,-29.297,-68.665
1.802,-4.000,4.000,143.494,105.774,-176.270
2.027,-2.715,4.000,-262.878,239.258,-26.489
2.331,0.319,3.383,-377.686,303.284,233.459
1.942,-0.436,2.273,-378.540,268.860,158.142
0.839,-1.088,0.635,-311.646,211.060,122.681
0.032,-1.001,-0.347,-283.691,204.773,104.919
1.140,-1.155,0.808,-276.794,234.070,85.327
0.650,-0.816,0.297,-266.052,135.071,26.917
0.312,-0.627,-0.016,-271.790,71.899,20.996
0.135,-0.564,-0.402,-271.667,6.592,31.128
0.491,-0.584,-0.112,-257.996,-21.362,51.270
0.294,-0.472,-0.356,-232.544,-61.584,54.810
0.081,-0.458,-0.374,-216.309,-73.547,67.322
0.087,-0.274,-0.208,-206.421,-77.393,78.674
-0.075,-0.255,-0.398,-187.256,-88.196,90.088
-0.095,-0.225,-0.375,-167.297,-77.576,95.947
-0.117,-0.151,-0.327,-148.010,-62.500,92.102
-0.111,-0.037,-0.325,-127.014,-49.805,83.008
-0.152,0.068,-0.336,-104.431,-36.316,72.083
-0.120,0.149,-0.249,-81.726,-19.958,60.974
-0.063,0.189,-0.226,-58.533,-9.033,50.232
-0.046,0.189,-0.221,-37.109,-0.610,42.114
0.009,0.197,-0.135,-20.386,9.277,36.377
0.093,0.215,-0.064,-5.737,13.916,32.654
0.167,0.219,0.005,7.751,13.062,31.433
0.218,0.218,0.092,19.775,9.399,31.311
0.246,0.210,0.166,30.334,2.319,32.898
0.251,0.195,0.215,38.940,-5.859,36.133
0.257,0.171,0.268,45.532,-13.000,39.490
0.291,0.139,0.336,50.720,-20.142,41.687
0.304,0.101,0.372,54.688,-29.114,41.321
0.292,0.082,0.403,57.617,-36.804,36.682
0.300,0.079,0.463,60.669,-41.199,28.687
0.343,0.080,0.520,63.843,-44.434,19.897
0.373,0.064,0.559,66.650,-47.302,12.085
0.386,0.060,0.601,68.909,-48.157,5.920
0.402,0.082,0.662,71.167,-45.532,2.075
0.412,0.094,0.708,74.280,-41.260,0.793
0.422,0.079,0.744,77.698,-35.156,1.282
0.434,0.062,0.776,80.627,-27.466,1.709
0.445,0.040,0.800,81.970,-19.897,1.465
0.452,0.014,0.815,81.787,-14.832,0.122
0.442,-0.005,0.819,80.078,-12.146,-2.197
0.420,-0.011,0.828,77.209,-10.864,-4.089
0.412,-0.004,0.855,74.219,-11.597,-6.775
0.400,-0.005,0.849,71.350,-15.442,-8.850
0.395,-0.007,0.861,68.665,-18.799,-10.559
0.340,-0.011,0.844,67.261,-21.057,-13.123
0.287,-0.010,0.835,66.345,-20.081,-15.686
0.274,-0.001,0.841,64.758,-15.808,-17.700
0.310,-0.001,0.860,63.782,-10.864,-19.409
0.335,-0.011,0.875,63.965,-7.629,-22.034
0.348,-0.018,0.881,64.392,-5.493,-25.269
0.358,-0.031,0.883,64.941,-4.944,-27.954
0.365,-0.045,0.884,64.575,-3.784,-28.992
0.369,-0.055,0.881,62.744,-2.686,-28.625
0.387,-0.061,0.890,59.814,-1.953,-27.405
0.421,-0.078,0.902,57.007,-2.136,-25.940
0.424,-0.093,0.898,53.955,-1.892,-25.085
0.417,-0.088,0.907,51.025,-0.305,-25.269
0.439,-0.072,0.925,48.279,1.160,-24.597
0.459,-0.078,0.917,46.326,0.671,-23.560
0.462,-0.085,0.922,45.227,0.366,-23.132
0.445,-0.082,0.934,45.410,-0.427,-23.682
0.441,-0.075,0.932,45.776,-2.563,-23.193
0.437,-0.086,0.925,46.265,-4.883,-21.973
0.437,-0.101,0.932,46.082,-6.470,-20.508
0.428,-0.110,0.929,45.410,-7.629,-18.982
0.409,-0.117,0.915,44.128,-7.874,-17.334
0.400,-0.123,0.902,42.175,-6.348,-16.113
0.400,-0.124,0.901,40.466,-3.418,-16.113
0.389,-0.124,0.892,38.879,-0.427,-16.785
0.395,-0.123,0.891,37.415,2.808,-17.212
0.400,-0.116,0.903,37.231,6.531,-16.785
0.413,-0.118,0.929,38.940,9.766,-16.296
0.427,-0.126,0.944,40.710,10.681,-15.747
0.453,-0.140,0.958,41.443,9.155,-14.404
0.463,-0.159,0.959,41.443,5.859,-12.085
0.458,-0.168,0.953,40.527,1.953,-9.277
0.448,-0.178,0.950,39.368,-1.038,-6.775
0.458,-0.192,0.963,39.429,-3.113,-5.432
0.469,-0.210,0.978,40.955,-4.883,-5.554
0.459,-0.229,0.998,43.640,-6.287,-6.592
0.462,-0.251,1.013,46.692,-7.446,-7.141
0.463,-0.282,1.023,49.683,-8.362,-7.324
0.471,-0.305,1.036,51.758,-8.545,-7.751
0.487,-0.319,1.060,53.528,-8.423,-8.545
0.489,-0.324,1.073,55.359,-7.629,-9.399
0.481,-0.312,1.078,55.725,-5.676,-9.521
0.484,-0.297,1.074,54.504,-3.113,-8.057
0.482,-0.296,1.060,51.514,-0.916,-5.798
0.469,-0.306,1.034,45.227,0.732,-3.662
0.458,-0.328,1.000,36.133,2.441,-1.709
0.443,-0.335,0.967,24.048,4.211,0.732
0.415,-0.314,0.929,11.169,5.615,2.747
0.386,-0.276,0.891,-1.282,7.202,5.066
0.365,-0.237,0.847,-11.902,9.033,7.385
0.344,-0.201,0.799,-19.653,10.986,8.728
0.327,-0.169,0.757,-25.024,13.306,9.094
0.336,-0.136,0.738,-27.771,15.930,8.789
0.374,-0.109,0.743,-27.649,17.334,8.301
0.417,-0.099,0.757,-24.902,16.235,8.118
0.461,-0.106,0.773,-20.386,11.963,8.789
0.496,-0.120,0.803,-15.137,5.371,10.071
0.527,-0.140,0.841,-9.888,-2.625,11.902
0.563,-0.164,0.884,-4.333,-11.108,13.855
0.582,-0.199,0.924,1.892,-19.958,15.076
0.577,-0.237,0.955,7.385,-27.771,15.503
0.568,-0.275,0.979,11.841,-33.142,15.808
0.539,-0.312,0.988,14.343,-35.400,15.991
0.504,-0.336,0.991,13.611,-33.813,15.930
0.489,-0.345,0.997,11.292,-28.809,14.343
0.480,-0.350,0.991,8.667,-21.606,11.169
0.463,-0.349,0.975,5.371,-13.550,7.507
0.461,-0.335,0.954,1.648,-5.249,4.700
0.472,-0.314,0.934,-1.526,2.075,3.174
0.473,-0.290,0.913,-4.700,7.751,2.258
0.471,-0.270,0.890,-6.287,11.047,1.770

-0.598,-4.000,4.000,-82.703,131.958,-88.379
2.081,-2.165,4.000,-413.086,265.503,-41.565
1.426,1.328,2.550,-512.207,269.104,132.874
1.169,0.241,2.119,-432.007,251.770,103.333
0.889,-0.446,0.779,-309.814,186.401,39.612
0.520,-0.545,0.381,-244.751,148.132,24.475
0.559,-0.333,0.380,-207.275,120.422,22.278
0.565,-0.182,0.071,-171.265,72.754,29.053
0.452,-0.260,-0.134,-145.081,30.518,44.006
0.268,-0.289,-0.389,-135.925,-5.737,65.491
0.157,-0.379,-0.429,-125.610,-25.696,97.229
0.114,-0.350,-0.353,-113.037,-30.701,115.479
0.052,-0.387,-0.297,-105.835,-31.982,121.277
-0.038,-0.375,-0.295,-107.666,-32.410,121.643
-0.137,-0.304,-0.307,-110.168,-33.325,114.746
-0.197,-0.184,-0.355,-109.009,-31.494,103.210
-0.217,-0.109,-0.381,-103.577,-23.987,91.187
-0.189,-0.058,-0.326,-93.994,-13.062,77.087
-0.186,0.022,-0.357,-80.444,-7.263,62.561
-0.190,0.090,-0.345,-65.857,-1.282,52.490
-0.175,0.092,-0.301,-52.063,4.700,46.082
-0.161,0.081,-0.298,-41.199,7.935,41.077
-0.143,0.116,-0.269,-31.982,10.864,36.743
-0.120,0.155,-0.214,-22.278,12.146,33.264
-0.099,0.175,-0.149,-10.254,10.559,29.602
-0.084,0.173,-0.086,3.845,6.348,24.841
-0.076,0.157,-0.045,18.616,0.000,19.226
-0.054,0.153,0.004,34.363,-7.507,12.878
-0.011,0.128,0.075,51.819,-15.442,6.165
0.012,0.111,0.131,72.632,-23.071,-2.502
0.032,0.077,0.209,95.520,-29.968,-11.230
0.056,0.012,0.265,117.981,-37.048,-18.799
0.122,-0.041,0.360,139.099,-41.748,-26.550
0.203,-0.104,0.460,159.912,-45.898,-32.959
0.284,-0.186,0.559,178.894,-49.805,-36.926
0.315,-0.290,0.636,193.176,-54.993,-37.231
0.328,-0.389,0.728,200.562,-58.411,-34.363
0.312,-0.473,0.790,200.684,-60.181,-29.968
0.244,-0.533,0.799,193.726,-59.692,-25.635
0.178,-0.541,0.774,180.542,-53.528,-22.949
0.189,-0.530,0.780,166.138,-40.222,-21.973
0.242,-0.528,0.825,155.273,-23.010,-24.170
0.302,-0.543,0.893,149.292,-8.118,-30.151
0.360,-0.564,0.948,147.766,2.869,-38.391
0.408,-0.578,1.010,148.682,10.742,-44.067
0.454,-0.596,1.064,152.405,14.893,-45.898
0.474,-0.635,1.093,157.471,13.977,-46.021
0.460,-0.674,1.090,161.011,10.254,-45.654
0.458,-0.713,1.099,159.668,9.094,-42.969
0.454,-0.762,1.095,152.893,9.460,-36.987
0.392,-0.788,1.033,140.808,9.399,-30.945
0.372,-0.799,1.045,124.268,15.564,-25.391
0.419,-0.790,1.120,106.567,25.452,-21.912
0.422,-0.783,1.095,90.393,31.128,-22.400
0.429,-0.737,1.102,75.623,36.926,-26.001
0.476,-0.712,1.213,62.927,42.297,-29.053
0.571,-0.660,1.187,52.795,37.354,-31.921
0.525,-0.601,1.057,45.715,25.940,-31.799
0.505,-0.571,1.109,42.786,25.024,-28.748
0.544,-0.577,1.104,43.518,18.433,-26.001
0.552,-0.587,1.079,46.631,9.521,-22.583
0.533,-0.603,1.077,48.950,3.601,-18.616
0.490,-0.595,1.021,48.706,-2.014,-15.137
0.442,-0.588,0.967,46.875,-3.784,-11.353
0.391,-0.577,0.907,43.335,-0.488,-8.606
0.377,-0.564,0.909,39.734,6.653,-6.653
0.413,-0.559,0.914,36.072,13.123,-5.005
0.443,-0.545,0.898,33.020,16.174,-3.662
0.436,-0.527,0.874,30.457,18.738,-1.221
0.428,-0.533,0.875,28.870,21.912,3.540
0.442,-0.553,0.902,27.588,22.949,8.057
0.445,-0.557,0.883,26.672,19.226,11.536
0.441,-0.567,0.889,25.757,15.503,15.137
0.435,-0.580,0.892,25.269,11.353,17.517
0.429,-0.587,0.889,26.672,6.470,17.944
0.434,-0.607,0.896,28.992,1.953,17.700
0.444,-0.632,0.906,31.677,-2.747,17.151
0.459,-0.659,0.918,34.241,-8.545,16.357
0.481,-0.684,0.922,35.950,-15.198,15.442
0.472,-0.686,0.917,36.316,-21.912,14.832
0.443,-0.679,0.917,35.339,-27.161,14.893
0.422,-0.679,0.915,33.020,-30.396,15.808
0.398,-0.668,0.911,29.236,-31.921,16.907
0.360,-0.653,0.903,24.231,-31.189,18.188
0.326,-0.646,0.891,17.517,-28.625,19.165
0.306,-0.643,0.870,9.277,-23.987,18.799
0.282,-0.623,0.836,-0.305,-17.761,17.273
0.248,-0.588,0.786,-11.658,-9.644,16.296
0.235,-0.562,0.749,-22.888,0.061,15.442
0.247,-0.530,0.717,-33.081,9.949,14.221
0.269,-0.493,0.689,-41.748,18.616,12.817
0.291,-0.460,0.671,-48.157,25.635,11.658
0.312,-0.440,0.653,-52.673,30.029,11.108
0.327,-0.419,0.632,-56.091,32.227,10.986
0.344,-0.396,0.616,-57.373,32.837,11.169
0.365,-0.378,0.611,-56.458,33.081,11.780
0.378,-0.376,0.614,-54.077,32.104,13.184
0.395,-0.380,0.622,-50.842,29.724,14.465
0.413,-0.388,0.633,-46.814,26.550,15.381
0.442,-0.406,0.658,-42.725,23.254,16.235
0.472,-0.425,0.680,-38.147,18.127,16.235
0.483,-0.445,0.705,-33.386,10.925,14.954
0.507,-0.468,0.733,-28.259,3.235,12.085
0.533,-0.489,0.769,-22.705,-4.517,8.484
0.550,-0.502,0.806,-16.541,-12.512,3.784
0.559,-0.517,0.835,-10.498,-20.142,-0.977
0.556,-0.537,0.853,-4.272,-26.123,-4.700
0.546,-0.556,0.864,0.183,-29.480,-7.568
0.529,-0.574,0.868,2.197,-30.151,-9.216
0.502,-0.584,0.854,0.671,-28.748,-9.827
0.474,-0.579,0.836,-3.784,-24.414,-9.705
0.453,-0.568,0.814,-10.193,-17.212,-9.338
0.438,-0.547,0.791,-17.334,-8.545,-9.521
0.422,-0.516,0.765,-24.292,0.549,-9.888
0.411,-0.483,0.740,-29.480,9.827,-10.376
0.414,-0.445,0.716,-32.410,18.433,-10.925
0.429,-0.414,0.700,-33.142,25.330,-10.803
0.440,-0.389,0.686,-31.799,29.663,-10.559
0.449,-0.371,0.677,-28.931,31.494,-10.132

-0.071,-0.633,3.696,168.030,-49.805,-43.457
0.479,-4.000,4.000,145.325,109.741,-157.104
3.601,-4.000,4.000,-121.948,60.242,-105.591
2.551,-1.050,3.730,-293.396,-20.508,186.218
1.117,-0.066,2.051,-373.169,39.612,113.647
-0.096,-0.284,0.552,-290.710,44.800,70.801
0.019,-0.669,0.424,-204.895,42.542,91.248
0.328,-0.648,0.126,-170.593,11.780,89.722
0.261,-0.539,-0.084,-168.335,-3.479,79.468
0.065,-0.490,-0.143,-181.091,-5.737,77.087
-0.105,-0.342,-0.351,-193.115,-1.953,84.351
-0.209,-0.435,-0.450,-193.665,18.738,92.773
-0.247,-0.448,-0.342,-189.270,41.321,87.097
-0.194,-0.348,-0.390,-186.829,42.969,74.280
-0.134,-0.250,-0.503,-184.021,41.626,65.918
-0.075,-0.203,-0.398,-183.899,51.575,61.157
-0.061,-0.173,-0.300,-186.523,56.458,55.847
-0.024,-0.054,-0.177,-188.232,53.345,50.903
0.049,0.013,-0.090,-186.707,41.748,50.903
0.025,0.094,-0.136,-181.885,23.499,49.316
-0.018,0.177,-0.082,-172.241,13.550,48.706
0.011,0.212,-0.015,-158.997,1.892,51.208
0.018,0.235,-0.060,-141.907,-13.733,52.002
-0.021,0.262,-0.075,-123.108,-22.705,52.002
-0.051,0.277,-0.036,-102.478,-24.780,50.659
-0.002,0.323,0.068,-81.482,-25.085,46.692
-0.007,0.316,0.020,-59.204,-30.029,43.396
-0.031,0.282,0.066,-37.292,-27.466,38.696
-0.034,0.242,0.133,-17.090,-22.827,32.166
-0.024,0.186,0.166,1.892,-19.531,25.757
0.028,0.137,0.250,19.165,-13.611,19.165
0.109,0.096,0.359,36.865,-8.606,11.780
0.212,0.036,0.473,55.237,-6.165,3.296
0.323,-0.035,0.584,72.998,-5.798,-5.371
0.416,-0.106,0.695,88.257,-8.179,-13.794
0.478,-0.159,0.779,98.083,-13.916,-18.677
0.471,-0.208,0.803,100.769,-21.606,-18.494
0.430,-0.232,0.819,97.351,-26.794,-16.418
0.411,-0.233,0.826,90.942,-28.687,-14.709
0.398,-0.233,0.813,83.435,-26.917,-12.756
0.349,-0.228,0.786,74.829,-20.569,-10.986
0.298,-0.211,0.748,66.040,-9.460,-9.827
0.317,-0.184,0.759,58.716,5.615,-10.010
0.394,-0.166,0.826,54.993,19.226,-11.230
0.472,-0.180,0.859,54.504,24.170,-13.184
0.480,-0.172,0.839,55.176,23.621,-16.907
0.462,-0.158,0.825,56.030,21.057,-20.752
0.434,-0.149,0.781,57.434,16.968,-23.132
0.405,-0.153,0.779,60.852,15.747,-24.414
0.409,-0.142,0.837,65.125,16.357,-25.269
0.433,-0.145,0.833,67.993,12.329,-24.536
0.432,-0.164,0.814,68.848,7.202,-23.743
0.415,-0.175,0.817,68.848,5.615,-23.621
0.389,-0.182,0.804,68.848,5.005,-23.743
0.351,-0.200,0.776,68.237,6.836,-23.621
0.333,-0.216,0.774,66.650,12.756,-23.865
0.385,-0.220,0.823,64.758,20.081,-24.841
0.463,-0.235,0.870,64.697,23.437,-26.428
0.508,-0.252,0.901,65.552,21.851,-28.198
0.540,-0.267,0.928,66.467,18.433,-29.297
0.552,-0.272,0.953,67.810,12.634,-29.541
0.555,-0.271,0.957,67.993,3.967,-28.503
0.542,-0.275,0.933,65.613,-4.333,-26.062
0.506,-0.281,0.916,61.340,-8.911,-22.888
0.462,-0.279,0.894,56.091,-9.399,-20.142
0.426,-0.270,0.861,50.110,-6.653,-18.005
0.406,-0.262,0.838,43.823,-0.732,-16.174
0.385,-0.251,0.816,38.757,7.202,-14.771
0.400,-0.236,0.831,34.607,15.930,-13.794
0.465,-0.232,0.874,33.325,22.949,-13.428
0.512,-0.237,0.896,34.302,24.780,-14.099
0.536,-0.244,0.906,35.156,21.484,-14.954
0.551,-0.257,0.914,34.424,15.137,-14.526
0.549,-0.272,0.900,31.555,6.409,-12.451
0.521,-0.279,0.869,25.452,-2.747,-10.071
0.484,-0.275,0.843,18.127,-10.315,-8.545
0.446,-0.266,0.818,10.681,-14.465,-8.179
0.392,-0.245,0.782,4.639,-14.832,-9.399
0.379,-0.226,0.780,1.892,-11.169,-11.597
0.410,-0.234,0.806,5.005,-5.249,-13.977
0.402,-0.257,0.815,11.353,1.160,-15.930
0.394,-0.279,0.829,18.188,8.301,-16.907
0.417,-0.295,0.861,23.682,16.235,-15.320
0.458,-0.323,0.881,28.931,22.827,-13.306
0.482,-0.343,0.890,33.142,27.283,-12.451
0.536,-0.353,0.925,35.645,30.518,-12.878
0.618,-0.368,0.965,37.476,31.006,-13.977
0.669,-0.391,0.998,38.879,26.245,-15.686
0.699,-0.404,1.009,39.124,17.517,-17.090
0.706,-0.420,1.006,37.109,7.263,-15.686
0.676,-0.443,0.989,32.288,-2.258,-11.108
0.624,-0.454,0.954,24.536,-9.094,-5.066
0.567,-0.444,0.908,14.343,-11.902,0.549
0.523,-0.420,0.860,4.211,-10.193,5.615
0.500,-0.405,0.820,-4.639,-4.150,9.521
0.496,-0.389,0.797,-11.719,4.211,11.963
0.521,-0.366,0.796,-16.541,13.000,12.939
0.566,-0.352,0.802,-18.982,18.555,13.062
0.612,-0.337,0.809,-19.592,19.836,12.939
0.644,-0.324,0.820,-18.005,16.663,12.390
0.669,-0.315,0.838,-14.465,10.376,12.390
0.687,-0.316,0.860,-9.033,1.465,13.184
0.699,-0.328,0.884,-2.808,-8.850,14.282
0.690,-0.347,0.907,3.174,-20.264,15.198
0.669,-0.372,0.919,8.606,-30.579,15.259
0.642,-0.398,0.923,12.939,-37.781,14.587
0.604,-0.417,0.923,15.747,-41.321,13.245
0.566,-0.429,0.921,16.663,-40.527,11.658
0.536,-0.428,0.910,15.930,-36.072,9.705
0.510,-0.419,0.896,13.184,-28.320,7.568
0.501,-0.405,0.883,9.460,-18.311,5.432
0.502,-0.388,0.873,6.226,-8.057,3.540
0.514,-0.370,0.869,3.784,0.793,2.258
0.530,-0.351,0.862,1.709,7.263,1.404
0.537,-0.333,0.846,0.732,10.864,1.099
0.539,-0.318,0.827,-0.488,12.024,1.465
0.534,-0.303,0.809,-1.038,10.742,2.258
0.526,-0.295,0.789,-0.916,7.812,3.235
0.511,-0.287,0.769,-1.099,4.272,4.639

-2.359,-4.000,4.000,216.492,89.355,-118.774
2.136,-4.000,4.000,-24.719,331.177,-142.517
3.328,-1.560,3.593,-271.851,196.350,148.743
2.168,0.155,2.528,-409.058,226.685,177.063
0.987,-0.698,1.650,-391.663,250.854,150.330
0.306,-1.033,0.763,-313.599,166.321,150.024
0.068,-0.901,0.053,-260.559,69.824,145.020
0.291,-0.645,0.071,-232.483,33.691,126.709
0.194,-0.440,-0.046,-224.182,16.663,103.455
0.108,-0.419,-0.113,-222.107,-1.526,97.900
0.152,-0.523,-0.167,-216.248,-12.024,108.826
0.127,-0.490,-0.327,-207.458,-22.339,108.154
-0.044,-0.383,-0.467,-192.932,-23.376,96.619
-0.020,-0.302,-0.294,-176.392,-17.029,82.581
-0.077,-0.252,-0.436,-167.114,-27.771,71.167
-0.062,-0.192,-0.326,-161.438,-23.010,64.087
0.012,-0.125,-0.219,-157.654,-19.226,60.181
0.067,-0.080,-0.198,-153.625,-24.536,55.786
0.054,0.012,-0.181,-148.560,-27.649,50.964
0.046,0.070,-0.127,-140.991,-29.480,50.659
0.029,0.111,-0.151,-130.920,-33.264,50.842
-0.007,0.140,-0.167,-118.286,-32.837,49.866
-0.000,0.193,-0.098,-102.539,-28.442,48.523
0.004,0.213,-0.091,-84.534,-27.283,47.913
0.020,0.234,-0.062,-64.697,-24.292,46.265
0.065,0.244,0.013,-42.908,-20.630,43.884
0.102,0.207,0.062,-20.325,-21.362,41.077
0.104,0.140,0.096,0.122,-23.560,36.560
0.107,0.090,0.155,18.188,-24.170,29.968
0.139,0.053,0.229,34.180,-24.658,21.912
0.211,0.001,0.311,47.546,-26.550,13.489
0.284,-0.059,0.382,58.960,-29.358,6.226
0.353,-0.113,0.463,66.711,-31.860,0.183
0.433,-0.155,0.560,72.998,-35.706,-4.700
0.501,-0.196,0.645,78.186,-41.565,-8.850
0.520,-0.227,0.697,80.322,-49.072,-11.230
0.490,-0.241,0.720,78.857,-55.481,-11.108
0.439,-0.241,0.731,74.158,-58.594,-9.460
0.392,-0.231,0.728,67.200,-57.739,-7.019
0.348,-0.218,0.724,60.852,-52.490,-5.188
0.322,-0.198,0.730,56.152,-42.725,-4.944
0.330,-0.187,0.752,53.955,-29.358,-5.920
0.346,-0.187,0.771,54.321,-15.503,-8.057
0.357,-0.192,0.786,56.702,-3.113,-11.169
0.364,-0.197,0.787,59.692,8.118,-14.771
0.382,-0.203,0.795,62.744,18.860,-18.127
0.397,-0.206,0.803,65.735,27.954,-20.752
0.392,-0.208,0.804,67.383,34.424,-21.790
0.397,-0.212,0.801,67.505,39.429,-21.606
0.403,-0.219,0.807,66.162,43.213,-20.325
0.421,-0.231,0.819,64.636,45.471,-19.470
0.454,-0.239,0.840,63.782,46.021,-20.325
0.484,-0.235,0.880,63.049,44.189,-21.667
0.524,-0.240,0.904,61.829,38.086,-23.071
0.567,-0.261,0.926,60.730,29.175,-25.391
0.566,-0.268,0.945,60.486,20.386,-28.320
0.528,-0.265,0.938,59.998,11.841,-30.212
0.488,-0.258,0.929,59.692,5.859,-30.151
0.491,-0.258,0.942,59.082,3.296,-28.198
0.506,-0.270,0.956,57.251,1.343,-25.269
0.499,-0.279,0.943,53.528,-0.854,-22.766
0.480,-0.278,0.932,48.523,-0.977,-20.935
0.464,-0.264,0.932,43.640,0.732,-19.470
0.472,-0.256,0.934,39.856,2.991,-17.761
0.479,-0.258,0.932,37.109,4.822,-15.930
0.461,-0.252,0.931,35.095,6.409,-13.977
0.444,-0.242,0.921,33.386,7.996,-12.329
0.435,-0.236,0.912,32.166,9.460,-10.864
0.428,-0.235,0.901,31.494,10.498,-9.888
0.417,-0.234,0.884,31.250,11.841,-9.399
0.409,-0.237,0.863,30.823,13.306,-9.399
0.406,-0.236,0.842,30.029,15.015,-9.766
0.410,-0.235,0.830,29.175,16.602,-10.071
0.422,-0.239,0.815,26.733,17.944,-9.766
0.436,-0.242,0.817,24.719,18.738,-9.338
0.443,-0.245,0.809,23.621,18.677,-9.216
0.442,-0.255,0.812,23.926,18.311,-9.399
0.458,-0.273,0.820,25.208,16.907,-9.338
0.488,-0.298,0.844,26.611,14.771,-8.118
0.515,-0.335,0.879,28.259,11.597,-6.042
0.524,-0.369,0.890,30.518,6.775,-4.333
0.520,-0.384,0.895,31.372,2.136,-3.418
0.536,-0.383,0.925,30.518,-2.014,-2.747
0.557,-0.384,0.960,29.724,-6.836,-1.587
0.544,-0.396,0.975,29.724,-12.634,-0.488
0.507,-0.404,0.966,28.442,-17.944,0.488
0.482,-0.406,0.948,25.513,-20.996,1.526
0.465,-0.404,0.933,21.240,-20.691,2.563
0.458,-0.398,0.923,15.564,-17.456,3.601
0.469,-0.392,0.909,9.583,-13.245,4.822
0.481,-0.385,0.888,2.991,-9.705,5.798
0.494,-0.366,0.854,-4.150,-6.897,6.531
0.509,-0.339,0.832,-10.437,-4.944,7.141
0.532,-0.316,0.818,-14.771,-4.150,7.751
0.551,-0.292,0.811,-17.395,-4.761,8.362
0.569,-0.273,0.811,-18.066,-7.141,9.277
0.581,-0.258,0.811,-17.456,-11.108,10.010
0.595,-0.256,0.825,-15.259,-15.564,10.376
0.592,-0.263,0.825,-11.475,-20.264,10.071
0.589,-0.276,0.834,-6.958,-24.292,9.521
0.576,-0.292,0.844,-2.075,-26.611,8.240
0.556,-0.309,0.858,3.418,-27.771,6.042
0.547,-0.324,0.863,8.240,-27.588,3.174
0.532,-0.343,0.859,12.207,-25.696,-0.366
0.513,-0.360,0.856,15.259,-22.095,-4.028
0.496,-0.367,0.844,16.113,-17.273,-8.057
0.490,-0.359,0.832,15.503,-11.658,-11.353
0.499,-0.349,0.829,14.587,-5.310,-13.123
0.514,-0.347,0.841,12.878,0.916,-13.000
0.525,-0.345,0.840,11.292,5.371,-11.902
0.527,-0.338,0.824,9.460,7.690,-10.071
0.529,-0.329,0.811,7.874,8.789,-7.629
0.531,-0.325,0.806,6.592,8.850,-5.432
0.524,-0.317,0.796,5.371,7.385,-3.723
0.512,-0.307,0.786,4.211,4.761,-2.319
0.504,-0.307,0.778,3.967,1.099,-0.977
0.494,-0.312,0.772,4.578,-2.380,-0.305
0.485,-0.320,0.772,5.554,-5.615,-0.183
0.476,-0.324,0.764,6.226,-8.362,-0.183

-1.759,-4.000,4.000,110.352,226.746,-117.920
3.147,-3.996,4.000,-190.918,527.161,-68.604
3.546,-0.463,3.133,-458.130,332.764,167.786
1.508,0.970,1.538,-512.817,264.343,142.700
0.226,-0.210,0.947,-378.052,229.248,125.427
0.261,-0.863,0.498,-243.408,167.725,132.324
0.251,-0.790,0.077,-195.862,107.483,121.826
0.205,-0.642,0.191,-190.857,93.872,112.671
0.024,-0.421,-0.038,-204.834,75.623,106.750
0.029,-0.357,-0.151,-212.952,48.096,114.441
0.104,-0.381,-0.152,-204.224,30.029,131.897
0.098,-0.379,-0.220,-193.298,4.211,137.756
0.039,-0.357,-0.323,-183.533,-14.160,132.446
-0.036,-0.370,-0.328,-177.124,-19.592,123.779
-0.120,-0.329,-0.345,-177.368,-21.790,113.342
-0.128,-0.282,-0.421,-178.162,-21.912,105.164
-0.106,-0.198,-0.401,-177.063,-13.733,94.666
-0.094,-0.052,-0.337,-175.354,-5.981,86.731
-0.077,-0.013,-0.314,-169.189,-3.601,83.496
-0.040,0.041,-0.241,-160.645,-0.732,74.402
-0.018,0.131,-0.193,-150.635,-2.380,63.416
-0.022,0.204,-0.193,-137.390,-6.470,54.199
0.002,0.247,-0.152,-121.460,-9.766,45.715
0.035,0.280,-0.127,-102.417,-14.648,36.438
0.062,0.329,-0.111,-79.285,-19.958,27.100
0.099,0.369,-0.074,-53.223,-24.841,18.921
0.124,0.343,-0.044,-23.499,-31.433,11.169
0.127,0.261,-0.029,6.958,-38.574,2.563
0.144,0.196,0.041,35.339,-42.542,-6.226
0.197,0.158,0.128,61.646,-45.532,-15.564
0.278,0.111,0.220,88.379,-48.462,-24.353
0.380,0.057,0.321,113.220,-50.781,-31.555
0.479,-0.009,0.421,136.353,-54.565,-36.377
0.548,-0.114,0.505,155.640,-59.021,-37.659
0.569,-0.236,0.585,167.053,-62.500,-35.156
0.566,-0.313,0.670,167.847,-65.125,-30.090
0.555,-0.354,0.726,161.377,-68.604,-23.437
0.540,-0.385,0.758,149.475,-69.336,-16.418
0.503,-0.401,0.765,134.033,-66.772,-12.024
0.468,-0.390,0.771,116.211,-59.021,-9.521
0.452,-0.369,0.778,98.816,-46.875,-8.423
0.459,-0.358,0.786,84.351,-31.921,-10.559
0.454,-0.340,0.801,73.669,-16.785,-15.808
0.453,-0.306,0.823,66.711,-2.380,-22.461
0.472,-0.278,0.836,64.758,10.132,-28.625
0.498,-0.262,0.858,66.895,19.470,-33.936
0.513,-0.245,0.861,72.510,25.269,-37.903
0.517,-0.250,0.869,80.566,28.931,-39.612
0.497,-0.263,0.859,88.135,31.189,-38.757
0.472,-0.273,0.854,92.957,33.203,-35.828
0.484,-0.297,0.866,95.581,36.011,-32.288
0.494,-0.327,0.865,97.290,37.903,-29.541
0.498,-0.350,0.881,97.046,39.734,-27.954
0.521,-0.360,0.906,93.689,40.405,-26.550
0.550,-0.361,0.911,87.585,37.598,-25.879
0.572,-0.368,0.904,80.017,32.410,-25.696
0.587,-0.371,0.901,72.998,26.428,-27.100
0.580,-0.357,0.904,66.284,19.775,-29.114
0.561,-0.333,0.884,60.547,12.573,-30.396
0.524,-0.309,0.845,56.274,7.385,-30.212
0.491,-0.305,0.822,53.467,7.507,-28.320
0.516,-0.289,0.867,53.223,10.986,-26.550
0.547,-0.293,0.873,53.833,11.353,-23.621
0.541,-0.318,0.836,54.199,11.475,-20.691
0.511,-0.328,0.832,52.917,14.038,-18.005
0.520,-0.323,0.853,51.453,17.456,-14.954
0.571,-0.335,0.854,49.866,17.151,-11.780
0.596,-0.363,0.870,48.218,15.503,-8.850
0.605,-0.370,0.889,46.204,12.817,-8.179
0.607,-0.375,0.879,43.030,7.019,-7.874
0.614,-0.387,0.873,40.100,1.587,-7.568
0.608,-0.407,0.882,38.513,-2.258,-7.385
0.598,-0.414,0.887,37.170,-5.859,-6.775
0.601,-0.420,0.891,36.682,-9.033,-5.188
0.624,-0.435,0.916,38.574,-11.047,-3.296
0.626,-0.457,0.937,43.030,-12.817,-1.831
0.630,-0.477,0.957,48.035,-14.526,-0.732
0.656,-0.497,0.977,52.979,-16.052,0.366
0.661,-0.516,0.996,55.908,-17.761,2.502
0.643,-0.524,1.002,55.542,-20.203,5.310
0.613,-0.529,1.000,52.368,-22.217,9.644
0.579,-0.544,0.984,45.654,-23.132,14.526
0.540,-0.557,0.949,36.072,-22.217,18.616
0.503,-0.554,0.911,23.132,-19.348,21.057
0.482,-0.538,0.880,7.874,-14.404,22.217
0.476,-0.510,0.852,-7.141,-9.583,22.156
0.476,-0.478,0.815,-20.630,-5.981,21.118
0.484,-0.440,0.778,-31.799,-3.784,19.531
0.496,-0.405,0.746,-39.185,-3.479,17.456
0.519,-0.375,0.729,-42.419,-4.822,15.320
0.550,-0.357,0.719,-41.321,-8.179,13.245
0.579,-0.348,0.719,-36.560,-12.817,11.169
0.605,-0.344,0.734,-29.236,-19.043,9.277
0.630,-0.351,0.756,-19.836,-26.733,7.324
0.653,-0.364,0.792,-9.338,-33.630,5.493
0.649,-0.394,0.817,0.854,-39.856,4.150
0.611,-0.428,0.820,9.277,-44.312,3.601
0.555,-0.460,0.799,14.404,-45.044,3.540
0.491,-0.483,0.769,15.930,-40.710,3.540
0.450,-0.497,0.750,14.038,-30.090,2.625
0.439,-0.503,0.743,10.925,-14.648,-0.183
0.447,-0.502,0.750,6.775,2.747,-3.723
0.486,-0.490,0.761,2.563,19.104,-7.812
0.537,-0.465,0.769,-0.977,31.372,-11.536
0.598,-0.441,0.775,-2.991,38.391,-13.550
0.650,-0.427,0.782,-3.662,39.490,-13.733
0.663,-0.404,0.777,-3.906,34.546,-11.902
0.657,-0.378,0.764,-4.517,24.963,-8.179
0.638,-0.361,0.740,-5.310,12.939,-4.150
0.596,-0.347,0.713,-6.409,0.977,-0.061
0.534,-0.338,0.683,-7.751,-8.728,3.601
0.483,-0.338,0.660,-8.667,-15.381,5.859
0.443,-0.337,0.638,-9.277,-19.043,6.348
0.401,-0.334,0.617,-10.742,-19.409,5.615
0.381,-0.335,0.607,-12.146,-17.151,3.906
0.382,-0.341,0.608,-12.878,-13.550,1.770
0.397,-0.342,0.625,-13.123,-9.766,-0.732
0.426,-0.341,0.649,-12.634,-7.080,-3.296
0.444,-0.354,0.669,-10.681,-6.470,-5.676

-2.610,-4.000,4.000,72.998,187.805,-100.708
2.807,-3.921,4.000,-152.710,594.177,-73.486
3.679,0.083,3.236,-376.831,445.251,153.320
2.271,1.414,1.839,-421.204,376.343,126.526
0.825,0.523,0.834,-283.936,289.978,92.041
0.421,-0.148,0.452,-148.682,217.957,101.379
0.353,-0.422,0.235,-97.961,160.583,116.516
0.485,-0.564,0.338,-100.586,108.765,114.624
0.259,-0.445,0.093,-114.502,46.936,96.375
0.204,-0.396,-0.191,-106.628,5.920,95.947
0.203,-0.251,-0.220,-91.614,-10.315,100.403
0.252,-0.167,-0.118,-75.745,-28.992,96.558
0.149,-0.157,-0.321,-67.810,-67.993,96.802
-0.076,-0.246,-0.472,-69.946,-76.172,103.577
-0.068,-0.248,-0.164,-78.735,-53.528,102.295
-0.026,-0.114,-0.049,-90.576,-44.800,97.229
-0.018,-0.012,-0.060,-101.990,-48.035,94.177
-0.011,0.020,-0.038,-109.985,-48.645,87.585
-0.003,0.090,-0.001,-114.624,-50.476,76.782
0.002,0.177,-0.001,-114.075,-52.734,67.383
0.049,0.212,0.020,-106.384,-55.481,58.472
0.103,0.204,0.035,-92.712,-59.814,47.119
0.137,0.210,0.040,-74.829,-64.758,32.776
0.137,0.230,0.046,-54.688,-67.505,18.066
0.121,0.229,0.075,-33.264,-67.322,4.761
0.109,0.208,0.103,-12.329,-65.430,-6.958
0.115,0.176,0.133,6.775,-60.852,-17.883
0.151,0.137,0.176,24.109,-54.260,-27.161
0.199,0.085,0.231,39.124,-47.058,-34.302
0.286,0.022,0.315,52.307,-39.307,-40.649
0.392,-0.040,0.406,65.247,-32.288,-46.204
0.470,-0.104,0.488,75.256,-26.978,-49.316
0.515,-0.173,0.569,80.872,-22.583,-48.889
0.552,-0.233,0.642,81.909,-20.081,-45.776
0.578,-0.276,0.688,78.186,-19.958,-41.016
0.584,-0.294,0.708,71.289,-20.996,-36.438
0.568,-0.292,0.712,62.500,-20.996,-32.837
0.541,-0.274,0.700,53.040,-19.226,-29.907
0.546,-0.249,0.703,44.678,-15.259,-28.442
0.565,-0.237,0.708,40.039,-10.376,-28.259
0.543,-0.228,0.704,38.086,-4.517,-28.503
0.487,-0.216,0.676,38.208,2.808,-29.236
0.489,-0.221,0.702,40.649,13.855,-30.579
0.556,-0.239,0.750,45.288,23.499,-33.447
0.597,-0.240,0.775,50.415,27.283,-36.133
0.640,-0.244,0.798,55.908,27.588,-37.781
0.638,-0.258,0.804,60.669,26.062,-37.720
0.647,-0.275,0.843,64.697,24.048,-36.682
0.654,-0.281,0.852,67.139,19.470,-33.997
0.694,-0.305,0.911,67.505,14.771,-28.687
0.736,-0.339,0.930,66.040,6.470,-23.560
0.718,-0.349,0.926,62.866,-4.700,-19.592
0.692,-0.346,0.933,58.472,-13.550,-16.052
0.657,-0.347,0.907,53.284,-21.606,-13.550
0.588,-0.351,0.863,47.485,-25.879,-12.207
0.545,-0.336,0.857,40.771,-24.170,-12.512
0.540,-0.326,0.855,34.851,-20.081,-13.611
0.512,-0.314,0.825,30.090,-16.235,-14.832
0.468,-0.304,0.784,26.001,-9.277,-15.991
0.464,-0.287,0.791,24.353,2.441,-17.029
0.503,-0.274,0.815,24.841,14.282,-17.334
0.542,-0.273,0.800,25.146,22.339,-16.052
0.549,-0.276,0.785,26.367,28.625,-14.038
0.583,-0.268,0.832,28.137,34.302,-12.024
0.645,-0.258,0.857,28.992,33.752,-9.827
0.665,-0.269,0.842,28.931,26.855,-7.263
0.666,-0.282,0.849,28.015,19.104,-4.944
0.656,-0.283,0.838,26.550,10.498,-3.479
0.642,-0.281,0.839,26.123,3.174,-2.625
0.631,-0.288,0.855,27.039,-2.014,-1.892
0.599,-0.293,0.852,29.480,-6.042,-1.953
0.559,-0.301,0.831,31.982,-7.812,-2.075
0.540,-0.314,0.815,34.058,-6.226,-1.892
0.532,-0.319,0.821,35.400,-1.770,-1.648
0.543,-0.325,0.838,36.560,3.967,-1.160
0.564,-0.340,0.852,38.086,9.521,-0.488
0.577,-0.352,0.866,39.734,13.977,0.671
0.578,-0.362,0.875,41.443,16.724,2.502
0.568,-0.370,0.865,41.260,17.395,5.493
0.551,-0.383,0.857,38.269,17.944,10.315
0.553,-0.404,0.850,32.227,18.250,15.564
0.548,-0.417,0.819,22.949,17.578,20.203
0.531,-0.411,0.777,11.597,16.907,23.193
0.530,-0.391,0.752,-0.427,17.639,24.719
0.535,-0.367,0.722,-11.353,19.470,24.902
0.540,-0.328,0.690,-19.836,21.973,23.926
0.547,-0.292,0.674,-24.841,25.269,22.278
0.574,-0.262,0.654,-27.344,28.625,20.874
0.611,-0.236,0.641,-26.917,30.945,19.775
0.664,-0.219,0.652,-23.376,31.372,18.616
0.732,-0.220,0.679,-17.456,28.748,17.212
0.780,-0.232,0.715,-9.521,22.461,15.564
0.797,-0.250,0.740,-0.854,13.428,14.038
0.802,-0.277,0.755,7.324,4.211,12.756
0.812,-0.314,0.770,14.771,-3.113,11.169
0.801,-0.353,0.776,20.630,-7.751,9.155
0.767,-0.384,0.774,24.292,-9.277,6.714
0.724,-0.405,0.759,25.452,-7.568,4.028
0.689,-0.416,0.749,23.926,-2.197,0.854
0.667,-0.410,0.732,19.470,6.409,-2.441
0.661,-0.392,0.725,13.428,17.212,-5.371
0.670,-0.375,0.718,7.080,28.198,-8.545
0.663,-0.349,0.693,1.465,38.330,-10.925
0.644,-0.313,0.665,-3.235,47.302,-12.024
0.638,-0.277,0.642,-6.653,55.115,-11.597
0.642,-0.257,0.626,-8.606,60.364,-10.071
0.641,-0.249,0.612,-9.460,62.561,-8.057
0.647,-0.240,0.609,-9.644,61.951,-6.531
0.661,-0.231,0.607,-8.484,57.068,-5.554
0.662,-0.226,0.591,-6.653,48.340,-5.310
0.652,-0.230,0.569,-5.554,37.781,-5.615
0.638,-0.237,0.550,-4.456,27.588,-6.653
0.626,-0.251,0.533,-3.174,18.433,-8.057
0.605,-0.266,0.516,-1.892,11.230,-8.911
0.579,-0.284,0.497,-0.854,6.653,-9.949
0.546,-0.304,0.469,-0.061,5.920,-11.902
0.511,-0.319,0.441,0.366,11.230,-14.832
0.502,-0.330,0.418,1.038,22.461,-18.555
0.519,-0.344,0.404,1.770,37.903,-21.667

3.996,-1.432,4.000,132.812,-49.072,-36.133
4.000,-1.390,3.056,65.674,-278.381,-26.062
3.282,-2.362,3.483,-33.264,-280.151,91.675
1.139,-1.258,2.654,-92.346,-223.328,190.063
0.507,-0.661,1.074,-147.278,-196.777,186.218
0.103,-0.713,0.704,-168.274,-91.309,166.382
-0.240,-0.702,0.222,-191.467,-0.610,125.183
-0.248,-0.650,0.044,-205.078,79.529,90.942
-0.326,-0.563,-0.049,-214.355,148.865,68.665
-0.322,-0.342,-0.282,-219.971,196.655,60.059
-0.317,-0.327,-0.436,-220.581,244.568,74.463
-0.323,-0.200,-0.425,-218.262,288.452,81.848
-0.255,-0.111,-0.455,-208.679,316.650,85.388
-0.089,0.025,-0.401,-190.918,334.778,86.975
-0.015,0.071,-0.370,-169.006,342.346,92.346
0.047,0.103,-0.278,-144.714,341.553,98.083
0.166,0.114,-0.196,-120.361,329.285,103.516
0.314,0.063,-0.100,-95.337,307.251,104.675
0.368,0.065,-0.024,-70.190,273.193,95.764
0.391,0.075,0.016,-44.861,229.736,84.778
0.381,0.101,0.032,-22.278,182.251,71.533
0.359,0.104,0.057,-1.404,135.742,59.204
0.344,0.092,0.078,17.700,91.736,46.448
0.344,0.083,0.095,34.241,48.889,31.982
0.341,0.057,0.108,48.218,8.301,17.517
0.323,0.021,0.111,59.082,-27.649,3.540
0.332,-0.026,0.104,66.284,-57.434,-8.667
0.347,-0.084,0.089,69.885,-80.261,-21.179
0.367,-0.129,0.089,71.045,-95.947,-33.936
0.452,-0.187,0.088,70.435,-105.957,-46.387
0.547,-0.220,0.096,69.153,-111.145,-59.570
0.622,-0.243,0.120,67.078,-112.549,-70.618
0.691,-0.267,0.146,64.758,-110.840,-79.529
0.731,-0.275,0.173,62.317,-107.239,-85.999
0.739,-0.266,0.202,59.753,-102.722,-89.966
0.726,-0.253,0.213,57.678,-97.656,-91.675
0.705,-0.243,0.231,55.969,-91.248,-91.248
0.698,-0.238,0.251,54.199,-83.191,-89.417
0.707,-0.237,0.274,52.734,-74.280,-86.792
0.718,-0.238,0.301,52.124,-65.979,-83.923
0.782,-0.260,0.335,52.307,-59.570,-81.360
0.876,-0.295,0.375,53.589,-55.298,-79.529
0.920,-0.324,0.402,56.274,-52.979,-77.637
0.904,-0.334,0.406,58.838,-52.551,-75.073
0.884,-0.331,0.404,61.646,-51.697,-71.472
0.882,-0.333,0.404,65.002,-48.889,-66.895
0.862,-0.352,0.397,68.481,-44.556,-62.073
0.875,-0.411,0.422,72.266,-39.246,-59.937
0.916,-0.435,0.482,74.402,-35.583,-62.439
0.900,-0.395,0.487,73.242,-37.354,-65.186
0.941,-0.397,0.517,70.984,-39.673,-63.782
1.002,-0.430,0.557,69.275,-44.189,-62.134
1.023,-0.446,0.570,66.956,-52.856,-60.486
0.990,-0.464,0.563,64.209,-62.683,-57.556
0.963,-0.436,0.593,60.242,-69.946,-54.260
0.945,-0.432,0.550,56.641,-77.881,-48.828
0.842,-0.413,0.516,53.772,-81.604,-43.945
0.805,-0.398,0.569,51.819,-77.759,-38.818
0.783,-0.429,0.531,50.110,-75.562,-34.241
0.770,-0.452,0.540,48.401,-68.665,-32.288
0.804,-0.441,0.599,47.852,-59.937,-32.654
0.805,-0.450,0.581,47.913,-55.725,-32.104
0.789,-0.466,0.595,47.302,-50.720,-30.396
0.798,-0.477,0.615,45.471,-45.654,-27.527
0.798,-0.474,0.618,42.908,-41.870,-24.231
0.771,-0.467,0.618,40.161,-37.903,-21.118
0.739,-0.460,0.609,37.292,-33.142,-18.066
0.699,-0.453,0.589,34.119,-26.978,-15.320
0.661,-0.453,0.572,30.823,-18.738,-12.817
0.631,-0.452,0.562,27.100,-8.179,-10.864
0.627,-0.453,0.570,22.461,4.028,-9.033
0.657,-0.464,0.586,18.677,16.907,-7.996
0.687,-0.477,0.597,15.564,27.466,-7.690
0.708,-0.491,0.605,12.817,35.339,-7.812
0.738,-0.504,0.612,10.071,40.405,-7.446
0.767,-0.524,0.614,7.568,43.335,-6.409
0.792,-0.539,0.614,5.371,44.800,-5.066
0.830,-0.543,0.626,4.272,46.265,-4.272
0.896,-0.543,0.648,5.066,47.180,-4.700
0.973,-0.548,0.672,7.568,46.448,-6.958
1.018,-0.545,0.684,10.376,42.603,-9.949
1.046,-0.530,0.692,12.207,36.255,-11.780
1.064,-0.508,0.689,12.024,27.893,-11.169
1.057,-0.488,0.673,10.071,18.372,-7.568
1.025,-0.466,0.648,6.836,8.606,-1.770
0.988,-0.449,0.624,2.625,-0.244,6.226
0.943,-0.438,0.605,-2.258,-7.690,15.564
0.899,-0.428,0.589,-7.812,-13.733,24.292
0.850,-0.426,0.572,-12.878,-18.066,31.189
0.797,-0.424,0.554,-17.212,-20.996,35.645
0.752,-0.424,0.535,-20.935,-22.217,38.025
0.722,-0.425,0.518,-24.109,-22.156,38.513
0.700,-0.430,0.501,-26.184,-20.752,37.598
0.695,-0.441,0.491,-27.832,-17.700,35.645
0.699,-0.456,0.481,-28.870,-14.282,32.959
0.708,-0.462,0.469,-30.029,-11.108,29.846
0.721,-0.465,0.458,-31.189,-7.996,26.489
0.741,-0.471,0.448,-31.677,-4.272,22.522
0.766,-0.474,0.441,-31.067,-0.366,17.761
0.798,-0.482,0.445,-30.212,3.784,13.123
0.828,-0.483,0.453,-28.442,7.507,8.606
0.846,-0.478,0.457,-26.489,10.132,4.883
0.854,-0.474,0.452,-24.841,11.963,2.380
0.868,-0.471,0.448,-22.888,13.245,0.916
0.881,-0.466,0.448,-21.057,14.404,-0.183
0.873,-0.450,0.443,-19.592,15.137,-1.038
0.854,-0.429,0.431,-18.433,15.137,-1.770
0.839,-0.410,0.416,-17.334,15.747,-1.953
0.821,-0.390,0.401,-16.479,16.785,-2.136
0.792,-0.369,0.390,-15.686,18.127,-2.014
0.760,-0.347,0.380,-14.832,19.958,-0.610
0.738,-0.326,0.374,-14.221,22.095,1.587
0.727,-0.309,0.382,-12.573,23.926,4.150
0.711,-0.300,0.385,-10.437,24.658,6.104
0.693,-0.300,0.382,-8.118,24.475,7.202
0.674,-0.305,0.375,-6.348,23.987,7.324
0.666,-0.318,0.369,-5.493,24.109,6.897
0.670,-0.345,0.371,-5.798,24.719,5.737
0.683,-0.375,0.371,-6.470,25.452,3.845

4.000,-0.164,2.973,-3.906,-72.571,19.714
4.000,-0.989,2.415,-61.218,-118.652,123.230
4.000,-1.596,2.798,-103.699,-98.755,266.724
2.214,-0.854,1.502,-165.405,-96.008,296.326
0.448,-0.606,0.689,-191.406,-42.480,262.817
-0.384,-0.518,0.210,-188.965,54.138,225.830
-0.349,-0.392,-0.264,-179.321,142.273,185.669
-0.125,-0.305,-0.298,-165.405,214.722,149.292
-0.219,-0.323,-0.438,-153.015,251.160,126.465
-0.375,-0.331,-0.466,-146.667,266.113,113.525
-0.184,-0.133,-0.297,-141.235,274.536,113.647
0.157,-0.088,-0.132,-128.845,266.296,117.493
0.203,-0.042,-0.049,-118.591,243.103,114.929
0.106,-0.020,-0.041,-112.854,213.806,118.835
0.034,-0.015,-0.125,-101.624,181.274,122.864
0.117,-0.026,-0.153,-87.036,149.048,123.901
0.082,-0.029,-0.162,-71.594,118.713,117.310
0.060,0.047,-0.131,-55.542,89.539,102.478
0.011,0.156,-0.118,-38.330,61.218,89.294
-0.016,0.198,-0.096,-21.179,35.217,77.515
0.011,0.188,-0.075,-3.723,11.414,65.796
0.059,0.183,-0.067,12.024,-12.817,49.194
0.074,0.184,-0.061,26.428,-37.476,33.569
0.078,0.193,-0.054,38.208,-61.157,18.799
0.096,0.177,-0.062,47.791,-82.764,4.517
0.136,0.125,-0.070,56.030,-99.731,-8.728
0.188,0.070,-0.077,62.317,-111.755,-23.499
0.223,0.023,-0.072,66.223,-119.202,-38.269
0.287,-0.016,-0.070,68.359,-123.779,-52.307
0.388,-0.049,-0.057,69.214,-124.084,-64.941
0.520,-0.077,-0.027,68.665,-121.216,-75.500
0.651,-0.100,0.006,67.688,-118.225,-83.740
0.738,-0.116,0.039,66.162,-116.516,-88.745
0.773,-0.104,0.077,63.293,-115.662,-89.172
0.802,-0.106,0.107,61.340,-115.845,-84.229
0.807,-0.107,0.127,59.021,-115.479,-76.050
0.827,-0.113,0.149,56.702,-113.708,-66.284
0.848,-0.112,0.168,55.603,-110.718,-58.411
0.852,-0.104,0.182,55.847,-107.056,-53.894
0.833,-0.102,0.194,56.885,-101.563,-52.124
0.804,-0.117,0.205,58.655,-94.238,-53.650
0.797,-0.141,0.219,61.279,-85.876,-57.800
0.800,-0.164,0.241,64.148,-75.317,-62.988
0.809,-0.189,0.261,67.749,-64.392,-68.726
0.801,-0.208,0.291,71.411,-53.162,-72.754
0.795,-0.237,0.318,73.059,-41.992,-74.219
0.840,-0.300,0.348,73.730,-31.677,-76.111
0.904,-0.349,0.381,72.693,-21.667,-81.238
0.936,-0.348,0.428,68.420,-13.550,-85.388
0.980,-0.335,0.473,61.951,-9.949,-83.374
1.000,-0.315,0.489,54.199,-12.268,-78.064
0.980,-0.302,0.479,46.448,-18.616,-71.411
0.971,-0.288,0.460,40.222,-24.719,-65.979
0.953,-0.277,0.448,37.170,-28.442,-64.148
0.926,-0.270,0.446,36.316,-30.273,-65.308
0.917,-0.271,0.454,36.743,-30.579,-67.810
0.943,-0.282,0.463,37.964,-29.785,-69.885
0.970,-0.297,0.473,39.185,-27.832,-71.167
1.008,-0.313,0.488,39.551,-24.597,-69.885
1.031,-0.323,0.495,38.574,-22.278,-65.735
1.030,-0.328,0.489,37.170,-21.179,-59.814
1.021,-0.328,0.467,35.400,-20.386,-53.650
1.003,-0.333,0.444,32.654,-17.212,-48.645
0.992,-0.344,0.427,29.968,-10.437,-45.349
0.975,-0.345,0.409,26.550,-0.732,-41.687
0.948,-0.340,0.395,22.217,10.925,-36.682
0.939,-0.332,0.384,17.700,23.254,-31.311
0.914,-0.323,0.367,13.916,36.194,-26.672
0.901,-0.328,0.351,10.376,51.208,-23.682
0.938,-0.345,0.352,7.629,67.505,-22.766
1.006,-0.367,0.363,6.226,82.336,-24.048
1.106,-0.379,0.385,5.737,93.750,-26.855
1.214,-0.383,0.407,6.897,99.670,-31.067
1.283,-0.373,0.417,9.033,100.098,-35.095
1.323,-0.364,0.414,10.437,96.436,-36.377
1.359,-0.352,0.405,10.315,90.088,-34.424
1.387,-0.335,0.394,8.728,82.703,-28.992
1.393,-0.309,0.381,6.836,74.524,-21.179
1.363,-0.274,0.372,4.944,65.369,-11.353
1.321,-0.238,0.364,3.601,55.359,-0.122
1.271,-0.204,0.355,2.380,44.678,12.451
1.214,-0.186,0.346,2.258,33.142,24.658
1.143,-0.179,0.332,2.686,20.874,35.339
1.067,-0.185,0.318,3.052,8.362,44.128
1.000,-0.202,0.297,2.991,-3.540,50.842
0.942,-0.227,0.274,2.502,-13.916,54.871
0.897,-0.254,0.255,0.916,-22.278,56.824
0.863,-0.282,0.239,-1.160,-28.442,56.641
0.839,-0.309,0.229,-3.601,-32.227,54.626
0.827,-0.338,0.224,-5.981,-34.241,50.598
0.834,-0.366,0.224,-8.362,-35.095,45.166
0.862,-0.393,0.223,-10.559,-34.912,37.720
0.912,-0.418,0.228,-12.207,-33.630,28.748
0.979,-0.432,0.240,-12.817,-32.471,19.287
1.033,-0.439,0.254,-13.306,-33.386,11.108
1.058,-0.440,0.259,-13.916,-36.194,5.432
1.059,-0.425,0.255,-14.526,-39.307,3.174
1.050,-0.405,0.250,-15.503,-41.809,4.333
1.010,-0.384,0.237,-16.052,-43.152,6.653
0.969,-0.380,0.212,-15.930,-42.053,8.850
0.927,-0.376,0.189,-15.015,-36.743,8.606
0.868,-0.357,0.172,-13.855,-27.527,5.859
0.829,-0.330,0.163,-12.512,-15.442,2.502
0.833,-0.314,0.171,-11.169,-2.563,-0.305
0.836,-0.300,0.189,-8.789,8.911,-1.831
0.818,-0.273,0.203,-6.287,17.578,-1.465
0.805,-0.248,0.218,-3.601,22.827,0.732
0.795,-0.236,0.231,-0.977,24.475,4.028
0.767,-0.235,0.239,2.258,23.193,6.592
0.731,-0.240,0.246,4.089,19.897,7.812
0.694,-0.250,0.239,5.615,15.869,7.507
0.657,-0.261,0.222,5.920,12.268,6.714
0.637,-0.270,0.207,4.822,10.742,5.615
0.630,-0.284,0.190,2.319,10.803,3.662
0.628,-0.295,0.170,-0.549,12.451,0.671
0.625,-0.302,0.148,-3.601,16.479,-3.052
0.626,-0.312,0.126,-5.371,22.217,-7.568
0.633,-0.319,0.101,-5.981,29.358,-12.268
0.642,-0.329,0.077,-5.188,37.842,-16.846

4.000,0.220,1.395,56.885,-90.698,3.540
4.000,-0.269,1.794,43.396,-93.079,58.167
4.000,-1.123,2.133,23.926,-58.594,174.927
2.832,-0.547,1.427,-29.419,-38.086,236.633
1.289,-0.387,0.567,-74.402,-0.854,254.517
0.401,-0.449,0.289,-86.182,81.116,258.301
0.594,-1.003,-0.208,-79.895,148.682,238.220
0.176,-0.630,-0.066,-90.576,192.261,163.757
-0.165,-0.260,-0.213,-93.323,199.829,122.681
0.240,-0.354,-0.264,-82.397,199.524,127.075
0.293,-0.349,-0.174,-84.351,201.477,112.488
0.089,-0.221,0.014,-84.595,196.716,102.539
0.062,-0.216,0.025,-75.317,175.903,107.117
0.200,-0.263,0.004,-68.054,148.621,103.760
0.325,-0.121,0.020,-65.857,117.554,95.154
0.326,-0.085,0.003,-59.631,82.825,100.342
0.257,-0.111,-0.011,-50.293,49.744,100.525
0.177,-0.069,-0.038,-39.490,19.653,94.543
0.176,-0.039,-0.054,-28.442,-4.028,89.294
0.158,-0.012,-0.045,-18.005,-22.034,84.290
0.144,-0.049,-0.049,-10.376,-37.842,79.346
0.113,-0.019,-0.068,-6.226,-53.650,69.580
0.112,0.015,-0.086,-2.563,-65.735,59.326
0.127,0.040,-0.099,1.465,-74.890,50.659
0.150,0.002,-0.109,4.822,-81.299,41.382
0.138,-0.002,-0.115,6.775,-86.975,26.855
0.178,0.007,-0.117,7.935,-90.820,11.658
0.251,-0.008,-0.111,9.033,-91.980,-1.160
0.312,-0.047,-0.114,8.972,-91.858,-12.085
0.349,-0.083,-0.132,8.240,-90.393,-22.644
0.417,-0.104,-0.138,6.287,-85.999,-33.325
0.525,-0.133,-0.144,4.700,-78.430,-43.701
0.650,-0.176,-0.147,3.174,-67.993,-54.749
0.751,-0.209,-0.143,1.221,-55.908,-65.918
0.833,-0.206,-0.127,-1.282,-44.922,-75.317
0.891,-0.179,-0.105,-3.113,-35.339,-79.468
0.901,-0.157,-0.091,-4.333,-27.893,-77.515
0.887,-0.144,-0.081,-3.967,-21.912,-72.144
0.873,-0.128,-0.075,-2.502,-16.052,-65.613
0.862,-0.119,-0.063,0.305,-10.010,-59.143
0.864,-0.144,-0.049,4.700,-5.249,-54.504
0.884,-0.180,-0.028,8.972,-1.770,-52.673
0.926,-0.216,-0.011,12.573,-0.427,-54.565
0.961,-0.252,0.014,14.587,-1.038,-58.228
0.990,-0.270,0.029,15.015,-4.089,-61.829
1.031,-0.280,0.039,15.015,-9.338,-64.209
1.062,-0.274,0.052,15.808,-15.991,-65.979
1.066,-0.251,0.064,16.785,-23.499,-66.589
1.060,-0.233,0.078,19.165,-31.494,-65.002
1.051,-0.233,0.082,21.606,-39.612,-62.012
1.052,-0.251,0.079,24.170,-46.448,-58.838
1.085,-0.271,0.082,25.574,-50.842,-56.885
1.085,-0.268,0.087,26.672,-53.528,-55.420
1.068,-0.261,0.095,27.039,-55.054,-53.040
1.068,-0.268,0.103,27.222,-55.969,-49.744
1.069,-0.275,0.105,27.649,-55.420,-46.814
1.052,-0.270,0.112,27.832,-52.795,-44.983
1.030,-0.261,0.122,28.198,-48.645,-44.189
1.011,-0.258,0.130,28.748,-43.579,-43.152
1.001,-0.263,0.142,28.381,-37.842,-41.199
1.001,-0.269,0.162,27.039,-32.288,-38.635
1.007,-0.277,0.175,24.841,-28.076,-35.706
1.009,-0.282,0.178,22.339,-25.269,-33.569
1.006,-0.281,0.182,19.836,-22.583,-32.654
1.007,-0.277,0.190,17.578,-19.836,-32.166
1.012,-0.269,0.198,15.930,-17.151,-31.128
1.026,-0.263,0.208,14.893,-15.381,-30.334
1.039,-0.261,0.216,14.160,-14.221,-29.236
1.048,-0.264,0.220,14.343,-13.977,-28.015
1.060,-0.271,0.221,14.893,-14.465,-26.917
1.076,-0.279,0.224,15.503,-14.526,-26.062
1.097,-0.283,0.230,15.747,-14.221,-25.085
1.122,-0.293,0.241,15.564,-14.709,-23.621
1.142,-0.300,0.251,14.343,-16.357,-20.386
1.153,-0.305,0.259,12.512,-19.897,-16.174
1.149,-0.307,0.263,10.925,-24.719,-12.268
1.135,-0.307,0.266,9.521,-29.785,-9.644
1.129,-0.313,0.266,8.911,-34.485,-8.667
1.139,-0.321,0.273,9.338,-38.086,-9.216
1.147,-0.319,0.284,10.498,-41.443,-10.803
1.156,-0.310,0.297,12.268,-45.044,-12.390
1.194,-0.297,0.315,14.404,-50.171,-12.756
1.236,-0.285,0.338,16.418,-58.533,-11.353
1.285,-0.276,0.372,18.433,-70.740,-9.216
1.343,-0.250,0.406,20.691,-88.379,-6.470
1.346,-0.210,0.416,23.315,-112.549,-3.601
1.290,-0.175,0.404,26.978,-139.587,-0.183
1.182,-0.154,0.383,31.189,-163.696,5.737
1.055,-0.144,0.368,34.302,-181.885,14.038
0.940,-0.145,0.357,37.231,-192.810,24.231
0.861,-0.174,0.359,39.246,-196.472,35.400
0.783,-0.217,0.364,38.635,-195.435,45.349
0.704,-0.267,0.360,35.522,-191.162,51.819
0.647,-0.313,0.357,31.067,-182.739,54.749
0.614,-0.347,0.368,25.024,-170.776,54.504
0.597,-0.373,0.385,19.226,-156.433,52.185
0.590,-0.391,0.403,13.733,-141.541,49.133
0.590,-0.404,0.419,9.155,-127.686,45.959
0.588,-0.414,0.430,6.104,-114.990,42.725
0.609,-0.414,0.447,4.578,-102.844,39.185
0.660,-0.412,0.475,5.310,-92.041,35.339
0.726,-0.409,0.509,8.179,-85.083,30.518
0.818,-0.433,0.564,13.672,-83.069,24.475
1.015,-0.444,0.647,19.409,-89.172,18.494
1.105,-0.439,0.687,24.170,-112.122,12.695
1.021,-0.439,0.662,27.954,-145.508,4.944
0.941,-0.419,0.612,30.701,-175.659,-2.502
0.852,-0.385,0.574,33.508,-198.120,-9.155
0.731,-0.357,0.545,36.926,-212.952,-14.771
0.593,-0.345,0.529,40.283,-218.628,-18.188
0.473,-0.341,0.530,42.419,-214.172,-19.226
0.366,-0.347,0.536,42.847,-201.294,-18.616
0.297,-0.350,0.550,40.833,-182.190,-16.541
0.235,-0.339,0.552,37.415,-160.889,-13.977
0.186,-0.338,0.555,33.691,-136.780,-11.353
0.217,-0.342,0.589,30.457,-112.610,-7.690
0.270,-0.343,0.635,27.588,-95.093,-4.089
0.306,-0.333,0.667,24.658,-86.975,-3.296
0.355,-0.333,0.690,22.400,-86.548,-4.700

-2.931,-2.885,3.026,41.626,128.418,0.244
-4.000,-3.082,3.068,-131.775,599.304,16.296
-3.042,-2.671,1.292,-183.228,760.437,-28.259
0.300,-2.499,0.793,-240.540,855.225,-63.660
2.363,-1.418,1.466,-293.579,901.123,-28.015
2.854,-0.375,2.010,-365.356,816.956,38.330
2.551,0.010,1.705,-395.691,603.027,120.544
1.954,-0.339,1.183,-359.070,393.494,194.458
1.409,-0.870,0.837,-315.552,234.924,209.412
0.877,-1.020,0.449,-300.415,122.131,189.575
0.643,-0.888,0.266,-303.711,47.424,158.630
0.679,-0.649,0.042,-307.434,-15.747,127.380
0.728,-0.435,-0.288,-301.575,-68.909,110.474
0.702,-0.325,-0.447,-288.696,-101.440,110.840
0.714,-0.245,-0.355,-268.921,-122.437,118.469
0.662,-0.194,-0.375,-242.676,-151.794,122.681
0.495,-0.192,-0.476,-215.210,-177.185,122.742
0.301,-0.192,-0.489,-190.674,-187.134,115.723
0.165,-0.116,-0.445,-165.649,-186.829,102.417
0.079,0.042,-0.443,-140.930,-181.396,89.355
0.013,0.176,-0.397,-120.361,-169.678,84.534
-0.026,0.271,-0.365,-99.548,-152.893,85.083
-0.068,0.310,-0.330,-75.073,-132.812,87.891
-0.114,0.329,-0.288,-49.011,-110.474,90.698
-0.166,0.333,-0.261,-21.179,-84.412,92.163
-0.178,0.337,-0.226,6.958,-55.054,93.384
-0.154,0.336,-0.177,34.912,-26.367,93.811
-0.113,0.313,-0.111,63.171,-0.854,92.896
-0.049,0.275,-0.018,91.309,20.813,89.478
0.030,0.228,0.100,119.507,36.011,82.214
0.103,0.174,0.211,147.034,41.382,71.045
0.158,0.104,0.271,173.035,37.903,56.274
0.211,0.010,0.404,197.021,29.724,38.635
0.283,-0.061,0.536,217.468,18.860,19.470
0.356,-0.127,0.608,235.474,3.784,3.235
0.413,-0.188,0.677,248.840,-11.597,-6.592
0.466,-0.239,0.759,258.728,-25.879,-9.399
0.483,-0.310,0.816,267.456,-42.969,-6.287
0.469,-0.413,0.833,272.705,-63.599,-0.549
0.456,-0.517,0.855,273.010,-83.862,7.019
0.433,-0.600,0.876,267.822,-99.976,14.954
0.361,-0.649,0.875,258.484,-111.633,21.179
0.264,-0.667,0.857,246.216,-117.249,24.658
0.195,-0.681,0.853,233.215,-115.417,25.513
0.147,-0.709,0.857,221.191,-106.934,23.132
0.103,-0.743,0.851,210.999,-94.299,17.151
0.066,-0.766,0.842,202.271,-78.796,9.094
0.037,-0.797,0.843,196.045,-60.547,1.221
0.012,-0.829,0.832,190.491,-42.114,-5.310
0.007,-0.854,0.822,185.181,-24.353,-11.353
0.025,-0.879,0.824,179.871,-7.263,-15.137
0.050,-0.898,0.823,174.500,7.202,-16.541
0.073,-0.911,0.806,169.373,18.677,-17.029
0.088,-0.916,0.776,164.490,28.442,-17.029
0.100,-0.906,0.743,159.485,37.476,-16.663
0.119,-0.904,0.707,154.785,46.753,-15.991
0.146,-0.921,0.683,151.306,56.152,-15.320
0.173,-0.943,0.674,147.583,63.965,-15.015
0.207,-0.963,0.669,142.395,68.115,-15.625
0.245,-0.966,0.645,136.841,68.909,-16.907
0.272,-0.958,0.623,130.798,68.237,-17.395
0.304,-0.966,0.642,123.901,66.772,-17.395
0.344,-0.979,0.654,115.479,60.120,-17.578
0.372,-0.984,0.632,105.286,49.316,-17.578
0.374,-0.977,0.613,93.933,38.635,-16.602
0.364,-0.984,0.610,82.825,28.625,-15.015
0.350,-0.997,0.604,71.655,18.188,-13.184
0.342,-1.005,0.595,59.753,8.301,-11.414
0.327,-1.007,0.584,48.035,-0.427,-9.338
0.301,-1.010,0.575,37.048,-6.958,-7.324
0.280,-1.020,0.567,25.940,-11.597,-5.676
0.272,-1.031,0.557,14.587,-14.648,-4.578
0.265,-1.046,0.542,4.089,-16.541,-4.395
0.271,-1.068,0.539,-6.104,-16.785,-4.883
0.279,-1.086,0.536,-14.709,-16.968,-6.348
0.286,-1.094,0.534,-21.851,-17.395,-7.935
0.290,-1.085,0.529,-26.550,-18.372,-9.399
0.284,-1.061,0.523,-29.114,-19.531,-10.437
0.283,-1.033,0.522,-29.114,-20.325,-10.376
0.292,-1.002,0.526,-28.320,-20.447,-9.583
0.296,-0.966,0.527,-26.428,-21.057,-8.240
0.289,-0.922,0.524,-23.987,-21.729,-6.714
0.286,-0.869,0.517,-21.912,-22.034,-5.798
0.277,-0.809,0.506,-20.264,-21.973,-5.005
0.263,-0.754,0.497,-19.836,-21.362,-4.089
0.255,-0.704,0.486,-22.156,-19.897,-3.174
0.257,-0.667,0.475,-26.184,-18.616,-1.892
0.269,-0.642,0.466,-32.104,-18.005,-0.061
0.276,-0.633,0.458,-39.001,-18.799,1.343
0.282,-0.626,0.451,-46.204,-20.935,2.075
0.287,-0.620,0.444,-52.917,-23.437,2.441
0.282,-0.632,0.442,-58.167,-26.489,3.235
0.275,-0.656,0.452,-62.012,-29.602,3.540
0.277,-0.684,0.474,-65.308,-32.837,3.967
0.285,-0.715,0.498,-67.200,-37.109,4.211
0.297,-0.769,0.528,-66.040,-42.053,4.028
0.322,-0.839,0.565,-60.913,-46.997,2.563
0.340,-0.891,0.598,-52.368,-52.429,-1.160
0.334,-0.920,0.629,-41.260,-57.373,-6.653
0.313,-0.927,0.646,-29.663,-61.340,-13.184
0.282,-0.914,0.651,-18.860,-63.293,-18.799
0.245,-0.898,0.641,-9.399,-61.890,-22.156
0.204,-0.882,0.621,-1.953,-55.786,-22.949
0.169,-0.869,0.599,3.052,-45.166,-21.545
0.146,-0.856,0.577,5.981,-30.823,-18.494
0.139,-0.841,0.560,6.714,-13.916,-14.404
0.151,-0.823,0.554,6.042,3.479,-9.888
0.180,-0.803,0.552,4.578,20.264,-5.432
0.204,-0.777,0.547,1.526,33.997,-1.282
0.210,-0.753,0.533,-1.892,44.434,3.235
0.217,-0.735,0.522,-5.249,52.429,7.812
0.232,-0.721,0.515,-8.362,57.678,11.597
0.237,-0.705,0.506,-10.986,60.120,14.038
0.236,-0.686,0.500,-12.817,60.242,15.198
0.248,-0.672,0.500,-14.526,58.533,14.587
0.276,-0.656,0.500,-16.052,54.504,12.268
0.298,-0.646,0.497,-17.029,48.279,8.911
0.304,-0.653,0.491,-17.395,40.466,5.737
0.307,-0.661,0.482,-17.700,31.250,3.296

0.649,-4.000,4.000,-119.568,119.324,-61.157
1.211,-2.512,3.190,-345.276,17.334,-3.723
1.204,-0.816,1.214,-434.570,-33.020,151.001
0.662,-0.162,1.377,-459.167,77.942,133.606
0.160,-0.404,1.318,-376.465,139.465,113.892
0.032,-0.494,0.696,-273.376,126.953,107.544
0.165,-0.458,0.371,-197.754,130.249,102.112
0.271,-0.435,0.249,-150.574,145.935,93.933
0.228,-0.409,0.096,-133.301,154.785,87.891
0.209,-0.471,-0.018,-129.700,163.940,91.675
0.213,-0.467,-0.153,-130.676,164.795,96.069
0.264,-0.380,-0.106,-131.531,164.307,98.572
0.214,-0.308,-0.142,-130.676,153.870,96.130
0.167,-0.271,-0.171,-127.930,140.442,90.149
0.135,-0.220,-0.151,-126.160,127.136,83.557
0.052,-0.143,-0.187,-122.192,110.596,78.064
0.031,-0.090,-0.225,-115.173,97.717,73.486
0.067,-0.082,-0.241,-106.018,89.233,66.101
0.085,-0.055,-0.211,-96.863,83.679,56.274
0.090,-0.003,-0.156,-87.769,77.515,48.279
0.118,0.036,-0.110,-78.308,67.261,43.640
0.152,0.072,-0.099,-67.444,54.016,39.978
0.187,0.096,-0.060,-55.176,40.527,36.377
0.223,0.108,-0.015,-41.748,24.414,32.349
0.245,0.113,0.000,-27.100,5.188,28.015
0.266,0.091,0.026,-11.047,-13.489,23.499
0.276,0.052,0.043,5.249,-31.799,17.273
0.278,0.011,0.048,22.766,-48.462,8.484
0.294,-0.030,0.077,40.833,-62.317,-1.953
0.337,-0.066,0.129,58.960,-73.364,-13.611
0.403,-0.100,0.181,77.759,-83.923,-26.794
0.467,-0.139,0.226,96.802,-93.323,-39.917
0.510,-0.184,0.271,115.845,-100.037,-51.636
0.565,-0.236,0.324,135.132,-104.004,-60.730
0.634,-0.304,0.373,153.442,-104.919,-66.284
0.709,-0.383,0.447,169.373,-105.530,-68.481
0.702,-0.438,0.461,181.030,-109.070,-67.688
0.692,-0.488,0.500,188.354,-111.694,-63.660
0.651,-0.501,0.500,192.078,-114.380,-58.228
0.621,-0.525,0.513,193.176,-115.479,-50.171
0.591,-0.553,0.508,192.017,-115.906,-42.297
0.582,-0.578,0.520,189.575,-114.929,-35.583
0.591,-0.608,0.542,186.890,-113.159,-29.480
0.593,-0.656,0.564,183.411,-112.488,-24.780
0.580,-0.715,0.582,179.321,-113.647,-22.339
0.548,-0.759,0.578,174.622,-115.540,-22.339
0.497,-0.788,0.576,170.349,-115.601,-24.536
0.441,-0.808,0.599,166.748,-112.305,-28.198
0.386,-0.810,0.602,163.086,-107.544,-32.288
0.345,-0.821,0.586,158.569,-99.426,-34.607
0.307,-0.828,0.576,154.053,-86.731,-36.316
0.277,-0.833,0.574,148.499,-71.228,-38.086
0.267,-0.843,0.574,142.700,-55.115,-39.917
0.267,-0.851,0.563,135.986,-39.673,-41.809
0.283,-0.866,0.561,129.883,-24.597,-42.725
0.301,-0.880,0.564,123.840,-10.803,-43.213
0.324,-0.896,0.583,118.042,1.160,-42.542
0.348,-0.905,0.592,111.877,9.644,-41.321
0.385,-0.922,0.596,106.079,15.564,-39.978
0.422,-0.941,0.609,100.220,19.470,-38.513
0.445,-0.943,0.621,93.079,20.508,-36.560
0.459,-0.932,0.628,83.984,19.165,-33.203
0.467,-0.922,0.618,73.914,15.747,-28.625
0.475,-0.922,0.605,62.561,11.292,-23.743
0.482,-0.926,0.599,51.086,7.507,-19.165
0.473,-0.912,0.591,39.368,4.028,-15.625
0.450,-0.891,0.577,27.893,1.587,-12.207
0.429,-0.877,0.562,17.090,0.732,-8.118
0.408,-0.865,0.549,7.507,1.038,-4.211
0.385,-0.848,0.536,-0.488,2.441,-0.977
0.366,-0.839,0.524,-7.019,4.883,2.563
0.353,-0.834,0.510,-11.963,7.996,5.371
0.339,-0.832,0.498,-16.235,11.719,7.629
0.334,-0.843,0.481,-19.897,15.747,9.155
0.336,-0.865,0.470,-22.339,19.775,10.193
0.352,-0.897,0.474,-23.621,24.353,10.681
0.395,-0.942,0.500,-21.423,28.809,9.888
0.442,-0.968,0.532,-15.503,32.043,7.629
0.476,-0.966,0.556,-8.362,33.325,4.272
0.502,-0.942,0.570,-0.488,32.593,1.160
0.531,-0.908,0.571,7.263,30.396,-1.038
0.558,-0.875,0.570,13.611,27.161,-1.831
0.586,-0.861,0.580,18.433,24.414,-1.404
0.605,-0.847,0.588,20.813,21.179,0.122
0.599,-0.823,0.584,19.287,16.907,3.296
0.578,-0.802,0.573,14.587,12.207,7.996
0.547,-0.786,0.552,7.019,7.996,14.099
0.509,-0.768,0.520,-2.441,4.578,20.386
0.469,-0.742,0.486,-13.489,2.625,26.489
0.434,-0.722,0.453,-25.024,2.625,32.104
0.409,-0.718,0.427,-36.926,5.005,36.499
0.390,-0.718,0.400,-48.340,8.789,38.940
0.380,-0.717,0.379,-58.411,14.526,39.307
0.381,-0.723,0.368,-65.918,21.790,38.269
0.398,-0.739,0.366,-70.557,29.236,36.072
0.427,-0.762,0.368,-72.388,36.194,32.410
0.488,-0.798,0.391,-70.984,42.603,27.893
0.576,-0.845,0.435,-65.674,46.997,21.484
0.679,-0.880,0.489,-56.519,47.607,12.878
0.770,-0.896,0.536,-43.640,43.213,1.953
0.831,-0.893,0.570,-28.870,33.875,-9.521
0.859,-0.881,0.590,-13.855,21.179,-20.081
0.851,-0.866,0.587,-1.160,7.385,-27.344
0.824,-0.847,0.570,8.301,-4.639,-30.762
0.782,-0.835,0.552,13.855,-13.184,-30.762
0.730,-0.825,0.537,14.709,-18.433,-28.198
0.676,-0.804,0.518,11.292,-20.203,-24.597
0.624,-0.776,0.499,5.432,-18.555,-19.775
0.580,-0.747,0.476,-2.258,-13.611,-14.343
0.538,-0.724,0.457,-10.254,-5.981,-8.789
0.506,-0.704,0.445,-17.883,2.686,-3.906
0.487,-0.685,0.436,-24.048,12.085,-0.183
0.465,-0.658,0.421,-28.687,20.996,2.808
0.444,-0.628,0.407,-32.532,28.992,5.188
0.427,-0.600,0.391,-35.156,36.072,7.080
0.422,-0.585,0.376,-36.438,42.419,8.789
0.426,-0.589,0.360,-37.781,47.424,10.681
0.447,-0.600,0.352,-41.504,50.720,12.817
0.479,-0.602,0.356,-46.753,52.429,14.282

1.658,-3.972,4.000,-131.714,215.515,-65.430
2.455,-1.328,2.675,-330.811,118.286,109.009
1.360,-0.146,1.653,-411.255,114.868,155.334
0.349,-0.308,1.170,-390.442,137.329,123.901
0.043,-0.654,0.679,-305.298,122.986,127.319
-0.044,-0.691,0.073,-237.122,104.980,123.230
0.047,-0.541,-0.018,-201.050,116.516,111.755
-0.008,-0.312,-0.116,-188.904,133.545,103.882
-0.095,-0.310,-0.195,-182.190,147.644,107.239
0.049,-0.419,-0.107,-170.959,161.926,108.582
0.146,-0.429,-0.173,-160.583,156.555,101.807
0.106,-0.328,-0.229,-148.621,147.705,92.896
0.084,-0.213,-0.207,-136.414,138.489,81.055
0.106,-0.189,-0.236,-124.451,125.122,71.960
0.110,-0.197,-0.221,-115.967,115.967,65.491
0.139,-0.164,-0.133,-111.328,109.985,60.974
0.194,-0.081,-0.037,-107.605,98.145,57.434
0.219,-0.012,0.030,-103.271,78.735,55.786
0.248,0.014,0.072,-98.145,54.871,52.856
0.244,0.052,0.081,-91.919,29.175,47.119
0.229,0.094,0.079,-84.167,5.249,41.443
0.230,0.123,0.064,-73.364,-16.235,35.828
0.232,0.133,0.043,-59.387,-34.058,29.175
0.228,0.129,0.049,-42.847,-46.326,21.179
0.222,0.112,0.056,-25.208,-54.504,11.841
0.225,0.083,0.070,-6.958,-58.533,2.075
0.236,0.054,0.096,9.766,-57.800,-7.202
0.251,0.026,0.127,25.757,-53.833,-16.541
0.286,-0.006,0.174,40.039,-47.363,-24.536
0.368,-0.059,0.231,53.589,-39.490,-31.921
0.481,-0.121,0.289,66.956,-31.433,-39.429
0.579,-0.180,0.353,78.674,-24.231,-45.532
0.667,-0.238,0.428,87.341,-18.799,-49.194
0.759,-0.301,0.495,93.140,-17.639,-50.598
0.835,-0.348,0.539,95.703,-21.362,-50.110
0.852,-0.368,0.553,94.788,-29.419,-47.546
0.837,-0.371,0.572,90.942,-38.757,-43.152
0.793,-0.365,0.572,84.839,-47.546,-37.842
0.742,-0.362,0.564,77.576,-54.382,-32.104
0.689,-0.354,0.544,70.679,-59.387,-27.405
0.654,-0.352,0.531,64.697,-61.157,-23.254
0.645,-0.365,0.536,61.279,-59.814,-20.447
0.642,-0.382,0.546,61.768,-56.946,-20.630
0.641,-0.394,0.565,65.552,-53.345,-23.254
0.645,-0.397,0.588,72.144,-48.584,-27.466
0.638,-0.398,0.601,80.872,-44.128,-32.410
0.628,-0.400,0.610,90.759,-39.001,-36.865
0.617,-0.412,0.601,100.159,-33.936,-39.307
0.611,-0.439,0.596,107.971,-28.564,-39.490
0.582,-0.462,0.601,111.328,-22.461,-37.354
0.559,-0.480,0.606,110.901,-16.418,-34.058
0.555,-0.493,0.612,108.276,-10.864,-30.884
0.542,-0.497,0.616,103.149,-5.920,-28.381
0.518,-0.495,0.599,95.825,-1.709,-25.879
0.501,-0.491,0.583,87.158,2.686,-24.048
0.508,-0.499,0.585,78.003,8.057,-22.461
0.533,-0.506,0.602,69.763,12.024,-21.545
0.577,-0.516,0.625,63.965,13.916,-21.423
0.607,-0.526,0.641,60.120,13.550,-22.217
0.617,-0.526,0.643,58.289,11.719,-23.254
0.616,-0.520,0.631,57.739,9.033,-24.353
0.623,-0.524,0.624,57.251,6.775,-24.597
0.622,-0.527,0.622,56.641,5.249,-24.231
0.607,-0.520,0.614,55.237,3.845,-23.254
0.584,-0.514,0.601,52.979,2.563,-21.484
0.566,-0.520,0.584,49.927,2.197,-18.799
0.571,-0.542,0.583,47.302,3.235,-15.991
0.596,-0.575,0.598,44.434,5.188,-14.099
0.616,-0.603,0.622,42.480,6.531,-13.550
0.657,-0.632,0.650,41.565,6.775,-14.038
0.701,-0.653,0.676,43.335,4.944,-15.991
0.739,-0.665,0.706,47.363,2.197,-18.494
0.778,-0.673,0.729,53.467,-1.648,-20.874
0.796,-0.672,0.739,59.875,-6.226,-22.217
0.793,-0.660,0.738,65.674,-10.620,-22.034
0.785,-0.641,0.729,69.397,-14.465,-19.958
0.764,-0.635,0.722,70.923,-17.578,-15.808
0.724,-0.652,0.708,69.153,-20.386,-9.338
0.675,-0.666,0.690,64.575,-22.339,-1.953
0.638,-0.677,0.678,57.129,-23.132,5.615
0.630,-0.695,0.674,47.974,-22.766,12.451
0.629,-0.707,0.657,37.170,-22.583,17.761
0.625,-0.714,0.637,24.841,-22.278,20.813
0.623,-0.712,0.613,12.146,-21.851,21.606
0.631,-0.704,0.590,-0.366,-20.874,20.874
0.653,-0.698,0.582,-11.047,-20.264,19.409
0.687,-0.703,0.578,-18.799,-21.240,17.334
0.720,-0.703,0.576,-24.719,-23.987,14.771
0.742,-0.700,0.578,-27.527,-28.320,12.390
0.757,-0.701,0.576,-26.428,-33.875,10.254
0.760,-0.704,0.573,-22.827,-39.185,8.057
0.740,-0.708,0.567,-17.578,-43.335,5.493
0.706,-0.712,0.558,-11.780,-45.105,2.808
0.692,-0.730,0.557,-5.188,-43.274,-0.183
0.682,-0.753,0.564,1.526,-38.879,-3.418
0.650,-0.756,0.561,7.141,-32.410,-6.958
0.620,-0.744,0.551,11.108,-23.987,-10.437
0.611,-0.738,0.544,13.916,-13.550,-13.062
0.612,-0.731,0.543,15.137,-2.502,-14.893
0.613,-0.715,0.542,14.648,8.301,-15.198
0.618,-0.693,0.541,12.268,17.944,-13.977
0.618,-0.663,0.531,8.606,25.391,-11.292
0.608,-0.631,0.518,3.296,30.823,-6.836
0.592,-0.611,0.499,-2.258,34.363,-2.136
0.561,-0.597,0.483,-6.775,36.438,2.808
0.532,-0.577,0.464,-10.925,38.147,7.141
0.506,-0.556,0.446,-14.099,40.100,9.521
0.477,-0.535,0.425,-16.235,42.236,10.376
0.456,-0.518,0.404,-18.188,44.983,10.315
0.447,-0.511,0.388,-19.653,47.974,9.521
0.454,-0.516,0.379,-20.752,50.781,8.301
0.472,-0.527,0.375,-21.606,53.223,6.592
0.501,-0.534,0.380,-21.851,54.260,4.272
0.543,-0.538,0.391,-20.630,53.345,1.099
0.587,-0.537,0.404,-18.738,50.171,-2.258
0.625,-0.539,0.416,-15.625,44.922,-5.005
0.655,-0.547,0.425,-13.184,37.659,-7.629
0.678,-0.564,0.432,-11.230,28.687,-9.705
0.692,-0.586,0.438,-9.521,18.677,-11.597

3.233,-4.000,4.000,-18.555,244.446,-117.004
3.762,-1.897,2.644,-213.684,216.064,79.041
1.575,0.430,1.941,-293.640,278.198,177.002
0.775,0.337,0.809,-264.893,267.334,129.333
0.452,-0.434,0.381,-171.936,234.436,135.376
0.287,-0.774,0.136,-113.586,193.542,137.146
0.207,-0.633,-0.049,-106.873,148.132,122.192
0.087,-0.434,-0.013,-112.549,118.042,112.366
0.007,-0.410,-0.118,-108.215,94.360,111.328
-0.001,-0.293,-0.189,-95.642,83.130,106.262
0.145,-0.248,-0.091,-77.087,76.477,103.943
0.134,-0.228,-0.197,-61.462,55.359,99.731
0.011,-0.257,-0.194,-54.810,48.462,99.060
-0.012,-0.261,-0.060,-57.129,49.805,97.778
0.043,-0.204,-0.002,-64.819,42.419,94.788
0.088,-0.124,0.007,-73.364,28.137,91.736
0.102,-0.078,0.025,-79.163,12.878,88.257
0.064,-0.041,0.034,-83.008,-2.319,83.313
0.066,-0.033,0.044,-84.900,-17.334,77.026
0.079,-0.014,0.003,-83.191,-32.288,65.857
0.081,0.040,-0.003,-77.820,-43.030,51.147
0.094,0.088,0.016,-69.458,-51.208,38.452
0.099,0.115,0.001,-58.105,-59.875,26.367
0.119,0.110,0.020,-43.701,-65.063,13.428
0.147,0.086,0.039,-27.710,-68.848,-0.183
0.161,0.057,0.049,-10.925,-72.083,-14.465
0.186,0.017,0.080,5.798,-72.510,-28.687
0.247,-0.034,0.117,22.522,-71.533,-42.664
0.327,-0.094,0.156,40.222,-70.068,-56.824
0.388,-0.153,0.190,57.373,-67.139,-70.557
0.440,-0.212,0.234,72.632,-62.622,-80.872
0.509,-0.272,0.286,85.571,-57.861,-87.769
0.582,-0.331,0.338,95.825,-55.298,-91.736
0.629,-0.381,0.376,102.783,-56.519,-93.262
0.630,-0.413,0.401,106.384,-59.692,-92.529
0.598,-0.426,0.421,106.079,-62.561,-89.417
0.544,-0.419,0.409,102.478,-65.430,-84.534
0.508,-0.421,0.398,97.839,-66.650,-78.735
0.487,-0.430,0.389,92.773,-64.209,-73.303
0.458,-0.431,0.395,87.585,-58.777,-67.444
0.430,-0.446,0.396,82.703,-51.147,-61.157
0.424,-0.476,0.405,79.895,-41.992,-57.068
0.441,-0.513,0.433,80.933,-31.250,-55.359
0.460,-0.543,0.467,86.365,-20.996,-56.702
0.447,-0.550,0.474,93.384,-13.123,-59.631
0.425,-0.547,0.469,100.647,-6.836,-62.866
0.473,-0.581,0.490,108.765,0.122,-66.711
0.558,-0.644,0.512,120.422,7.263,-71.838
0.605,-0.702,0.523,133.240,12.451,-77.637
0.631,-0.746,0.540,143.372,15.625,-81.299
0.685,-0.794,0.567,148.987,18.066,-80.017
0.740,-0.844,0.585,151.001,17.395,-75.256
0.765,-0.872,0.605,149.292,12.695,-68.787
0.778,-0.886,0.625,144.226,6.165,-61.157
0.798,-0.898,0.644,136.963,-0.061,-54.260
0.804,-0.907,0.658,128.296,-5.981,-48.157
0.788,-0.910,0.668,118.042,-11.353,-42.236
0.786,-0.916,0.676,107.544,-16.052,-37.048
0.777,-0.910,0.670,97.839,-20.142,-33.997
0.760,-0.899,0.654,88.806,-22.827,-31.921
0.746,-0.893,0.646,81.238,-23.499,-30.457
0.751,-0.899,0.649,74.951,-22.949,-29.236
0.762,-0.902,0.648,70.007,-22.034,-28.687
0.755,-0.884,0.648,65.918,-21.729,-28.259
0.739,-0.861,0.651,62.500,-21.973,-26.306
0.722,-0.850,0.644,59.082,-22.949,-22.644
0.692,-0.846,0.628,55.603,-24.414,-17.517
0.656,-0.854,0.613,51.697,-24.902,-11.719
0.633,-0.870,0.599,46.631,-23.560,-6.165
0.625,-0.899,0.592,41.565,-20.569,-1.953
0.618,-0.924,0.584,36.133,-16.174,1.648
0.609,-0.938,0.575,30.579,-11.292,4.211
0.608,-0.945,0.571,25.269,-5.798,5.920
0.609,-0.941,0.570,19.836,0.000,7.080
0.607,-0.920,0.573,15.442,5.676,7.812
0.607,-0.899,0.577,13.245,10.437,8.972
0.618,-0.883,0.583,12.817,14.099,10.437
0.633,-0.863,0.591,13.306,16.235,11.719
0.651,-0.837,0.599,14.465,16.724,12.817
0.671,-0.815,0.605,15.442,15.198,13.733
0.673,-0.786,0.596,15.991,11.230,14.832
0.660,-0.757,0.581,14.954,6.348,16.663
0.641,-0.747,0.561,11.414,1.221,19.470
0.615,-0.746,0.534,6.104,-3.113,23.071
0.576,-0.733,0.499,-1.038,-5.920,27.100
0.541,-0.713,0.464,-10.925,-6.165,31.189
0.517,-0.700,0.436,-21.484,-3.906,35.278
0.509,-0.696,0.409,-32.959,0.305,38.635
0.503,-0.691,0.385,-43.579,6.409,40.833
0.498,-0.685,0.362,-53.223,13.855,42.480
0.497,-0.679,0.335,-61.768,22.278,43.579
0.501,-0.677,0.309,-68.848,31.982,44.312
0.509,-0.674,0.287,-74.158,42.114,45.288
0.517,-0.668,0.271,-77.637,52.368,46.021
0.537,-0.664,0.260,-78.674,61.890,46.143
0.571,-0.669,0.258,-77.087,70.068,45.288
0.622,-0.695,0.269,-72.327,76.355,43.091
0.678,-0.729,0.285,-65.430,80.566,39.490
0.733,-0.756,0.301,-56.458,81.726,33.264
0.792,-0.770,0.319,-46.082,80.139,25.208
0.847,-0.778,0.336,-35.400,76.111,15.869
0.879,-0.781,0.348,-25.269,69.397,6.348
0.894,-0.774,0.355,-16.785,59.998,-1.770
0.909,-0.753,0.357,-11.658,49.011,-6.836
0.919,-0.732,0.356,-9.094,37.109,-9.155
0.911,-0.710,0.349,-9.277,24.658,-8.484
0.878,-0.678,0.340,-11.658,12.451,-5.676
0.838,-0.646,0.329,-15.259,1.587,-2.075
0.814,-0.621,0.322,-19.714,-6.653,2.075
0.790,-0.602,0.318,-24.231,-13.428,6.104
0.750,-0.589,0.312,-28.320,-18.860,9.216
0.704,-0.570,0.301,-31.067,-22.644,10.803
0.670,-0.540,0.295,-32.532,-23.987,11.169
0.643,-0.507,0.290,-32.227,-23.071,10.559
0.626,-0.484,0.286,-30.945,-21.118,9.583
0.619,-0.472,0.286,-29.663,-18.677,8.179
0.630,-0.468,0.295,-28.381,-17.273,6.531
0.653,-0.471,0.305,-27.832,-18.066,5.005
0.672,-0.488,0.310,-27.832,-22.034,3.174

-0.131,-4.000,4.000,81.421,129.517,-96.619
2.049,-3.413,3.340,-165.405,183.777,-10.559
1.787,-0.682,2.469,-345.276,132.263,123.169
0.744,-0.452,1.650,-433.777,171.021,96.802
-0.296,-1.012,0.951,-403.381,188.965,117.004
-0.312,-1.204,0.427,-341.675,183.044,134.155
-0.098,-0.880,0.090,-303.162,164.246,122.437
-0.013,-0.522,-0.027,-273.987,167.175,107.361
-0.170,-0.325,-0.161,-256.409,179.016,98.450
-0.308,-0.339,-0.251,-243.896,201.294,103.455
-0.211,-0.415,-0.207,-228.943,221.802,110.535
-0.103,-0.374,-0.225,-213.623,220.764,109.741
-0.073,-0.290,-0.305,-199.097,211.548,104.553
-0.053,-0.219,-0.292,-184.387,210.876,99.365
0.021,-0.201,-0.176,-171.143,209.229,94.299
0.118,-0.137,-0.060,-160.522,195.862,89.294
0.113,-0.046,-0.099,-151.550,170.166,86.975
0.133,-0.011,-0.076,-142.334,146.484,86.792
0.177,-0.021,0.000,-132.935,121.765,81.787
0.163,0.034,-0.003,-122.925,90.149,71.472
0.140,0.081,-0.022,-111.206,60.364,63.354
0.135,0.123,-0.007,-97.839,32.715,56.152
0.123,0.137,-0.041,-83.313,5.066,48.584
0.109,0.153,-0.055,-67.749,-18.311,39.795
0.101,0.165,-0.054,-50.964,-38.025,29.175
0.088,0.166,-0.069,-32.959,-54.260,17.822
0.094,0.146,-0.046,-13.855,-65.186,5.432
0.137,0.119,0.006,5.859,-73.242,-7.324
0.206,0.084,0.059,27.649,-80.078,-21.912
0.268,0.037,0.101,51.147,-83.984,-38.330
0.337,-0.004,0.165,75.134,-83.923,-55.359
0.426,-0.052,0.255,99.182,-80.811,-71.106
0.510,-0.114,0.335,121.399,-74.768,-82.642
0.550,-0.204,0.373,139.221,-64.697,-86.426
0.551,-0.297,0.402,150.513,-50.049,-83.801
0.565,-0.402,0.471,154.236,-33.081,-77.393
0.612,-0.480,0.519,152.344,-18.311,-70.679
0.649,-0.505,0.548,145.752,-6.531,-64.575
0.692,-0.497,0.580,135.803,4.517,-59.570
0.779,-0.494,0.621,126.038,12.939,-55.786
0.854,-0.517,0.642,117.004,16.418,-52.856
0.843,-0.540,0.646,108.276,15.869,-51.208
0.789,-0.539,0.638,100.037,13.245,-50.598
0.760,-0.519,0.625,92.590,10.010,-50.476
0.755,-0.503,0.610,87.524,7.507,-50.049
0.746,-0.503,0.600,85.266,4.639,-49.683
0.728,-0.506,0.601,84.351,1.282,-49.438
0.713,-0.506,0.610,84.167,-2.197,-48.462
0.719,-0.510,0.625,84.778,-5.615,-47.180
0.712,-0.515,0.635,85.510,-8.667,-45.532
0.672,-0.514,0.626,86.670,-11.414,-43.518
0.635,-0.513,0.613,87.708,-12.329,-41.626
0.618,-0.518,0.600,88.562,-10.376,-39.368
0.610,-0.533,0.592,88.318,-6.958,-36.926
0.595,-0.554,0.586,86.853,-2.075,-33.813
0.586,-0.561,0.588,83.008,3.174,-31.494
0.590,-0.553,0.588,77.637,7.324,-29.907
0.592,-0.555,0.578,71.228,10.559,-27.832
0.588,-0.557,0.574,64.392,12.756,-26.428
0.604,-0.559,0.579,57.739,14.221,-25.818
0.642,-0.562,0.586,52.490,13.733,-26.245
0.661,-0.561,0.582,48.645,11.047,-27.405
0.658,-0.554,0.577,45.837,7.507,-29.236
0.653,-0.549,0.575,44.373,4.272,-30.884
0.666,-0.551,0.576,42.725,2.380,-31.616
0.689,-0.555,0.580,41.382,1.404,-31.799
0.723,-0.575,0.587,40.405,1.587,-30.823
0.766,-0.611,0.597,39.917,2.014,-29.053
0.789,-0.640,0.601,39.673,2.380,-26.611
0.793,-0.663,0.596,38.818,2.686,-23.132
0.785,-0.690,0.585,36.377,3.113,-18.372
0.777,-0.714,0.572,33.813,3.174,-13.245
0.775,-0.737,0.568,31.616,4.211,-8.972
0.776,-0.746,0.574,30.945,5.920,-5.798
0.781,-0.746,0.577,32.410,8.057,-4.333
0.802,-0.745,0.576,35.461,9.949,-4.578
0.847,-0.740,0.584,39.368,11.230,-5.798
0.901,-0.732,0.603,43.762,10.864,-7.568
0.936,-0.723,0.627,48.279,8.057,-8.240
0.957,-0.703,0.643,52.368,2.136,-6.775
0.961,-0.697,0.655,55.664,-6.470,-2.930
0.947,-0.705,0.651,56.152,-16.785,2.869
0.904,-0.716,0.634,52.551,-26.917,10.437
0.839,-0.727,0.610,44.922,-35.278,18.921
0.777,-0.732,0.580,33.813,-41.138,26.611
0.737,-0.731,0.542,20.142,-43.274,33.081
0.706,-0.731,0.505,6.470,-42.114,37.292
0.690,-0.731,0.490,-5.859,-39.063,38.513
0.684,-0.717,0.473,-15.808,-36.316,36.865
0.696,-0.691,0.456,-23.010,-34.912,33.752
0.710,-0.661,0.444,-27.283,-34.973,29.480
0.720,-0.639,0.437,-27.649,-35.706,24.658
0.729,-0.622,0.431,-24.292,-36.438,19.287
0.749,-0.608,0.435,-18.982,-36.621,13.794
0.776,-0.609,0.444,-12.024,-36.926,8.667
0.790,-0.627,0.455,-4.944,-37.048,4.028
0.797,-0.638,0.465,0.793,-36.560,0.427
0.795,-0.647,0.472,5.127,-35.095,-1.648
0.768,-0.652,0.472,7.385,-32.654,-2.136
0.743,-0.646,0.466,6.958,-28.870,-1.282
0.725,-0.632,0.461,5.615,-24.536,0.122
0.707,-0.612,0.455,2.930,-20.325,2.136
0.686,-0.594,0.449,-0.244,-17.212,3.967
0.681,-0.581,0.450,-2.991,-15.198,5.493
0.675,-0.560,0.453,-4.578,-15.747,6.531
0.666,-0.539,0.457,-5.981,-19.165,6.775
0.657,-0.522,0.459,-6.226,-25.085,6.775
0.636,-0.506,0.455,-5.371,-32.715,6.653
0.596,-0.492,0.445,-4.150,-40.283,6.531
0.552,-0.486,0.431,-2.441,-47.180,7.019
0.505,-0.495,0.415,-0.488,-51.880,7.568
0.463,-0.506,0.402,1.038,-53.284,7.874
0.433,-0.514,0.388,2.319,-51.575,7.507
0.423,-0.524,0.383,3.174,-47.302,6.409
0.429,-0.538,0.385,3.845,-41.382,4.700
0.439,-0.553,0.392,4.395,-35.645,2.380
0.450,-0.569,0.403,5.249,-30.334,-0.061
0.460,-0.580,0.409,5.676,-25.940,-2.319
0.475,-0.591,0.417,6.531,-22.827,-3.967

3.971,-3.340,4.000,-149.048,709.290,130.310
4.000,0.488,2.019,-305.176,472.168,225.708
2.172,0.654,1.157,-281.250,328.674,217.285
0.984,-0.637,0.918,-180.420,246.826,195.374
0.579,-1.094,0.208,-113.220,137.756,187.866
0.725,-1.026,0.064,-97.961,79.895,168.640
0.800,-0.718,0.075,-106.384,37.231,141.052
0.658,-0.480,-0.117,-117.249,-24.475,125.061
0.426,-0.458,-0.263,-118.530,-75.623,126.709
0.211,-0.443,-0.218,-110.107,-105.591,127.869
0.038,-0.430,-0.233,-104.126,-131.409,126.770
-0.073,-0.413,-0.254,-99.487,-140.503,120.117
-0.078,-0.398,-0.245,-96.191,-136.230,108.582
-0.049,-0.344,-0.177,-95.215,-122.009,98.206
-0.070,-0.263,-0.095,-95.337,-103.333,89.905
-0.077,-0.183,-0.032,-95.215,-85.388,81.848
-0.054,-0.115,-0.002,-93.811,-70.374,73.792
-0.004,-0.076,0.027,-88.196,-56.458,65.369
0.055,-0.069,0.062,-78.674,-45.288,55.359
0.101,-0.070,0.079,-66.040,-38.330,42.908
0.138,-0.066,0.095,-51.331,-33.203,29.358
0.172,-0.065,0.120,-36.499,-28.503,16.479
0.208,-0.073,0.141,-22.278,-24.048,4.944
0.254,-0.094,0.170,-8.484,-18.921,-5.127
0.295,-0.121,0.200,4.028,-13.489,-14.465
0.335,-0.161,0.231,14.709,-8.118,-22.766
0.385,-0.216,0.268,23.132,-1.648,-29.480
0.449,-0.285,0.297,29.175,5.310,-34.851
0.540,-0.359,0.329,32.593,11.597,-40.100
0.652,-0.437,0.374,34.424,16.296,-45.593
0.748,-0.502,0.424,33.752,18.738,-50.415
0.792,-0.536,0.445,29.785,18.188,-53.833
0.806,-0.551,0.451,24.109,15.808,-55.908
0.818,-0.548,0.448,17.456,12.939,-56.396
0.845,-0.544,0.453,10.864,10.498,-54.749
0.853,-0.536,0.457,5.371,7.812,-51.636
0.832,-0.515,0.447,1.770,4.578,-48.157
0.811,-0.493,0.427,0.061,1.465,-44.189
0.800,-0.481,0.419,0.305,-0.305,-40.100
0.784,-0.475,0.416,1.831,-0.916,-37.048
0.746,-0.461,0.405,4.150,-0.488,-34.851
0.709,-0.453,0.399,7.080,1.465,-33.264
0.679,-0.451,0.388,10.132,4.333,-32.776
0.654,-0.451,0.373,13.489,8.118,-33.447
0.632,-0.456,0.362,16.724,13.123,-34.973
0.622,-0.463,0.366,19.287,18.860,-37.109
0.613,-0.465,0.377,21.118,24.597,-39.246
0.606,-0.466,0.372,22.705,28.809,-41.016
0.603,-0.472,0.362,23.743,31.860,-42.297
0.617,-0.479,0.369,24.109,35.095,-43.701
0.631,-0.477,0.382,23.926,37.720,-44.922
0.647,-0.476,0.392,23.071,39.246,-46.021
0.677,-0.476,0.405,22.644,39.673,-46.936
0.705,-0.478,0.412,23.071,39.124,-47.974
0.722,-0.477,0.412,23.193,37.537,-48.340
0.743,-0.477,0.413,23.621,35.339,-47.913
0.771,-0.487,0.420,24.475,32.715,-46.692
0.798,-0.501,0.436,25.269,29.541,-45.044
0.822,-0.509,0.451,26.794,25.085,-43.518
0.838,-0.513,0.462,29.114,20.691,-42.053
0.839,-0.517,0.463,32.288,16.907,-40.100
0.833,-0.519,0.457,35.706,13.428,-37.781
0.834,-0.526,0.460,38.391,11.292,-34.546
0.848,-0.539,0.471,40.222,10.315,-30.334
0.862,-0.554,0.490,41.382,9.033,-26.062
0.865,-0.582,0.503,43.640,7.263,-22.034
0.866,-0.633,0.513,45.776,4.639,-18.005
0.863,-0.689,0.527,47.302,0.977,-14.343
0.867,-0.728,0.549,47.546,-2.686,-12.268
0.889,-0.746,0.578,47.607,-6.775,-12.695
0.917,-0.752,0.604,48.706,-12.024,-15.564
0.923,-0.740,0.616,50.110,-18.921,-19.348
0.934,-0.715,0.618,50.293,-26.611,-22.339
0.958,-0.677,0.615,50.781,-34.485,-23.987
0.976,-0.622,0.612,50.293,-43.091,-23.499
0.986,-0.567,0.606,48.950,-53.772,-20.325
0.968,-0.516,0.590,46.570,-66.772,-14.526
0.941,-0.481,0.566,43.152,-81.238,-6.775
0.909,-0.459,0.538,37.476,-96.375,2.502
0.867,-0.456,0.501,30.518,-111.633,13.123
0.815,-0.481,0.463,22.217,-126.160,23.010
0.761,-0.510,0.425,13.855,-137.329,31.189
0.691,-0.519,0.396,6.470,-144.409,36.621
0.623,-0.527,0.372,1.465,-146.545,39.185
0.571,-0.544,0.370,-1.038,-143.066,39.734
0.523,-0.557,0.375,-1.099,-134.705,38.574
0.498,-0.579,0.396,0.671,-122.253,36.377
0.484,-0.607,0.414,4.517,-107.117,33.325
0.487,-0.641,0.439,8.728,-90.271,30.029
0.531,-0.671,0.476,13.489,-73.853,25.940
0.597,-0.714,0.515,18.127,-60.059,20.874
0.686,-0.766,0.564,21.729,-49.805,14.343
0.825,-0.807,0.634,22.339,-44.983,7.263
0.951,-0.847,0.703,21.118,-51.331,0.122
1.074,-0.868,0.762,17.456,-69.641,-6.775
1.129,-0.841,0.777,11.658,-100.342,-12.878
1.033,-0.795,0.734,5.981,-136.719,-18.555
0.913,-0.736,0.665,1.221,-167.114,-21.667
0.768,-0.672,0.594,-2.075,-185.852,-21.118
0.601,-0.630,0.543,-2.869,-191.467,-17.883
0.450,-0.596,0.509,-2.991,-183.655,-12.817
0.328,-0.563,0.485,-3.418,-164.490,-7.019
0.235,-0.537,0.459,-3.784,-137.207,-1.953
0.171,-0.523,0.436,-3.967,-104.858,2.747
0.132,-0.512,0.422,-3.906,-68.970,6.409
0.120,-0.497,0.421,-2.808,-32.959,8.362
0.141,-0.489,0.432,-0.977,-0.122,9.277
0.196,-0.484,0.456,2.380,27.649,8.484
0.268,-0.488,0.480,6.287,47.607,6.775
0.366,-0.518,0.524,9.766,58.716,5.127
0.521,-0.534,0.595,11.658,56.824,3.906
0.636,-0.567,0.668,12.024,39.368,2.136
0.780,-0.639,0.757,8.179,8.667,-0.732
0.939,-0.656,0.807,-2.258,-37.964,-5.188
0.946,-0.640,0.765,-15.808,-96.680,-10.986
0.903,-0.678,0.727,-31.921,-152.344,-12.878
0.912,-0.715,0.726,-51.147,-205.017,-10.681
0.836,-0.687,0.664,-72.266,-256.897,-9.460
0.696,-0.676,0.575,-89.966,-296.631,-7.385

-0.057,-4.000,4.000,176.575,178.894,-13.367
1.979,-4.000,4.000,-44.189,269.165,-126.038
2.775,-2.078,3.209,-309.692,82.153,64.697
1.746,-0.099,1.809,-442.383,46.692,166.321
0.280,-0.405,1.499,-418.152,130.127,107.971
-0.474,-0.708,0.588,-306.030,148.804,86.853
-0.215,-0.952,0.238,-216.370,155.701,100.647
0.098,-1.029,0.177,-174.316,173.462,94.604
-0.035,-0.949,-0.150,-170.227,176.514,69.580
0.027,-0.867,-0.038,-183.838,183.350,55.298
-0.281,-0.567,-0.474,-199.829,178.772,55.969
-0.235,-0.455,-0.310,-198.120,210.815,73.486
-0.060,-0.455,-0.201,-190.674,220.337,81.909
-0.088,-0.408,-0.339,-182.373,209.961,74.951
-0.129,-0.328,-0.291,-173.096,213.501,64.819
-0.114,-0.258,-0.249,-166.321,214.661,59.143
-0.056,-0.182,-0.262,-159.729,209.839,55.786
-0.011,-0.098,-0.283,-151.001,203.552,53.345
0.089,-0.076,-0.258,-139.404,196.228,51.208
0.100,0.017,-0.207,-126.587,183.105,45.654
0.197,-0.004,-0.132,-110.962,163.818,45.410
0.324,-0.017,-0.111,-95.398,137.390,39.612
0.335,0.029,-0.089,-82.153,107.239,29.297
0.347,0.067,-0.012,-68.298,75.317,24.109
0.370,0.079,-0.022,-53.833,37.598,19.287
0.392,0.051,-0.024,-38.086,2.075,11.658
0.394,0.045,-0.012,-22.217,-30.273,0.488
0.386,0.024,-0.020,-5.371,-60.425,-10.071
0.382,-0.022,-0.004,13.000,-82.825,-21.851
0.413,-0.058,0.061,32.471,-99.731,-35.156
0.496,-0.110,0.106,53.345,-115.295,-47.729
0.561,-0.158,0.124,74.646,-126.709,-59.937
0.588,-0.204,0.179,95.215,-129.822,-69.275
0.599,-0.231,0.268,114.258,-128.296,-73.425
0.591,-0.276,0.296,133.545,-126.953,-72.510
0.612,-0.342,0.332,152.283,-123.718,-68.726
0.645,-0.418,0.362,169.617,-119.202,-64.392
0.657,-0.479,0.405,184.509,-114.746,-60.181
0.642,-0.501,0.434,195.618,-112.000,-56.763
0.639,-0.508,0.450,204.468,-111.145,-53.162
0.671,-0.533,0.469,211.914,-111.450,-49.988
0.707,-0.573,0.505,217.773,-113.159,-47.363
0.683,-0.613,0.520,221.863,-118.164,-44.861
0.618,-0.645,0.513,224.243,-124.634,-42.419
0.554,-0.676,0.501,225.586,-129.883,-39.978
0.517,-0.714,0.500,226.074,-132.080,-37.598
0.497,-0.768,0.506,226.257,-132.446,-35.156
0.464,-0.822,0.515,224.854,-131.653,-33.020
0.422,-0.854,0.515,222.290,-129.944,-32.410
0.409,-0.895,0.524,219.971,-125.977,-33.813
0.417,-0.933,0.538,216.553,-120.056,-37.354
0.412,-0.958,0.536,210.754,-112.183,-42.297
0.394,-0.966,0.543,203.308,-103.333,-46.997
0.377,-0.980,0.552,194.275,-94.910,-51.819
0.381,-0.992,0.554,183.289,-87.463,-57.007
0.401,-1.000,0.557,171.875,-79.956,-61.096
0.417,-1.002,0.575,159.485,-72.510,-63.599
0.424,-1.004,0.590,145.935,-66.895,-64.331
0.436,-1.009,0.599,132.507,-63.293,-63.110
0.446,-1.012,0.603,119.141,-61.218,-60.059
0.454,-1.016,0.613,105.591,-59.692,-55.176
0.460,-1.016,0.622,91.919,-58.594,-48.462
0.459,-1.013,0.623,77.515,-58.228,-40.527
0.452,-1.013,0.618,63.416,-57.983,-32.288
0.444,-1.021,0.608,49.866,-56.763,-24.292
0.438,-1.033,0.600,36.926,-54.565,-16.418
0.436,-1.062,0.599,25.208,-51.086,-8.728
0.431,-1.093,0.598,15.381,-46.875,-2.136
0.427,-1.125,0.602,7.019,-42.236,3.967
0.430,-1.153,0.614,2.563,-37.781,9.155
0.429,-1.168,0.625,1.282,-33.386,13.855
0.417,-1.159,0.638,2.197,-29.053,18.127
0.401,-1.123,0.643,4.578,-24.963,22.644
0.386,-1.079,0.645,7.385,-20.996,27.405
0.360,-1.015,0.629,8.728,-16.663,32.349
0.326,-0.954,0.602,7.935,-12.207,37.903
0.284,-0.902,0.567,5.615,-6.836,43.518
0.250,-0.864,0.527,1.160,0.061,49.438
0.232,-0.831,0.491,-5.554,8.972,54.871
0.238,-0.812,0.467,-13.855,18.799,59.387
0.266,-0.807,0.455,-23.254,28.381,62.317
0.304,-0.822,0.445,-32.654,35.889,63.171
0.342,-0.846,0.442,-41.992,40.466,62.744
0.374,-0.860,0.441,-51.208,41.504,61.279
0.406,-0.867,0.438,-59.998,39.001,58.777
0.442,-0.876,0.436,-66.833,33.875,55.664
0.474,-0.885,0.432,-72.083,26.855,52.246
0.490,-0.883,0.431,-75.684,18.311,48.035
0.499,-0.876,0.427,-77.026,8.850,42.908
0.511,-0.873,0.427,-76.355,-0.854,37.048
0.530,-0.873,0.434,-72.388,-10.010,30.151
0.551,-0.883,0.446,-65.918,-18.799,22.278
0.570,-0.889,0.459,-57.556,-27.283,13.123
0.578,-0.882,0.472,-46.631,-35.583,3.052
0.572,-0.876,0.484,-34.546,-42.969,-5.981
0.559,-0.866,0.493,-22.095,-49.072,-13.794
0.529,-0.839,0.488,-11.597,-54.321,-19.775
0.488,-0.799,0.474,-3.967,-56.885,-23.254
0.439,-0.763,0.452,1.160,-56.763,-24.109
0.390,-0.732,0.425,3.357,-53.162,-22.827
0.340,-0.698,0.399,2.686,-45.959,-19.897
0.297,-0.675,0.376,0.183,-35.095,-15.869
0.267,-0.654,0.358,-3.601,-21.729,-11.353
0.246,-0.647,0.350,-8.423,-6.775,-6.592
0.233,-0.643,0.347,-13.000,8.667,-2.258
0.237,-0.649,0.353,-16.907,23.926,1.892
0.259,-0.658,0.365,-19.897,37.476,5.554
0.289,-0.660,0.379,-21.851,48.950,7.935
0.314,-0.647,0.391,-22.583,57.495,9.644
0.340,-0.635,0.395,-23.254,62.866,10.925
0.369,-0.630,0.396,-23.621,65.430,11.536
0.397,-0.627,0.395,-23.254,66.040,11.597
0.423,-0.620,0.390,-22.827,64.575,10.864
0.448,-0.616,0.388,-21.606,61.707,9.155
0.471,-0.612,0.388,-20.325,57.373,6.287
0.492,-0.610,0.391,-19.348,52.246,2.747
0.511,-0.611,0.390,-17.944,45.593,-0.977
0.531,-0.622,0.391,-17.090,37.842,-4.272
0.570,-0.653,0.411,-16.968,29.419,-7.751

1.973,-3.631,4.000,309.082,-51.025,-28.076
3.547,-3.415,3.997,165.710,-234.436,-168.030
2.820,-3.291,3.828,-15.625,-320.312,3.906
0.753,-1.180,3.037,-135.315,-196.045,139.526
-0.039,-0.650,0.822,-201.111,-129.333,128.967
-0.423,-1.043,0.384,-194.031,-17.700,122.009
-0.102,-1.233,0.311,-180.664,56.152,88.196
0.087,-0.993,0.026,-176.025,65.369,45.837
-0.008,-0.638,-0.181,-173.889,82.703,42.480
-0.143,-0.435,-0.354,-176.270,101.746,56.702
-0.205,-0.418,-0.408,-176.819,125.183,78.186
-0.249,-0.429,-0.308,-173.889,148.071,92.834
-0.301,-0.333,-0.285,-167.847,157.104,98.389
-0.274,-0.191,-0.266,-162.720,161.194,104.126
-0.228,-0.115,-0.154,-158.020,164.246,113.220
-0.134,-0.137,-0.048,-151.550,155.518,124.512
-0.114,-0.144,-0.117,-145.264,136.841,130.981
-0.109,-0.075,-0.103,-140.442,122.803,132.935
-0.095,-0.047,-0.127,-134.583,106.934,135.925
-0.058,-0.005,-0.093,-126.709,93.262,136.780
-0.017,-0.012,-0.065,-117.310,78.308,136.780
-0.016,0.007,-0.073,-106.506,62.317,130.920
-0.031,0.027,-0.071,-94.238,49.927,121.216
-0.014,0.095,0.021,-80.688,39.673,107.056
-0.019,0.085,0.024,-65.369,24.597,91.919
-0.004,0.109,0.056,-49.316,10.315,69.946
-0.012,0.128,0.051,-33.630,-3.967,47.119
-0.009,0.127,0.061,-16.968,-15.320,26.611
0.021,0.088,0.086,0.549,-24.597,6.897
0.071,0.035,0.113,20.203,-32.166,-11.963
0.138,-0.006,0.166,40.955,-36.865,-31.860
0.231,-0.044,0.241,62.622,-40.039,-52.002
0.348,-0.086,0.324,85.327,-43.762,-71.167
0.448,-0.114,0.374,106.873,-48.706,-86.060
0.517,-0.221,0.403,125.977,-51.819,-94.482
0.577,-0.243,0.527,141.174,-52.979,-102.112
0.570,-0.300,0.480,153.442,-59.143,-102.966
0.571,-0.309,0.503,164.490,-58.899,-100.952
0.625,-0.387,0.624,172.607,-57.007,-97.656
0.616,-0.407,0.570,177.429,-60.181,-93.445
0.537,-0.416,0.519,179.565,-59.570,-89.355
0.500,-0.411,0.582,179.260,-51.147,-84.412
0.560,-0.468,0.622,179.016,-44.800,-78.247
0.647,-0.571,0.616,179.565,-42.542,-76.111
0.633,-0.590,0.607,180.237,-42.725,-80.261
0.601,-0.574,0.654,179.749,-42.664,-82.581
0.594,-0.591,0.678,177.917,-44.434,-77.698
0.607,-0.618,0.687,174.622,-48.645,-69.885
0.583,-0.648,0.666,171.509,-54.871,-60.608
0.536,-0.681,0.636,168.152,-59.814,-52.917
0.496,-0.703,0.614,164.185,-61.157,-47.729
0.438,-0.714,0.601,157.898,-58.044,-43.030
0.386,-0.724,0.586,150.452,-50.537,-39.490
0.359,-0.744,0.587,142.822,-37.476,-38.879
0.343,-0.752,0.610,135.315,-20.874,-40.344
0.336,-0.740,0.632,127.625,-4.822,-42.419
0.389,-0.759,0.667,122.009,10.864,-43.640
0.466,-0.811,0.700,118.835,25.085,-44.312
0.521,-0.848,0.730,116.760,34.790,-45.166
0.580,-0.867,0.761,114.441,39.307,-45.227
0.627,-0.870,0.775,111.023,38.696,-43.396
0.643,-0.857,0.769,105.957,33.264,-40.039
0.630,-0.834,0.745,98.450,25.879,-35.522
0.598,-0.808,0.712,88.806,18.616,-28.870
0.559,-0.790,0.676,77.271,12.390,-21.362
0.533,-0.788,0.654,64.880,9.277,-13.672
0.519,-0.799,0.645,52.063,8.667,-7.080
0.513,-0.814,0.639,39.490,10.071,-3.235
0.507,-0.825,0.634,27.222,12.634,-0.854
0.517,-0.852,0.635,15.808,15.686,0.793
0.540,-0.891,0.641,6.409,18.433,1.221
0.546,-0.906,0.634,-1.953,19.531,0.732
0.543,-0.907,0.624,-10.010,19.897,0.183
0.545,-0.905,0.606,-17.578,20.203,-0.122
0.547,-0.906,0.587,-24.109,21.484,0.183
0.544,-0.898,0.570,-28.015,24.048,0.244
0.548,-0.880,0.555,-29.114,28.198,0.244
0.573,-0.865,0.548,-27.588,33.875,0.305
0.594,-0.847,0.541,-24.109,40.344,1.160
0.604,-0.822,0.531,-19.836,46.448,2.869
0.615,-0.799,0.522,-15.686,52.734,4.822
0.624,-0.780,0.502,-12.146,60.181,7.446
0.636,-0.776,0.485,-9.338,69.153,11.536
0.644,-0.774,0.464,-7.568,78.430,16.296
0.642,-0.764,0.436,-7.935,87.891,21.545
0.646,-0.757,0.409,-10.071,98.083,27.100
0.671,-0.765,0.396,-13.672,108.093,32.593
0.708,-0.776,0.386,-18.066,116.150,36.987
0.744,-0.786,0.373,-22.827,121.338,40.283
0.769,-0.795,0.360,-28.076,123.962,42.603
0.788,-0.805,0.347,-33.508,124.146,44.128
0.809,-0.811,0.342,-38.818,121.399,44.556
0.838,-0.807,0.340,-44.556,115.112,43.884
0.878,-0.804,0.342,-49.438,104.919,42.114
0.915,-0.804,0.341,-53.101,90.820,38.757
0.938,-0.808,0.331,-54.688,73.792,33.813
0.943,-0.809,0.317,-54.932,56.030,27.527
0.948,-0.810,0.310,-53.528,39.001,20.081
0.954,-0.806,0.303,-50.842,23.926,12.085
0.948,-0.792,0.306,-46.265,10.559,4.517
0.929,-0.766,0.313,-41.321,-1.587,-1.526
0.896,-0.733,0.321,-36.011,-11.597,-5.493
0.849,-0.697,0.322,-30.579,-20.142,-7.507
0.804,-0.659,0.315,-25.635,-26.428,-7.263
0.766,-0.627,0.311,-21.912,-29.602,-4.700
0.715,-0.603,0.304,-18.982,-31.128,-1.892
0.650,-0.578,0.285,-17.151,-31.372,1.282
0.591,-0.557,0.265,-16.235,-28.748,4.761
0.555,-0.551,0.262,-14.771,-23.437,7.874
0.560,-0.554,0.280,-12.878,-17.334,10.193
0.557,-0.556,0.299,-10.742,-12.634,10.864
0.545,-0.552,0.313,-7.996,-9.460,9.521
0.542,-0.542,0.325,-6.104,-7.141,7.446
0.542,-0.537,0.329,-4.822,-5.310,5.676
0.539,-0.544,0.329,-4.211,-4.456,4.272
0.543,-0.555,0.328,-4.761,-4.089,3.052
0.546,-0.558,0.327,-7.263,-3.967,1.587
0.555,-0.568,0.327,-10.864,-4.517,0.305
0.573,-0.587,0.331,-14.282,-5.554,-0.977

-1.268,-4.000,4.000,76.538,204.956,-104.919
3.346,-3.529,2.927,-90.698,385.925,-48.584
3.345,-0.200,2.105,-244.446,278.809,148.193
2.271,-0.140,2.703,-295.776,332.520,126.343
1.196,-0.620,1.391,-275.208,278.137,105.652
0.499,-0.966,0.624,-198.792,219.055,145.569
0.272,-0.836,0.258,-161.316,176.758,151.855
0.241,-0.587,0.094,-150.818,159.424,145.752
0.179,-0.484,0.190,-149.414,151.001,143.921
0.112,-0.525,0.104,-154.785,128.235,137.024
0.077,-0.526,-0.116,-151.978,105.286,130.615
0.093,-0.463,-0.205,-141.785,96.802,128.479
0.107,-0.401,-0.168,-133.728,91.125,122.314
0.130,-0.350,-0.128,-129.395,80.078,107.422
0.132,-0.308,-0.112,-126.038,68.481,92.896
0.150,-0.251,-0.027,-123.657,62.195,82.153
0.227,-0.173,0.080,-121.826,52.734,73.669
0.189,-0.079,0.007,-117.676,35.583,65.063
0.094,0.017,-0.032,-109.924,27.771,57.434
0.214,0.015,0.109,-98.999,25.574,52.917
0.253,0.021,-0.052,-85.510,13.855,47.180
0.323,-0.049,0.025,-70.007,11.780,36.133
0.428,-0.060,0.079,-56.702,6.348,20.142
0.385,0.023,0.064,-42.603,-5.188,6.897
0.373,0.040,0.059,-27.039,-13.733,1.648
0.429,-0.014,0.068,-10.925,-19.714,-2.747
0.477,-0.098,0.093,4.028,-23.682,-8.423
0.530,-0.160,0.136,15.930,-24.475,-14.832
0.570,-0.188,0.172,24.292,-23.804,-21.118
0.647,-0.225,0.228,30.945,-21.790,-24.780
0.722,-0.291,0.242,34.851,-21.057,-26.550
0.796,-0.333,0.281,36.133,-19.409,-28.381
0.854,-0.383,0.311,34.973,-18.372,-27.893
0.874,-0.392,0.364,31.982,-18.372,-27.710
0.885,-0.364,0.369,28.259,-21.484,-26.306
0.877,-0.336,0.360,26.306,-23.926,-23.315
0.841,-0.303,0.376,25.269,-23.254,-20.264
0.812,-0.260,0.392,26.306,-22.217,-16.907
0.774,-0.227,0.396,29.053,-21.851,-12.573
0.737,-0.214,0.409,33.447,-21.301,-7.690
0.694,-0.214,0.418,38.452,-21.484,-3.906
0.662,-0.218,0.432,44.678,-22.461,-2.930
0.656,-0.238,0.457,51.941,-24.170,-3.235
0.652,-0.257,0.479,60.303,-28.015,-4.883
0.634,-0.268,0.501,68.542,-34.546,-7.812
0.622,-0.290,0.539,76.050,-42.114,-9.888
0.615,-0.318,0.581,81.909,-49.622,-11.047
0.594,-0.351,0.604,86.304,-57.556,-11.292
0.555,-0.388,0.614,87.463,-65.247,-10.315
0.508,-0.422,0.618,85.754,-70.923,-10.132
0.491,-0.462,0.628,81.177,-73.425,-11.230
0.506,-0.516,0.648,73.303,-72.083,-13.611
0.536,-0.558,0.652,63.049,-68.542,-18.066
0.550,-0.565,0.638,51.575,-64.087,-25.635
0.581,-0.569,0.638,41.016,-57.678,-34.546
0.604,-0.569,0.626,32.227,-50.598,-44.250
0.602,-0.561,0.594,24.963,-43.457,-52.917
0.626,-0.556,0.570,19.592,-35.461,-59.509
0.667,-0.547,0.552,16.846,-27.405,-64.758
0.681,-0.531,0.529,15.869,-20.020,-68.115
0.694,-0.528,0.521,16.541,-12.817,-68.604
0.714,-0.533,0.524,17.029,-5.737,-64.697
0.725,-0.533,0.518,16.846,-0.854,-58.105
0.724,-0.537,0.493,17.090,2.930,-51.758
0.714,-0.549,0.467,17.883,9.338,-45.959
0.690,-0.552,0.449,17.151,18.921,-39.978
0.658,-0.550,0.423,15.259,29.663,-33.752
0.631,-0.564,0.394,12.573,42.664,-27.405
0.640,-0.600,0.387,8.606,58.350,-21.667
0.655,-0.635,0.376,4.578,73.669,-16.785
0.695,-0.672,0.377,1.221,87.219,-13.733
0.744,-0.691,0.366,-1.953,98.083,-13.123
0.808,-0.690,0.364,-3.357,106.079,-14.160
0.907,-0.689,0.365,-1.465,110.718,-16.052
0.995,-0.687,0.368,2.930,111.084,-18.616
1.054,-0.673,0.378,8.362,106.750,-20.386
1.100,-0.635,0.380,14.648,97.717,-19.836
1.151,-0.594,0.388,20.935,85.327,-16.296
1.191,-0.568,0.404,27.710,69.580,-10.559
1.193,-0.548,0.411,33.936,50.842,-3.601
1.169,-0.537,0.406,38.147,30.273,4.272
1.129,-0.534,0.396,40.161,10.132,13.062
1.070,-0.536,0.362,39.368,-8.301,22.034
1.003,-0.552,0.324,36.072,-23.804,30.518
0.928,-0.566,0.286,30.945,-34.180,36.804
0.849,-0.575,0.251,25.269,-38.513,40.710
0.786,-0.575,0.230,18.860,-37.048,42.664
0.747,-0.576,0.222,13.489,-30.762,43.518
0.728,-0.582,0.218,9.521,-21.606,43.579
0.730,-0.597,0.219,7.507,-10.803,43.091
0.749,-0.621,0.217,7.751,-0.610,41.138
0.783,-0.644,0.220,9.827,9.583,38.025
0.820,-0.661,0.231,12.573,18.372,34.058
0.862,-0.677,0.243,15.991,24.170,29.602
0.913,-0.693,0.257,18.982,27.100,24.902
0.962,-0.703,0.280,21.301,27.039,20.264
1.001,-0.704,0.302,22.705,23.010,15.686
1.027,-0.697,0.315,23.437,15.198,11.841
1.033,-0.680,0.321,22.644,5.249,9.033
1.023,-0.647,0.326,20.752,-5.432,7.507
0.987,-0.604,0.323,17.761,-15.930,7.507
0.943,-0.556,0.319,14.282,-25.879,8.850
0.894,-0.509,0.312,11.536,-33.936,11.047
0.837,-0.473,0.308,9.216,-39.551,13.489
0.781,-0.438,0.303,7.812,-43.152,15.808
0.744,-0.412,0.307,7.507,-44.739,17.334
0.722,-0.386,0.326,7.935,-44.678,18.494
0.698,-0.360,0.352,9.766,-45.044,19.531
0.678,-0.342,0.374,12.451,-46.387,20.508
0.652,-0.334,0.385,15.076,-48.218,20.996
0.620,-0.339,0.392,17.883,-49.866,20.630
0.586,-0.358,0.397,20.142,-50.232,19.409
0.575,-0.383,0.410,21.118,-49.316,17.456
0.561,-0.400,0.424,21.606,-48.828,14.465
0.541,-0.409,0.433,20.630,-48.462,10.742
0.525,-0.421,0.433,19.043,-48.462,6.470
0.520,-0.435,0.429,16.907,-47.302,1.953
0.510,-0.449,0.424,13.672,-44.800,-2.441
0.500,-0.455,0.412,8.972,-40.649,-6.104

1.247,-3.973,4.000,-133.301,785.828,97.412
4.000,0.144,2.363,-370.972,720.581,230.713
3.606,1.624,1.332,-391.418,525.024,268.188
1.762,0.456,1.122,-273.010,445.129,195.923
0.972,-0.778,0.881,-146.240,324.585,198.242
0.857,-1.054,0.489,-98.389,203.979,200.012
0.881,-1.012,0.386,-110.413,125.671,171.448
0.694,-0.792,0.334,-132.202,59.937,130.737
0.564,-0.586,0.046,-140.076,-7.568,107.849
0.577,-0.533,-0.109,-138.672,-65.430,101.868
0.538,-0.370,-0.145,-132.507,-106.384,91.248
0.465,-0.303,-0.233,-120.483,-140.564,80.383
0.326,-0.290,-0.171,-106.995,-150.330,66.772
0.145,-0.250,-0.122,-101.440,-142.090,54.504
0.029,-0.169,-0.104,-101.379,-117.920,45.593
0.050,-0.097,-0.073,-102.234,-86.853,38.635
0.116,-0.035,-0.106,-100.769,-58.105,33.203
0.186,-0.001,-0.102,-95.520,-28.809,31.311
0.252,0.001,-0.083,-86.426,-3.662,29.724
0.330,-0.003,-0.056,-73.975,14.587,25.085
0.400,0.002,-0.029,-59.570,26.062,18.311
0.459,0.009,0.002,-44.373,31.799,11.108
0.494,0.010,0.027,-28.687,32.471,3.479
0.508,-0.000,0.051,-14.709,30.029,-3.357
0.531,-0.025,0.078,-3.174,26.184,-9.949
0.564,-0.072,0.106,5.859,21.362,-17.090
0.595,-0.135,0.132,12.817,16.907,-23.987
0.631,-0.194,0.154,17.090,13.489,-30.640
0.674,-0.241,0.173,18.982,11.414,-36.499
0.725,-0.278,0.189,18.738,10.803,-40.833
0.790,-0.318,0.211,16.846,11.475,-43.884
0.843,-0.350,0.222,13.733,11.658,-45.959
0.878,-0.359,0.231,9.949,10.071,-46.570
0.884,-0.351,0.234,6.714,6.042,-45.227
0.882,-0.337,0.241,5.005,0.610,-41.992
0.867,-0.314,0.253,5.066,-6.897,-38.269
0.837,-0.298,0.253,7.324,-16.235,-33.630
0.801,-0.294,0.256,11.292,-26.245,-28.442
0.774,-0.313,0.257,15.869,-34.668,-24.414
0.742,-0.345,0.255,20.508,-40.161,-22.827
0.694,-0.368,0.249,23.987,-42.480,-23.315
0.662,-0.405,0.238,26.978,-40.649,-25.330
0.678,-0.451,0.237,29.175,-35.217,-28.931
0.708,-0.482,0.249,30.579,-27.283,-33.691
0.736,-0.498,0.269,31.494,-18.982,-39.246
0.758,-0.493,0.291,32.593,-11.719,-44.312
0.783,-0.486,0.313,32.959,-5.981,-46.692
0.808,-0.481,0.320,33.386,-3.357,-46.265
0.825,-0.488,0.326,33.081,-2.136,-43.701
0.835,-0.502,0.332,32.043,-1.648,-40.405
0.841,-0.517,0.333,30.823,-1.221,-38.574
0.853,-0.522,0.339,30.029,-0.854,-38.452
0.883,-0.523,0.352,30.029,0.488,-39.063
0.902,-0.523,0.361,31.250,2.075,-39.795
0.911,-0.523,0.361,32.471,3.540,-39.856
0.919,-0.516,0.358,33.447,4.395,-38.208
0.915,-0.515,0.349,34.119,5.432,-35.095
0.912,-0.517,0.342,33.875,6.958,-30.334
0.902,-0.519,0.331,31.921,8.972,-24.353
0.897,-0.520,0.314,29.541,11.047,-18.677
0.896,-0.518,0.302,27.222,13.550,-13.977
0.887,-0.524,0.295,25.574,16.846,-9.766
0.878,-0.543,0.288,24.109,20.447,-5.493
0.886,-0.574,0.291,22.705,23.315,-2.319
0.901,-0.615,0.301,20.935,25.513,1.038
0.916,-0.647,0.309,19.714,25.696,3.174
0.946,-0.665,0.322,19.714,24.292,3.784
0.986,-0.669,0.341,21.057,21.851,3.052
1.016,-0.658,0.355,23.926,17.944,1.343
1.033,-0.637,0.359,27.588,12.817,-0.061
1.046,-0.619,0.357,30.945,6.897,0.061
1.051,-0.594,0.359,33.020,0.610,2.014
1.029,-0.548,0.354,33.630,-5.737,6.287
0.993,-0.499,0.354,33.691,-11.719,12.634
0.943,-0.458,0.351,33.569,-17.822,20.142
0.892,-0.437,0.344,32.837,-23.071,28.320
0.828,-0.435,0.323,30.579,-27.161,36.682
0.760,-0.448,0.300,26.611,-29.236,44.128
0.706,-0.475,0.279,20.508,-27.954,49.683
0.670,-0.500,0.257,12.390,-23.804,52.490
0.645,-0.504,0.234,4.089,-17.761,52.612
0.625,-0.505,0.215,-3.540,-10.315,50.293
0.613,-0.501,0.203,-9.338,-1.953,46.204
0.619,-0.500,0.193,-12.268,7.080,41.016
0.637,-0.504,0.186,-12.634,15.625,35.217
0.658,-0.516,0.180,-11.414,22.949,28.992
0.702,-0.528,0.177,-8.301,28.992,21.912
0.759,-0.555,0.153,-4.089,33.813,14.282
0.837,-0.600,0.109,-1.892,38.757,7.874
0.902,-0.639,0.118,-4.089,46.570,3.784
0.917,-0.650,0.196,-10.620,56.946,-0.366
0.886,-0.638,0.244,-17.029,67.017,-6.470
0.890,-0.605,0.244,-22.522,76.416,-12.085
0.929,-0.556,0.209,-26.855,84.839,-13.428
0.970,-0.508,0.168,-28.198,90.698,-11.475
0.985,-0.468,0.129,-26.367,93.933,-8.301
0.978,-0.442,0.106,-22.949,95.337,-3.967
0.960,-0.422,0.103,-20.264,95.886,1.160
0.932,-0.397,0.101,-17.639,95.459,6.470
0.913,-0.377,0.098,-14.709,93.506,10.864
0.903,-0.362,0.103,-12.085,90.759,14.282
0.881,-0.350,0.110,-9.949,86.731,16.663
0.874,-0.344,0.115,-8.118,81.726,17.700
0.879,-0.348,0.114,-6.287,75.195,17.578
0.882,-0.349,0.113,-5.371,67.993,17.395
0.878,-0.348,0.114,-5.676,59.875,16.846
0.870,-0.353,0.112,-6.714,51.086,16.052
0.874,-0.369,0.102,-7.935,41.992,15.076
0.877,-0.382,0.099,-8.667,33.569,13.550
0.879,-0.384,0.099,-8.972,25.085,10.803
0.880,-0.385,0.094,-8.362,16.846,7.385
0.889,-0.386,0.087,-7.751,9.277,3.845
0.893,-0.380,0.074,-6.653,2.136,0.488
0.889,-0.377,0.053,-5.249,-4.211,-2.136
0.887,-0.386,0.032,-3.601,-9.216,-3.357
0.878,-0.398,0.015,-2.441,-12.817,-4.395
0.869,-0.414,0.000,-1.770,-15.076,-6.226
0.860,-0.422,-0.015,-1.648,-15.747,-8.362
0.845,-0.429,-0.037,-0.732,-14.404,-10.925

4.000,-0.453,1.066,-100.647,85.083,99.548
4.000,-0.559,2.308,-90.393,141.052,355.225
2.401,0.126,1.641,-161.499,192.627,265.564
0.141,-0.169,0.555,-147.034,202.148,196.106
-0.104,-0.665,-0.179,-104.309,238.525,172.241
0.258,-0.661,-0.506,-84.534,275.269,94.482
0.392,-0.544,-0.669,-70.801,287.598,30.579
0.220,-0.450,-0.743,-54.749,289.062,7.202
0.161,-0.420,-0.780,-42.969,295.410,-1.953
0.129,-0.311,-0.610,-25.085,311.829,-7.507
0.303,-0.160,-0.354,-0.549,316.589,-7.507
0.371,-0.150,-0.183,29.053,296.570,-0.183
0.467,-0.209,-0.093,52.124,258.118,7.874
0.598,-0.251,-0.082,64.697,204.834,11.902
0.666,-0.273,-0.002,68.604,149.536,19.653
0.599,-0.220,0.054,67.749,93.933,24.597
0.527,-0.214,0.027,69.458,36.316,32.898
0.495,-0.254,-0.040,69.580,-17.578,39.673
0.472,-0.325,-0.094,65.125,-60.852,41.199
0.385,-0.309,-0.109,55.054,-94.971,36.621
0.345,-0.297,-0.180,43.457,-124.329,29.785
0.396,-0.307,-0.264,31.555,-146.057,19.531
0.375,-0.257,-0.308,20.142,-159.973,6.836
0.340,-0.203,-0.325,12.451,-168.152,-2.502
0.340,-0.186,-0.345,8.972,-173.767,-10.010
0.356,-0.211,-0.365,7.141,-175.415,-18.005
0.367,-0.241,-0.377,5.127,-171.631,-26.123
0.385,-0.273,-0.384,2.136,-162.903,-34.241
0.422,-0.318,-0.389,-1.709,-150.757,-41.809
0.485,-0.363,-0.398,-7.812,-135.742,-48.523
0.570,-0.399,-0.408,-15.320,-119.019,-54.504
0.639,-0.411,-0.418,-23.315,-102.539,-59.448
0.699,-0.409,-0.415,-30.396,-86.487,-62.256
0.758,-0.401,-0.397,-36.377,-72.449,-62.500
0.813,-0.401,-0.367,-40.405,-61.646,-60.974
0.861,-0.388,-0.330,-43.701,-55.298,-59.021
0.880,-0.356,-0.300,-44.556,-53.467,-56.702
0.883,-0.327,-0.269,-42.664,-54.871,-53.040
0.889,-0.307,-0.230,-38.269,-58.899,-48.401
0.895,-0.302,-0.194,-31.677,-66.284,-43.518
0.903,-0.329,-0.172,-23.010,-76.172,-39.246
0.922,-0.380,-0.158,-15.015,-86.121,-36.621
0.951,-0.420,-0.143,-7.996,-95.398,-36.194
0.966,-0.437,-0.125,-2.014,-104.431,-36.316
0.955,-0.449,-0.115,3.113,-113.525,-36.194
0.936,-0.470,-0.118,7.446,-119.873,-36.316
0.935,-0.491,-0.119,10.986,-121.887,-36.926
0.930,-0.497,-0.107,13.123,-119.507,-37.720
0.916,-0.494,-0.089,14.709,-114.746,-37.415
0.905,-0.505,-0.076,15.625,-108.704,-35.583
0.893,-0.516,-0.061,15.991,-100.647,-33.325
0.894,-0.511,-0.039,16.479,-91.248,-30.945
0.900,-0.499,-0.014,17.456,-81.482,-28.992
0.915,-0.501,0.010,19.470,-71.960,-27.283
0.935,-0.515,0.030,21.973,-63.599,-26.611
0.949,-0.528,0.050,23.560,-56.335,-26.917
0.953,-0.527,0.071,24.536,-50.110,-26.733
0.954,-0.513,0.088,26.001,-45.410,-25.269
0.960,-0.502,0.101,26.978,-42.358,-22.156
0.966,-0.506,0.112,27.710,-40.588,-17.944
0.965,-0.512,0.125,27.893,-39.490,-13.794
0.956,-0.508,0.129,26.855,-39.246,-10.620
0.944,-0.500,0.132,26.123,-39.429,-7.874
0.932,-0.497,0.129,25.696,-39.673,-5.432
0.919,-0.501,0.124,25.024,-38.391,-3.784
0.906,-0.506,0.120,24.536,-35.400,-3.235
0.904,-0.517,0.127,23.804,-31.006,-2.686
0.897,-0.547,0.131,23.315,-26.245,-1.465
0.887,-0.592,0.131,22.217,-21.301,-0.183
0.872,-0.624,0.130,20.935,-15.808,0.000
0.865,-0.651,0.129,19.226,-9.888,-0.793
0.871,-0.666,0.129,18.127,-3.967,-2.869
0.892,-0.669,0.134,17.700,1.770,-6.287
0.934,-0.656,0.141,18.005,6.409,-10.742
0.985,-0.626,0.151,19.104,9.033,-15.320
1.028,-0.588,0.160,21.057,8.911,-18.616
1.067,-0.536,0.170,22.278,6.104,-18.372
1.085,-0.484,0.180,24.170,0.183,-14.343
1.112,-0.437,0.196,26.489,-8.240,-6.897
1.133,-0.392,0.214,28.442,-20.691,2.563
1.117,-0.356,0.224,30.640,-37.231,14.038
1.066,-0.346,0.213,32.349,-55.298,25.085
0.999,-0.358,0.188,32.593,-71.838,34.668
0.927,-0.386,0.160,31.128,-83.984,42.480
0.850,-0.422,0.128,27.710,-91.309,47.607
0.778,-0.457,0.096,22.278,-93.445,50.476
0.722,-0.481,0.072,16.541,-90.637,51.025
0.689,-0.494,0.061,10.742,-83.435,49.683
0.673,-0.503,0.058,5.676,-73.975,46.814
0.682,-0.517,0.064,2.075,-63.477,42.786
0.744,-0.529,0.086,-0.732,-54.077,37.903
0.861,-0.537,0.117,-3.418,-49.988,33.691
0.959,-0.555,0.140,-5.066,-53.955,28.503
1.078,-0.578,0.167,-6.165,-64.392,23.010
1.277,-0.567,0.222,-7.263,-83.496,19.958
1.356,-0.560,0.247,-6.714,-114.990,18.433
1.315,-0.571,0.228,-4.333,-151.428,16.418
1.257,-0.570,0.202,-1.587,-182.251,14.771
1.175,-0.543,0.192,1.648,-203.796,13.367
1.057,-0.523,0.185,6.165,-215.027,11.841
0.923,-0.512,0.179,10.620,-215.881,10.071
0.811,-0.501,0.183,14.832,-206.360,8.301
0.757,-0.481,0.209,18.188,-188.782,7.507
0.729,-0.455,0.242,20.752,-169.189,8.850
0.698,-0.436,0.269,23.499,-151.428,11.414
0.669,-0.416,0.290,25.391,-135.803,15.076
0.635,-0.395,0.314,27.344,-121.948,19.043
0.628,-0.377,0.342,30.396,-109.314,22.888
0.622,-0.362,0.363,33.875,-99.365,26.184
0.628,-0.366,0.383,37.354,-92.712,28.076
0.699,-0.375,0.416,40.466,-90.271,29.602
0.765,-0.381,0.450,42.725,-96.008,31.067
0.763,-0.405,0.471,46.265,-109.985,30.396
0.784,-0.437,0.484,49.072,-128.418,28.687
0.784,-0.453,0.476,50.476,-149.963,25.757
0.720,-0.463,0.449,51.086,-172.852,20.813
0.628,-0.470,0.423,51.636,-191.284,14.771
0.539,-0.466,0.396,52.063,-202.148,8.972
0.456,-0.464,0.383,52.490,-204.102,3.296

-1.414,-3.709,4.000,112.183,36.316,-0.122
2.849,-4.000,4.000,-64.453,340.454,-116.089
4.000,-2.178,3.458,-357.666,92.896,129.028
2.362,0.125,2.225,-461.853,142.212,266.968
0.736,-0.074,1.508,-402.649,237.000,200.867
0.021,-0.472,0.465,-271.362,226.624,166.077
0.049,-0.770,0.189,-178.894,228.638,153.259
0.015,-0.754,-0.052,-144.653,229.614,133.118
0.182,-0.756,-0.145,-138.794,220.947,122.009
-0.039,-0.628,-0.456,-139.893,226.501,130.493
-0.044,-0.617,-0.293,-142.090,251.038,137.024
-0.324,-0.239,-0.365,-143.188,261.353,125.488
-0.225,-0.019,-0.238,-130.981,267.639,131.165
0.197,-0.290,-0.230,-108.948,261.780,141.602
0.203,-0.230,-0.219,-96.680,247.498,125.671
0.123,-0.099,-0.148,-91.125,232.788,123.535
0.137,-0.004,-0.054,-87.280,208.862,131.958
0.200,-0.019,-0.028,-84.045,177.917,138.306
0.365,-0.101,0.071,-82.275,142.700,137.085
0.398,0.004,0.161,-81.482,97.961,124.634
0.335,0.009,0.100,-76.965,46.387,116.577
0.297,0.061,0.130,-71.106,0.366,103.394
0.211,0.123,0.059,-63.232,-43.945,89.294
0.224,0.121,0.015,-52.124,-80.994,76.538
0.159,0.211,0.013,-40.344,-111.084,58.105
0.143,0.223,-0.040,-25.818,-136.414,45.837
0.166,0.149,-0.080,-9.155,-154.297,30.212
0.137,0.142,-0.082,6.897,-164.673,9.277
0.136,0.103,-0.075,23.621,-169.617,-7.690
0.160,0.069,-0.039,39.795,-167.908,-25.635
0.227,0.013,0.002,55.786,-161.987,-42.297
0.298,-0.067,0.003,71.106,-151.245,-58.533
0.415,-0.136,0.078,83.801,-131.958,-75.500
0.562,-0.185,0.169,93.811,-111.694,-88.013
0.687,-0.240,0.248,101.563,-95.642,-93.689
0.778,-0.298,0.320,106.262,-85.205,-94.604
0.846,-0.314,0.379,108.337,-82.520,-92.163
0.893,-0.297,0.415,108.582,-85.693,-84.961
0.909,-0.279,0.437,108.887,-91.492,-74.219
0.900,-0.286,0.455,109.314,-97.473,-61.829
0.878,-0.294,0.462,109.863,-103.394,-50.293
0.835,-0.311,0.467,109.985,-107.849,-39.001
