aX,aY,aZ,gX,gY,gZ
0.328,-2.109,0.484,-8.423,-2.197,-10.315
0.353,-2.205,0.511,-7.629,2.197,-13.000
0.380,-2.272,0.520,-6.897,6.775,-16.602
0.409,-2.302,0.532,-6.714,11.719,-21.667
0.428,-2.304,0.534,-7.141,16.968,-27.161
0.440,-2.291,0.537,-7.507,22.522,-32.166
0.431,-2.251,0.510,-9.521,27.893,-35.645
0.416,-2.168,0.486,-11.780,34.485,-37.720
0.405,-2.036,0.453,-13.977,42.358,-38.330
0.393,-1.876,0.427,-15.320,51.270,-37.415
0.368,-1.707,0.407,-14.771,60.181,-34.912
0.348,-1.550,0.397,-13.672,67.688,-31.494
0.341,-1.402,0.402,-13.672,73.853,-27.710
0.346,-1.237,0.404,-16.418,78.125,-24.841
0.361,-1.066,0.392,-20.325,79.834,-23.621
0.372,-0.885,0.370,-24.902,79.102,-23.987
0.383,-0.677,0.345,-29.236,76.904,-24.902
0.406,-0.465,0.331,-32.410,73.364,-24.841
0.423,-0.271,0.307,-34.119,67.505,-23.376
0.410,-0.115,0.279,-33.691,59.937,-20.447
0.378,0.002,0.243,-32.166,51.758,-15.991
0.333,0.140,0.219,-29.236,45.227,-9.338
0.324,0.189,0.216,-22.583,39.429,-2.136
0.287,0.258,0.185,-16.174,32.715,4.028
0.215,0.289,0.172,-9.155,30.334,14.954
0.149,0.275,0.156,-2.319,28.015,25.208
0.100,0.231,0.125,4.089,27.283,34.607
0.069,0.182,0.121,8.911,28.931,42.480
0.040,0.118,0.117,12.085,31.006,47.729
0.030,0.071,0.136,12.329,33.203,50.354
0.022,0.037,0.131,10.803,34.302,50.415
0.039,0.002,0.133,8.484,34.607,47.974
0.071,-0.039,0.139,4.578,33.936,44.373
0.104,-0.066,0.111,0.183,31.250,39.185
0.131,-0.095,0.089,-4.761,28.076,33.752
0.151,-0.097,0.063,-10.315,24.780,28.870
0.168,-0.082,0.039,-14.648,20.508,25.085
0.182,-0.078,0.024,-17.517,16.418,23.376
0.194,-0.081,0.021,-19.348,12.390,23.682
0.214,-0.088,0.013,-20.874,8.118,25.940
0.228,-0.111,0.006,-21.851,3.845,29.663
0.228,-0.146,0.001,-22.400,0.244,34.607
0.226,-0.195,0.000,-21.973,-2.014,40.100
0.238,-0.254,0.015,-20.325,-3.906,45.105
0.273,-0.342,0.042,-16.907,-6.287,49.133
0.325,-0.452,0.076,-11.719,-10.071,51.270
0.388,-0.552,0.117,-5.676,-15.747,50.598
0.443,-0.652,0.155,1.160,-23.682,48.462
0.465,-0.773,0.187,9.460,-33.203,46.753
0.447,-0.906,0.206,18.005,-42.053,47.424
0.417,-1.034,0.215,25.574,-47.546,51.514
0.380,-1.156,0.227,31.006,-48.889,57.251
0.328,-1.291,0.241,34.485,-44.800,63.049
0.292,-1.444,0.269,37.781,-34.668,66.528
0.281,-1.645,0.296,44.006,-20.020,66.101
0.294,-1.894,0.341,50.659,-3.723,60.608
0.350,-2.097,0.404,53.345,12.634,48.096
0.482,-2.183,0.461,50.110,27.283,28.076
0.656,-2.125,0.493,42.603,37.598,1.953
0.782,-1.936,0.501,32.593,41.748,-26.123
0.839,-1.716,0.504,23.743,39.612,-51.819
0.853,-1.505,0.482,17.578,32.043,-68.665
0.826,-1.339,0.445,14.282,22.461,-75.012
0.787,-1.210,0.408,13.123,13.977,-74.280
0.760,-1.106,0.383,12.756,8.301,-69.214
0.733,-1.039,0.352,12.390,5.737,-60.791
0.672,-0.999,0.320,12.390,7.324,-50.964
0.617,-0.988,0.313,12.207,13.367,-40.833
0.589,-0.995,0.288,11.841,20.630,-32.532
0.556,-1.001,0.275,10.193,28.137,-26.184
0.541,-1.004,0.277,6.897,34.973,-21.606
0.541,-0.986,0.274,1.709,37.109,-18.738
0.531,-0.950,0.268,-4.395,35.583,-16.418
0.511,-0.916,0.262,-10.925,31.372,-14.221
0.491,-0.883,0.254,-16.724,24.231,-12.634
0.470,-0.840,0.240,-21.484,14.832,-11.841
0.450,-0.791,0.226,-24.536,4.517,-10.620
0.426,-0.738,0.223,-24.475,-5.859,-8.362
0.408,-0.678,0.223,-20.386,-15.869,-5.676
0.391,-0.618,0.218,-13.550,-25.513,-3.296
0.370,-0.575,0.216,-4.272,-33.081,-0.854
0.343,-0.571,0.234,6.775,-38.025,1.831
0.320,-0.577,0.226,17.029,-40.771,4.395
0.293,-0.602,0.222,26.733,-41.077,6.897
0.258,-0.659,0.214,34.851,-39.429,10.132
0.230,-0.750,0.214,41.077,-35.400,14.343
0.212,-0.868,0.228,45.288,-30.029,18.799
0.195,-0.988,0.246,47.974,-24.597,21.667
0.180,-1.094,0.267,47.363,-19.897,22.461
0.157,-1.136,0.275,44.373,-16.174,21.423
0.144,-1.271,0.287,39.917,-12.390,20.142
0.155,-1.279,0.266,32.593,-10.132,13.184
0.159,-1.265,0.249,24.353,-6.958,8.667
0.155,-1.240,0.219,16.602,-2.686,3.967
0.170,-1.202,0.198,9.033,1.831,-0.610
0.186,-1.164,0.214,2.380,6.042,-3.540
0.207,-1.110,0.201,-3.601,6.226,-7.019
0.234,-1.014,0.185,-7.935,6.409,-9.888
0.253,-0.928,0.186,-9.888,7.568,-11.108
0.270,-0.860,0.185,-9.094,6.958,-12.146
0.283,-0.804,0.178,-6.958,5.188,-12.390
0.296,-0.768,0.177,-3.052,2.930,-11.963
0.307,-0.743,0.171,1.526,0.305,-10.498
0.311,-0.737,0.166,6.165,-2.197,-8.118
0.311,-0.749,0.171,11.108,-5.188,-5.615
0.313,-0.775,0.184,15.747,-7.935,-3.723
0.311,-0.792,0.192,19.104,-11.169,-3.052
0.311,-0.800,0.205,21.362,-15.259,-2.808
0.317,-0.819,0.208,22.827,-20.020,-2.869
0.326,-0.847,0.215,23.865,-24.841,-3.174
0.334,-0.875,0.217,24.292,-29.907,-3.784
0.339,-0.896,0.219,23.865,-34.851,-5.371
0.333,-0.920,0.211,22.888,-39.368,-6.897
0.322,-0.950,0.202,21.851,-42.847,-8.179
0.320,-0.974,0.199,20.874,-44.617,-9.033
0.315,-0.992,0.195,19.958,-44.922,-9.827
0.309,-1.006,0.193,19.287,-43.762,-10.681
0.322,-1.021,0.193,18.555,-41.077,-11.292
0.334,-1.033,0.194,18.311,-37.598,-12.695

0.534,-2.162,0.412,-7.751,-14.221,25.391
0.624,-2.306,0.452,-10.925,-22.400,33.020
0.653,-2.418,0.487,-17.090,-31.860,40.344
0.637,-2.537,0.500,-23.804,-41.626,44.250
0.608,-2.625,0.482,-31.738,-47.913,45.227
0.583,-2.640,0.447,-41.199,-47.668,41.748
0.562,-2.559,0.410,-52.551,-41.199,33.875
0.545,-2.436,0.407,-63.782,-29.480,23.193
0.533,-2.272,0.405,-73.364,-13.794,11.047
0.525,-2.078,0.410,-78.735,3.662,-1.160
0.517,-1.882,0.420,-79.407,22.400,-12.146
0.507,-1.689,0.424,-77.271,41.382,-21.606
0.506,-1.477,0.426,-73.120,59.998,-28.687
0.519,-1.263,0.420,-67.200,77.148,-33.142
0.528,-1.089,0.394,-60.120,91.675,-35.461
0.473,-0.952,0.342,-55.603,105.103,-36.682
0.379,-0.792,0.261,-58.044,118.469,-36.560
0.311,-0.608,0.162,-65.857,134.033,-34.973
0.234,-0.433,0.054,-76.599,152.039,-31.677
0.134,-0.252,-0.046,-88.196,172.607,-27.100
0.067,-0.080,-0.136,-100.647,195.129,-22.095
0.081,0.078,-0.207,-111.084,216.797,-15.930
0.182,0.223,-0.201,-116.394,232.117,-7.324
0.330,0.352,-0.113,-113.586,231.934,5.737
0.434,0.441,-0.011,-102.844,209.167,24.353
0.462,0.452,0.077,-84.595,165.588,43.701
0.431,0.389,0.136,-62.012,110.596,59.509
0.375,0.287,0.146,-39.063,51.819,69.519
0.302,0.197,0.116,-19.592,-4.089,72.937
0.220,0.147,0.063,-5.615,-52.185,70.374
0.141,0.108,-0.002,4.333,-90.088,63.416
0.063,0.055,-0.061,12.207,-115.479,53.528
-0.002,0.007,-0.109,17.395,-128.479,41.382
-0.044,-0.021,-0.147,20.630,-130.127,28.442
-0.066,-0.032,-0.173,22.278,-122.559,15.625
-0.071,-0.028,-0.190,22.339,-107.483,4.150
-0.068,-0.018,-0.188,22.766,-87.341,-4.517
-0.052,-0.010,-0.174,23.499,-64.514,-10.681
-0.022,-0.006,-0.152,24.902,-41.382,-14.099
0.021,-0.012,-0.120,27.100,-19.897,-14.099
0.066,-0.026,-0.082,29.968,-2.075,-11.658
0.102,-0.045,-0.043,32.837,11.841,-7.141
0.132,-0.063,-0.007,35.767,21.851,-2.319
0.165,-0.092,0.023,39.185,28.015,3.174
0.207,-0.149,0.054,42.969,30.579,8.606
0.255,-0.213,0.087,47.241,29.785,13.000
0.305,-0.266,0.124,52.124,26.001,15.564
0.368,-0.312,0.168,57.739,19.043,16.418
0.442,-0.375,0.209,65.369,8.179,15.076
0.509,-0.473,0.241,75.012,-6.042,12.268
0.552,-0.587,0.260,85.571,-23.132,9.216
0.576,-0.715,0.279,96.863,-40.771,6.775
0.585,-0.862,0.280,106.934,-57.983,7.141
0.591,-1.018,0.283,113.953,-73.303,10.925
0.574,-1.184,0.305,117.004,-85.571,17.761
0.519,-1.378,0.321,114.502,-95.398,28.137
0.444,-1.586,0.331,105.896,-102.417,39.551
0.375,-1.778,0.327,92.529,-104.919,47.791
0.338,-1.968,0.328,76.050,-101.196,50.720
0.328,-2.120,0.331,57.434,-91.736,47.119
0.373,-2.191,0.343,37.903,-78.247,35.278
0.497,-2.151,0.377,20.325,-61.829,14.954
0.624,-1.995,0.388,6.714,-46.143,-11.719
0.690,-1.790,0.406,-0.427,-33.264,-40.771
0.697,-1.654,0.422,-0.061,-24.292,-64.697
0.702,-1.583,0.432,5.615,-18.433,-79.468
0.702,-1.551,0.452,13.855,-13.123,-86.792
0.683,-1.519,0.471,21.790,-8.423,-89.722
0.677,-1.475,0.493,27.405,-4.211,-90.393
0.682,-1.403,0.489,30.151,-0.854,-89.905
0.675,-1.317,0.468,30.029,2.869,-87.585
0.670,-1.239,0.448,27.405,6.470,-83.618
0.657,-1.170,0.408,23.499,8.118,-78.064
0.633,-1.101,0.369,17.517,8.789,-71.594
0.618,-1.022,0.351,10.193,8.728,-63.965
0.596,-0.919,0.316,2.502,6.592,-56.030
0.566,-0.820,0.286,-4.211,4.883,-45.715
0.534,-0.756,0.269,-9.277,3.418,-33.936
0.504,-0.709,0.250,-12.939,2.075,-21.851
0.482,-0.677,0.244,-15.137,0.916,-9.766
0.461,-0.641,0.240,-16.602,-0.854,1.404
0.439,-0.605,0.233,-16.479,-3.723,13.000
0.419,-0.583,0.228,-15.076,-6.592,24.780
0.396,-0.578,0.221,-12.512,-9.460,35.461
0.370,-0.615,0.221,-9.094,-12.634,44.617
0.336,-0.661,0.211,-6.104,-16.418,51.575
0.303,-0.726,0.204,-4.211,-19.348,56.641
0.266,-0.809,0.188,-3.235,-21.423,58.655
0.221,-0.838,0.226,-3.723,-22.339,60.425
0.186,-0.952,0.213,-3.601,-24.841,60.852
0.169,-0.966,0.208,-6.042,-24.841,55.725
0.149,-0.996,0.199,-6.836,-25.330,53.406
0.127,-0.992,0.194,-7.568,-23.376,48.096
0.119,-1.045,0.211,-6.897,-22.278,43.335
0.119,-1.062,0.199,-6.653,-22.034,34.363
0.136,-1.048,0.174,-5.066,-20.752,24.414
0.173,-1.041,0.203,-2.502,-17.395,14.832
0.204,-1.026,0.209,0.549,-16.663,3.845
0.226,-1.019,0.208,4.150,-16.846,-6.226
0.254,-1.001,0.208,7.812,-17.334,-15.198
0.294,-0.972,0.210,11.353,-18.433,-21.362
0.337,-0.954,0.227,15.076,-20.020,-24.292
0.369,-0.935,0.230,18.250,-23.010,-25.574
0.380,-0.919,0.230,20.813,-26.489,-25.208
0.381,-0.889,0.236,22.278,-29.419,-23.865
0.375,-0.855,0.222,22.644,-31.982,-20.630
0.365,-0.842,0.222,22.461,-32.532,-15.442
0.347,-0.853,0.216,21.667,-32.288,-9.949
0.331,-0.862,0.222,20.264,-31.372,-5.371
0.321,-0.871,0.232,18.311,-29.724,-1.526
0.313,-0.874,0.232,16.846,-28.015,2.380
0.301,-0.888,0.236,15.320,-25.269,6.348
0.298,-0.908,0.240,13.855,-22.522,9.338
0.300,-0.914,0.236,12.451,-20.081,11.658
0.293,-0.921,0.232,10.864,-17.761,14.038
0.291,-0.925,0.226,9.399,-15.259,16.235
0.287,-0.928,0.218,8.301,-13.306,18.494
0.272,-0.938,0.212,6.653,-10.925,20.081
0.256,-0.946,0.206,5.188,-8.728,20.325

0.504,-2.167,0.388,10.986,8.118,19.897
0.567,-2.362,0.410,13.306,3.174,17.761
0.615,-2.571,0.432,11.230,-1.465,13.367
0.653,-2.753,0.421,3.357,-5.493,5.676
0.686,-2.836,0.379,-11.353,-7.263,-3.235
0.700,-2.819,0.334,-30.457,-5.859,-13.672
0.701,-2.751,0.288,-51.270,-0.305,-24.048
0.710,-2.641,0.238,-69.824,9.155,-32.654
0.725,-2.493,0.206,-84.045,22.095,-38.696
0.734,-2.296,0.198,-93.933,36.987,-42.297
0.731,-2.039,0.216,-98.999,52.429,-43.701
0.729,-1.758,0.251,-97.351,66.772,-42.847
0.723,-1.495,0.290,-90.942,78.796,-40.222
0.706,-1.257,0.303,-81.909,89.050,-36.865
0.690,-1.075,0.303,-71.594,97.900,-33.081
0.673,-0.940,0.298,-62.012,105.225,-28.809
0.647,-0.844,0.282,-53.955,110.901,-24.902
0.592,-0.739,0.258,-49.744,114.075,-20.691
0.525,-0.604,0.227,-50.964,116.211,-13.123
0.480,-0.484,0.197,-55.115,118.347,-3.235
0.438,-0.384,0.151,-62.317,120.544,6.531
0.378,-0.311,0.121,-70.618,123.047,14.954
0.297,-0.217,0.076,-78.674,124.634,19.470
0.237,-0.091,0.046,-84.167,125.977,20.752
0.217,0.064,0.034,-86.731,126.648,20.935
0.221,0.214,0.034,-83.130,124.817,22.095
0.205,0.346,-0.015,-71.716,119.141,24.475
0.214,0.372,0.092,-55.786,111.572,29.602
0.181,0.422,0.084,-37.781,93.018,31.555
0.185,0.419,0.112,-16.296,73.242,34.729
0.199,0.403,0.146,4.028,50.781,37.842
0.195,0.341,0.146,22.766,25.757,39.185
0.181,0.255,0.132,36.987,1.038,39.001
0.163,0.193,0.094,46.143,-21.973,36.621
0.150,0.144,0.071,50.598,-40.161,33.630
0.138,0.110,0.043,51.331,-53.833,29.907
0.132,0.067,0.013,49.561,-63.660,26.123
0.142,0.035,-0.006,45.532,-69.702,21.912
0.149,0.031,-0.031,39.490,-73.181,18.494
0.151,0.035,-0.055,33.203,-74.036,17.395
0.151,0.032,-0.073,27.649,-72.144,19.043
0.157,0.020,-0.078,23.071,-68.237,23.010
0.162,0.010,-0.082,19.409,-63.721,28.198
0.164,-0.008,-0.081,17.212,-58.838,34.302
0.166,-0.033,-0.068,16.357,-53.833,41.138
0.169,-0.050,-0.059,15.930,-49.622,47.852
0.174,-0.091,-0.043,17.761,-46.021,53.833
0.185,-0.147,-0.022,21.179,-43.518,58.228
0.208,-0.205,0.002,25.024,-42.542,60.425
0.233,-0.279,0.017,28.748,-42.969,60.059
0.270,-0.366,0.042,31.921,-44.556,57.983
0.266,-0.483,0.021,35.095,-46.448,54.443
0.296,-0.601,0.032,39.246,-46.509,49.927
0.341,-0.737,0.115,44.067,-46.021,47.729
0.382,-0.883,0.102,48.584,-48.706,50.110
0.434,-1.047,0.156,51.819,-51.514,56.335
0.488,-1.177,0.225,51.392,-54.932,63.538
0.473,-1.263,0.246,48.584,-60.669,72.144
0.465,-1.419,0.332,46.509,-64.636,82.825
0.500,-1.624,0.354,44.434,-72.021,88.135
0.504,-1.910,0.348,44.434,-78.613,88.074
0.491,-2.199,0.414,43.823,-81.116,82.947
0.541,-2.348,0.481,38.269,-83.923,67.200
0.649,-2.334,0.485,27.893,-87.830,40.833
0.718,-2.211,0.430,14.893,-90.088,7.874
0.715,-2.055,0.381,0.977,-86.182,-27.039
0.713,-1.951,0.371,-11.230,-75.439,-59.509
0.690,-1.833,0.319,-22.705,-61.279,-85.938
0.645,-1.672,0.291,-34.119,-39.795,-102.173
0.601,-1.528,0.282,-42.480,-13.062,-108.887
0.594,-1.409,0.290,-46.082,15.015,-110.840
0.623,-1.320,0.297,-45.044,44.006,-109.680
0.673,-1.237,0.306,-39.795,71.838,-107.788
0.710,-1.137,0.318,-31.677,94.971,-107.178
0.735,-1.042,0.324,-20.691,112.671,-107.300
0.789,-0.976,0.337,-8.972,122.803,-106.873
0.868,-0.947,0.365,2.075,123.718,-106.323
0.886,-0.868,0.354,10.437,114.136,-106.995
0.866,-0.760,0.319,17.212,98.877,-104.736
0.832,-0.685,0.293,23.865,83.618,-97.595
0.812,-0.673,0.301,30.090,67.688,-88.806
0.786,-0.633,0.316,34.912,48.157,-81.604
0.755,-0.579,0.322,39.001,25.696,-72.388
0.723,-0.520,0.316,42.908,3.174,-59.998
0.690,-0.490,0.330,47.607,-16.174,-45.044
0.662,-0.508,0.353,52.917,-34.790,-30.701
0.588,-0.497,0.297,57.251,-52.734,-18.982
0.515,-0.490,0.300,61.218,-64.148,-6.592
0.462,-0.520,0.297,65.125,-72.998,5.554
0.380,-0.510,0.268,68.054,-77.515,16.724
0.337,-0.632,0.285,70.984,-79.712,26.550
0.293,-0.658,0.243,70.129,-81.970,29.724
0.250,-0.711,0.268,67.871,-81.299,33.081
0.211,-0.761,0.276,65.063,-79.163,33.142
0.180,-0.815,0.274,59.692,-77.881,31.677
0.143,-0.897,0.267,53.772,-76.477,30.701
0.098,-1.009,0.269,48.035,-73.853,28.809
0.068,-1.124,0.249,41.931,-70.557,25.208
0.075,-1.202,0.229,34.790,-63.599,19.409
0.103,-1.240,0.229,27.222,-53.345,11.597
0.128,-1.278,0.243,19.958,-42.114,3.723
0.118,-1.272,0.252,13.794,-31.494,-4.517
0.140,-1.336,0.240,9.888,-21.667,-11.963
0.187,-1.281,0.253,5.981,-12.451,-19.897
0.236,-1.215,0.244,3.235,-4.944,-24.658
0.286,-1.128,0.241,1.770,2.441,-28.137
0.326,-1.051,0.242,0.977,9.033,-28.564
0.358,-0.984,0.233,0.916,13.306,-28.015
0.392,-0.911,0.228,0.427,16.479,-25.757
0.424,-0.863,0.225,0.122,17.822,-21.912
0.437,-0.828,0.207,-0.549,16.296,-17.456
0.436,-0.808,0.197,-1.404,13.977,-11.963
0.431,-0.783,0.184,-3.296,11.108,-6.287
0.422,-0.769,0.176,-5.737,8.240,-0.916
0.408,-0.777,0.173,-8.240,5.249,4.395
0.387,-0.792,0.174,-10.986,2.136,8.179
0.366,-0.800,0.177,-12.939,-1.099,11.047
0.345,-0.815,0.175,-14.954,-4.272,13.184
0.326,-0.841,0.170,-16.846,-7.385,14.526

0.309,-2.423,0.153,-13.855,28.320,15.564
0.359,-2.663,0.153,-15.320,32.349,9.644
0.398,-2.831,0.156,-20.752,36.316,2.808
0.414,-2.912,0.143,-31.799,39.917,-3.174
0.423,-2.858,0.097,-46.387,43.335,-8.301
0.436,-2.715,0.064,-61.096,47.607,-12.878
0.449,-2.564,0.038,-72.937,52.917,-16.296
0.453,-2.433,0.017,-79.834,59.265,-18.066
0.443,-2.291,0.008,-81.482,66.650,-18.799
0.426,-2.113,0.013,-79.346,74.707,-19.653
0.408,-1.900,0.038,-73.303,83.130,-20.935
0.401,-1.695,0.076,-63.293,90.942,-22.461
0.398,-1.523,0.106,-49.866,96.924,-24.963
0.402,-1.344,0.124,-35.645,100.464,-28.809
0.405,-1.160,0.143,-23.132,102.112,-33.081
0.413,-0.990,0.140,-14.221,100.891,-37.354
0.445,-0.775,0.129,-10.620,97.717,-41.687
0.487,-0.518,0.138,-10.132,92.834,-44.861
0.515,-0.297,0.136,-8.911,85.022,-46.021
0.534,-0.077,0.134,-8.240,75.317,-46.204
0.552,0.095,0.140,-7.263,65.369,-43.823
0.558,0.213,0.141,-5.676,53.650,-38.086
0.557,0.314,0.153,-3.357,41.382,-29.968
0.524,0.390,0.167,-1.038,28.076,-18.433
0.451,0.434,0.180,2.563,12.390,-3.296
0.378,0.435,0.218,6.348,-4.089,14.099
0.293,0.394,0.257,10.315,-22.644,32.227
0.183,0.340,0.274,12.939,-43.579,48.401
0.055,0.281,0.275,14.282,-64.453,60.364
-0.051,0.216,0.284,14.587,-83.069,66.284
-0.123,0.130,0.258,12.695,-99.121,66.772
-0.192,0.089,0.223,7.629,-109.253,61.584
-0.215,0.071,0.139,1.099,-112.061,51.575
-0.225,0.040,0.052,-5.310,-106.201,39.673
-0.232,0.028,0.005,-11.230,-91.064,25.879
-0.202,0.044,-0.023,-14.465,-71.838,12.207
-0.136,0.050,-0.049,-14.832,-51.147,0.916
-0.056,0.030,-0.066,-13.062,-31.250,-7.507
0.011,-0.012,-0.084,-10.315,-14.648,-14.343
0.068,-0.036,-0.094,-7.751,-1.526,-18.738
0.116,-0.052,-0.085,-6.226,9.888,-20.386
0.159,-0.088,-0.068,-4.944,18.738,-19.653
0.208,-0.117,-0.051,-3.601,24.414,-17.395
0.252,-0.137,-0.030,-2.014,27.405,-13.123
0.285,-0.167,-0.010,0.549,27.649,-7.019
0.312,-0.212,0.014,4.089,25.513,-0.366
0.334,-0.259,0.046,8.362,21.362,7.202
0.346,-0.323,0.080,13.611,15.076,14.343
0.355,-0.437,0.111,19.287,7.080,20.630
0.368,-0.586,0.137,24.170,-1.953,26.306
0.391,-0.753,0.174,28.381,-11.353,30.151
0.372,-0.957,0.168,33.081,-21.973,32.471
0.372,-1.207,0.184,36.133,-31.189,33.936
0.361,-1.482,0.206,37.720,-39.429,34.668
0.341,-1.775,0.213,38.086,-46.448,35.217
0.310,-2.073,0.232,33.936,-51.880,35.400
0.295,-2.291,0.227,23.499,-55.481,33.203
0.275,-2.351,0.195,8.240,-54.749,28.625
0.228,-2.425,0.182,-5.554,-45.776,25.879
0.187,-2.567,0.171,-16.235,-32.104,22.705
0.187,-2.620,0.152,-28.687,-15.625,15.076
0.245,-2.514,0.161,-45.044,3.845,2.380
0.301,-2.276,0.152,-61.951,22.949,-14.343
0.360,-2.020,0.172,-72.754,39.673,-32.104
0.395,-1.803,0.087,-74.890,52.490,-46.753
0.466,-1.635,0.158,-69.275,67.688,-58.105
0.486,-1.477,0.131,-59.509,78.796,-66.467
0.522,-1.345,0.168,-45.898,87.097,-69.885
0.543,-1.238,0.195,-29.785,91.553,-69.336
0.573,-1.155,0.214,-13.672,93.628,-66.040
0.596,-1.087,0.177,1.160,92.957,-61.218
0.622,-1.044,0.201,13.855,92.957,-56.396
0.638,-1.025,0.254,23.315,87.952,-53.284
0.656,-0.910,0.244,28.198,74.158,-52.490
0.726,-0.804,0.266,31.799,56.519,-46.814
0.769,-0.721,0.254,35.156,35.278,-37.964
0.782,-0.662,0.248,37.598,11.353,-27.222
0.721,-0.597,0.232,39.307,-13.367,-14.526
0.654,-0.597,0.226,41.870,-37.415,-0.793
0.609,-0.599,0.220,43.335,-60.486,10.376
0.532,-0.535,0.207,43.579,-81.238,20.081
0.457,-0.521,0.199,44.556,-96.863,31.433
0.403,-0.531,0.179,45.227,-108.154,39.917
0.361,-0.515,0.185,45.471,-114.502,45.410
0.317,-0.529,0.158,46.143,-117.249,51.086
0.288,-0.583,0.205,47.607,-116.089,54.565
0.253,-0.613,0.174,49.194,-114.807,54.932
0.222,-0.640,0.204,51.147,-111.450,54.871
0.186,-0.712,0.218,52.612,-108.093,53.955
0.162,-0.768,0.221,53.040,-105.225,50.232
0.146,-0.832,0.220,52.795,-101.196,46.326
0.118,-0.913,0.216,51.941,-94.849,42.969
0.090,-0.989,0.206,50.049,-87.402,39.490
0.062,-1.062,0.194,46.448,-77.881,36.804
0.034,-1.165,0.204,41.382,-66.895,33.020
0.025,-1.260,0.211,34.058,-57.007,25.391
0.044,-1.266,0.193,25.146,-47.791,14.099
0.061,-1.228,0.182,15.991,-36.194,3.784
0.076,-1.183,0.172,7.935,-23.560,-4.517
0.088,-1.119,0.152,1.282,-11.780,-11.841
0.132,-1.127,0.165,-3.723,-1.587,-17.639
0.181,-1.074,0.190,-7.751,6.409,-24.475
0.222,-1.010,0.158,-11.047,11.292,-29.480
0.264,-0.944,0.185,-12.146,15.320,-31.921
0.299,-0.920,0.176,-11.658,16.052,-32.837
0.325,-0.892,0.162,-10.559,15.442,-32.654
0.339,-0.878,0.166,-8.484,15.747,-29.358
0.347,-0.875,0.163,-6.287,14.893,-24.353
0.351,-0.893,0.167,-4.272,13.428,-17.700
0.349,-0.905,0.165,-2.930,11.292,-10.254
0.351,-0.923,0.174,-2.075,8.972,-3.235
0.352,-0.934,0.181,-2.136,6.165,3.296
0.349,-0.947,0.185,-2.319,2.808,9.583
0.343,-0.964,0.190,-3.479,-0.793,14.771
0.336,-0.985,0.184,-5.066,-5.188,18.677
0.323,-0.999,0.178,-7.263,-10.315,21.790
0.308,-1.003,0.167,-10.071,-15.564,24.109
0.293,-1.013,0.152,-12.939,-20.996,25.940
0.273,-1.038,0.139,-15.503,-25.513,27.344

1.042,-1.476,0.437,-76.294,42.725,144.836
1.144,-1.673,0.506,-74.280,37.781,149.170
1.289,-1.887,0.551,-70.923,34.302,153.442
1.559,-2.145,0.577,-64.209,32.715,156.738
1.967,-2.386,0.640,-52.612,32.959,158.325
2.524,-2.713,0.798,-35.339,34.180,160.950
2.910,-3.049,0.883,-22.583,31.616,166.931
2.870,-3.021,0.804,-21.973,20.325,177.307
2.589,-2.606,0.685,-30.640,5.615,198.853
2.222,-2.192,0.555,-39.734,-2.502,227.783
1.748,-1.950,0.432,-45.532,-3.113,248.596
1.203,-1.673,0.283,-49.072,2.502,253.723
0.744,-1.341,0.177,-51.331,14.954,247.131
0.356,-1.007,0.070,-52.002,30.334,232.849
0.102,-0.752,-0.004,-52.185,48.401,213.074
-0.032,-0.564,-0.044,-54.688,67.871,187.988
-0.074,-0.439,-0.026,-58.472,84.473,157.410
-0.068,-0.307,0.004,-63.354,94.849,122.009
-0.062,-0.183,-0.003,-67.871,97.595,84.961
-0.032,-0.090,-0.023,-70.251,95.581,49.744
-0.000,-0.008,-0.042,-69.153,89.661,18.616
0.043,0.034,-0.023,-64.880,81.421,-6.104
0.096,0.082,0.001,-58.716,71.533,-27.039
0.140,0.145,0.018,-50.476,59.387,-44.128
0.174,0.206,0.038,-40.588,44.312,-54.749
0.202,0.246,0.045,-29.968,28.503,-57.251
0.224,0.242,0.051,-18.127,11.292,-52.063
0.271,0.183,0.060,-7.751,-5.920,-39.795
0.307,0.127,0.053,-0.610,-22.461,-21.790
0.288,0.114,0.046,3.540,-37.231,-0.610
0.239,0.113,0.041,6.165,-49.072,21.423
0.191,0.092,0.028,8.118,-57.251,40.771
0.131,0.069,0.007,10.986,-63.354,54.199
0.065,0.054,-0.011,14.404,-67.322,61.768
0.019,0.045,-0.023,17.761,-69.214,64.453
-0.011,0.056,-0.035,21.423,-69.153,63.232
0.000,0.054,-0.034,26.672,-67.383,59.509
0.058,0.022,-0.026,32.837,-64.270,53.528
0.088,-0.008,-0.013,38.025,-61.279,46.082
0.142,-0.027,0.018,40.649,-58.716,40.588
0.215,-0.016,0.056,41.016,-56.396,39.001
0.267,-0.015,0.089,40.955,-55.359,42.480
0.299,-0.035,0.109,39.978,-55.359,51.758
0.324,-0.056,0.127,37.476,-55.176,64.575
0.331,-0.085,0.137,34.424,-53.833,76.782
0.337,-0.125,0.139,31.555,-51.025,85.693
0.310,-0.165,0.145,28.137,-45.715,89.966
0.268,-0.213,0.122,23.560,-37.292,91.675
0.243,-0.245,0.104,16.846,-23.499,92.834
0.275,-0.242,0.119,8.911,-6.470,93.628
0.279,-0.245,0.095,2.197,10.437,94.482
0.282,-0.257,0.088,-4.517,28.381,97.656
0.281,-0.265,0.072,-11.841,45.959,102.905
0.307,-0.269,0.077,-20.020,62.927,107.239
0.370,-0.267,0.074,-27.893,76.538,108.948
0.451,-0.271,0.074,-34.180,84.167,108.459
0.545,-0.276,0.083,-39.368,84.778,107.300
0.656,-0.241,0.056,-43.091,78.674,103.760
0.676,-0.193,0.008,-44.312,68.481,99.121
0.681,-0.078,-0.015,-43.640,59.692,95.520
0.749,0.087,-0.002,-40.588,56.091,93.689
0.867,0.252,0.051,-33.508,54.504,93.079
1.034,0.366,0.127,-23.071,51.758,89.600
1.227,0.377,0.255,-11.047,44.617,80.688
1.400,0.304,0.392,-1.038,30.029,66.284
1.507,0.245,0.492,3.723,7.324,48.218
1.645,0.163,0.557,0.366,-19.897,25.146
1.865,0.043,0.608,-9.033,-48.218,-5.127
2.071,-0.091,0.593,-21.484,-73.853,-40.100
2.161,-0.152,0.596,-35.522,-89.111,-75.439
2.111,-0.128,0.619,-48.401,-92.041,-99.854
1.936,-0.136,0.583,-57.617,-83.313,-103.394
1.636,-0.069,0.548,-65.918,-59.814,-90.149
1.569,-0.016,0.529,-71.472,-25.757,-63.721
1.557,-0.095,0.448,-72.998,9.460,-36.743
1.214,-0.153,0.408,-76.660,38.147,-23.560
0.825,-0.108,0.230,-83.008,61.646,-20.935
1.217,0.055,0.367,-85.388,83.435,-17.639
1.045,-0.005,0.252,-81.726,85.571,-15.259
0.914,0.007,0.239,-81.482,83.496,-17.334
1.044,-0.071,0.201,-75.867,74.768,-11.169
0.894,0.058,0.156,-71.106,63.782,-12.207
0.925,-0.041,0.088,-62.073,51.636,-5.066
1.082,0.031,0.162,-54.138,42.542,-8.057
0.909,0.034,0.127,-45.837,27.527,-4.211
0.711,-0.030,-0.022,-38.086,7.935,2.136
0.823,-0.051,0.046,-33.386,7.324,2.686
0.759,0.086,0.037,-27.710,7.141,-0.427
0.699,0.013,0.020,-19.287,4.395,6.714
0.730,0.017,0.050,-13.794,2.930,13.611
0.643,-0.038,0.001,-8.423,1.160,23.376
0.673,-0.004,0.045,-4.700,4.395,26.917
0.736,-0.009,0.051,-0.305,7.446,27.344
0.717,-0.023,0.068,4.395,6.531,23.987
0.800,-0.027,0.080,7.324,2.747,20.874
0.809,0.001,0.090,9.460,-3.357,17.151
0.836,0.012,0.096,11.780,-9.705,14.099
0.859,0.019,0.103,15.564,-15.198,10.193
0.896,-0.003,0.104,20.569,-18.555,5.188
0.940,-0.036,0.107,24.963,-19.470,-0.122
0.995,-0.058,0.127,28.076,-19.226,-4.028
1.046,-0.076,0.152,28.259,-19.470,-6.592
1.101,-0.089,0.164,26.001,-21.729,-7.141
1.112,-0.090,0.162,22.400,-24.414,-5.859
1.070,-0.080,0.151,17.639,-26.245,-3.845
1.025,-0.079,0.144,13.794,-25.635,-2.197
0.997,-0.077,0.144,12.451,-22.034,-2.075
0.970,-0.092,0.136,12.024,-16.479,-3.784
0.943,-0.101,0.133,11.719,-10.864,-8.179
0.937,-0.072,0.142,10.193,-5.554,-13.367
0.912,-0.068,0.132,9.033,-2.258,-16.418
0.917,-0.048,0.133,7.507,0.671,-17.334
0.947,-0.050,0.131,6.409,2.747,-16.724
0.978,-0.032,0.127,5.188,3.052,-16.418
0.957,-0.013,0.121,4.822,0.916,-15.747
0.947,-0.006,0.122,5.127,-1.465,-13.794
0.930,-0.002,0.120,6.226,-4.211,-11.780
0.884,-0.019,0.108,7.935,-6.958,-11.047
0.854,-0.007,0.114,8.606,-8.057,-12.390

2.164,-0.234,0.394,-17.090,33.691,-9.460
2.414,-0.199,0.442,-15.930,24.719,-4.395
2.581,-0.147,0.459,-11.597,7.446,1.221
2.596,-0.089,0.466,-2.869,-12.268,7.935
2.528,-0.077,0.468,8.118,-29.846,18.921
2.397,-0.105,0.463,19.043,-40.894,31.799
2.219,-0.154,0.450,27.771,-43.640,42.297
2.062,-0.212,0.458,31.982,-38.757,47.485
1.946,-0.283,0.467,31.738,-29.907,47.607
1.830,-0.334,0.464,26.306,-20.996,43.152
1.745,-0.342,0.465,16.174,-13.306,35.522
1.683,-0.326,0.442,3.723,-8.301,25.696
1.631,-0.285,0.412,-9.277,-4.150,14.526
1.591,-0.234,0.358,-21.912,0.427,3.784
1.555,-0.172,0.303,-33.630,7.568,-5.737
1.507,-0.102,0.254,-43.518,17.395,-14.160
1.454,-0.023,0.202,-50.537,29.480,-20.325
1.373,0.043,0.153,-54.138,42.297,-23.865
1.290,0.107,0.149,-54.199,54.688,-25.085
1.217,0.151,0.142,-49.927,62.378,-23.682
1.089,0.139,0.134,-42.664,62.012,-20.325
0.946,0.122,0.122,-35.156,55.603,-16.113
0.795,0.082,0.127,-28.809,45.837,-10.559
0.627,0.025,0.106,-23.560,33.691,-4.700
0.457,-0.012,0.098,-20.691,22.522,-0.488
0.291,-0.015,0.069,-19.775,12.695,3.479
0.153,-0.003,0.042,-19.653,6.104,6.165
0.039,0.015,0.017,-19.043,2.502,7.080
-0.049,0.032,0.005,-18.311,1.465,6.775
-0.117,0.039,0.001,-17.395,1.282,6.287
-0.166,0.037,-0.003,-15.869,1.892,5.310
-0.202,0.037,-0.008,-14.404,2.869,3.723
-0.217,0.034,-0.010,-13.306,3.845,2.014
-0.201,0.030,-0.008,-12.207,4.456,-0.488
-0.177,0.033,-0.002,-11.597,4.456,-2.991
-0.153,0.025,0.002,-10.437,2.197,-5.188
-0.127,0.017,0.000,-9.644,-1.770,-6.470
-0.099,0.021,-0.003,-8.789,-6.592,-6.714
-0.068,0.027,-0.007,-7.324,-11.414,-6.104
-0.034,0.027,-0.011,-5.188,-15.686,-4.578
0.012,0.026,-0.009,-3.479,-19.104,-3.235
0.048,0.021,-0.004,-0.305,-22.034,-1.587
0.072,0.022,-0.012,2.625,-24.231,0.610
0.100,0.024,-0.013,5.920,-25.208,3.479
0.135,0.002,-0.015,9.216,-24.841,7.080
0.166,-0.021,-0.016,11.230,-23.560,10.986
0.188,-0.035,-0.013,11.536,-21.545,14.832
0.189,-0.046,-0.012,10.376,-18.982,19.165
0.196,-0.061,-0.015,8.667,-15.503,23.682
0.230,-0.077,-0.015,6.348,-11.047,27.161
0.274,-0.089,-0.012,3.967,-6.287,28.442
0.326,-0.089,-0.003,1.892,-2.319,28.320
0.398,-0.088,0.008,-0.183,0.671,28.015
0.487,-0.083,0.022,-1.831,2.197,27.100
0.562,-0.098,0.044,-2.808,3.052,27.100
0.686,-0.101,0.063,-3.235,4.150,28.809
0.829,-0.084,0.084,-2.991,5.615,32.410
0.963,-0.033,0.107,-2.625,6.531,37.781
1.064,0.042,0.117,-0.671,6.165,43.884
1.123,0.122,0.136,3.052,5.737,49.072
1.162,0.206,0.181,8.789,7.202,53.101
1.218,0.264,0.234,16.968,8.972,56.702
1.292,0.271,0.296,24.536,9.460,60.547
1.390,0.203,0.369,28.076,6.287,64.026
1.494,0.093,0.447,27.527,-3.357,65.125
1.610,0.015,0.490,21.118,-21.240,59.998
1.800,-0.028,0.509,8.850,-45.105,42.969
1.982,-0.067,0.510,-5.615,-69.824,12.390
2.011,-0.043,0.500,-20.813,-89.478,-23.560
2.018,-0.011,0.498,-38.208,-97.229,-48.279
1.999,0.030,0.485,-53.223,-92.590,-56.641
1.842,0.050,0.439,-63.110,-77.393,-54.871
1.563,0.046,0.343,-67.383,-50.964,-49.011
1.292,0.033,0.228,-67.383,-10.437,-46.143
1.516,0.308,0.472,-63.354,39.429,-51.208
1.429,-0.026,0.267,-51.636,67.261,-51.331
1.326,0.033,0.323,-50.598,87.769,-60.364
1.256,0.055,0.248,-53.467,97.229,-60.669
1.366,0.103,0.279,-57.068,105.591,-60.547
1.361,0.113,0.296,-58.533,102.295,-59.570
1.339,0.094,0.259,-60.303,88.074,-56.335
1.298,0.124,0.250,-58.533,65.491,-50.171
1.128,0.109,0.191,-53.833,39.673,-43.396
1.041,0.188,0.192,-47.363,15.991,-38.574
0.859,0.172,0.116,-37.781,-5.005,-31.555
0.723,0.158,0.096,-26.917,-19.348,-26.428
0.546,0.166,0.025,-15.991,-28.137,-23.804
0.428,0.163,0.021,-5.249,-26.123,-20.264
0.328,0.137,-0.013,6.409,-16.968,-14.465
0.335,0.067,0.021,15.198,-2.686,-7.446
0.388,-0.019,0.048,20.508,10.498,-3.418
0.459,-0.065,0.091,21.057,19.714,-2.502
0.512,-0.075,0.131,18.066,22.095,-2.869
0.548,-0.095,0.141,14.099,18.250,-3.357
0.611,-0.103,0.141,9.338,12.634,-3.906
0.681,-0.102,0.135,4.517,7.263,-4.639
0.743,-0.111,0.132,-0.793,3.479,-3.235
0.815,-0.097,0.127,-6.592,1.587,2.808
0.853,-0.063,0.109,-11.047,0.671,10.986
0.862,-0.039,0.087,-12.451,0.671,16.418
0.893,-0.032,0.074,-11.414,1.221,17.090
0.905,-0.026,0.075,-8.301,1.587,12.024
0.929,-0.049,0.082,-4.211,0.610,2.319
0.980,-0.100,0.105,-0.610,-1.892,-10.071
1.019,-0.125,0.130,1.038,-6.104,-24.231
1.077,-0.158,0.155,1.526,-12.329,-36.926
1.155,-0.180,0.175,-0.244,-20.935,-44.189
1.193,-0.172,0.177,-4.089,-31.799,-45.227
1.211,-0.168,0.174,-7.202,-43.213,-41.748
1.192,-0.178,0.168,-9.277,-52.612,-33.936
1.158,-0.164,0.160,-12.024,-58.289,-21.790
1.113,-0.156,0.143,-13.367,-61.401,-10.376
1.037,-0.146,0.123,-12.634,-60.913,-4.272
0.972,-0.118,0.120,-10.315,-56.885,-3.418
0.908,-0.118,0.116,-6.104,-50.476,-5.737
0.893,-0.146,0.108,-0.916,-41.870,-11.780
0.899,-0.159,0.114,2.991,-31.006,-21.179
0.914,-0.175,0.131,5.493,-19.165,-31.982
0.951,-0.202,0.148,6.470,-7.446,-39.185

1.879,-0.384,0.462,-8.423,13.733,12.329
2.051,-0.383,0.489,-7.446,13.245,18.799
2.276,-0.435,0.515,-3.540,13.123,23.682
2.491,-0.521,0.530,2.991,14.282,22.156
2.660,-0.590,0.540,10.132,18.738,15.259
2.802,-0.643,0.573,16.235,26.428,9.521
2.921,-0.736,0.620,19.531,35.217,9.766
2.901,-0.812,0.670,18.250,39.673,15.930
2.672,-0.821,0.661,12.939,36.072,26.978
2.345,-0.767,0.599,5.432,27.710,41.504
1.999,-0.697,0.501,-2.136,19.653,56.030
1.697,-0.609,0.423,-7.690,14.465,63.965
1.400,-0.482,0.351,-11.108,11.353,62.805
1.159,-0.393,0.270,-13.306,9.399,56.519
0.982,-0.314,0.206,-15.991,9.399,46.753
0.805,-0.226,0.146,-18.616,10.803,36.133
0.703,-0.172,0.109,-21.118,14.465,26.611
0.602,-0.110,0.072,-23.987,18.860,16.052
0.520,-0.069,0.060,-26.367,24.536,5.859
0.443,-0.048,0.032,-28.320,30.823,-3.906
0.378,-0.064,0.036,-30.029,37.720,-13.000
0.293,-0.090,0.025,-32.166,43.335,-21.545
0.207,-0.123,0.010,-36.438,48.889,-27.100
0.138,-0.142,-0.001,-42.297,55.176,-30.640
0.063,-0.128,-0.029,-47.302,61.462,-33.142
0.020,-0.096,-0.056,-50.842,68.237,-34.546
0.014,-0.058,-0.072,-52.063,74.768,-35.950
0.033,-0.001,-0.075,-50.964,78.796,-37.170
0.053,0.067,-0.062,-47.424,77.576,-37.720
0.054,0.125,-0.052,-41.260,71.533,-37.231
0.052,0.162,-0.048,-32.043,61.462,-34.790
0.028,0.189,-0.040,-21.851,49.011,-30.701
-0.009,0.211,-0.028,-11.230,35.583,-26.489
-0.050,0.208,-0.017,-0.305,22.827,-21.851
-0.069,0.190,-0.010,10.620,11.108,-16.357
-0.075,0.156,-0.005,19.592,0.488,-10.925
-0.069,0.100,-0.003,26.062,-8.240,-5.798
-0.065,0.050,0.000,27.954,-14.771,0.061
-0.033,0.016,0.002,26.123,-19.775,6.836
-0.002,0.005,0.005,22.766,-23.804,12.329
0.010,-0.003,0.002,19.714,-27.649,14.038
0.023,-0.019,-0.014,17.761,-30.334,11.902
0.035,-0.034,-0.027,16.479,-30.334,7.324
0.061,-0.054,-0.032,15.625,-26.978,2.502
0.099,-0.068,-0.032,15.259,-21.179,-1.221
0.147,-0.067,-0.028,15.259,-14.709,-3.418
0.212,-0.061,-0.016,16.479,-9.399,-4.456
0.303,-0.050,0.005,18.921,-7.202,-4.150
0.389,-0.063,0.027,21.423,-9.521,-3.052
0.454,-0.089,0.038,22.583,-15.869,-0.061
0.490,-0.100,0.033,22.522,-23.926,5.005
0.500,-0.094,0.029,21.912,-30.579,10.010
0.506,-0.107,0.025,21.484,-34.546,13.855
0.529,-0.151,0.029,21.667,-35.095,16.663
0.603,-0.206,0.042,21.057,-32.349,19.348
0.672,-0.237,0.055,19.958,-28.015,21.423
0.733,-0.232,0.072,19.653,-23.193,21.973
0.827,-0.243,0.108,20.874,-19.226,21.423
0.942,-0.274,0.134,22.339,-18.066,19.226
1.021,-0.271,0.155,23.499,-18.555,14.709
1.091,-0.268,0.179,23.987,-19.958,9.766
1.208,-0.302,0.228,25.452,-24.597,5.798
1.414,-0.372,0.295,27.161,-33.936,0.671
1.636,-0.446,0.351,27.649,-49.011,-7.874
1.716,-0.486,0.374,25.452,-68.115,-18.433
1.723,-0.507,0.376,19.592,-88.257,-25.818
1.729,-0.589,0.410,10.437,-104.431,-28.992
1.666,-0.660,0.448,-1.831,-113.525,-26.733
1.554,-0.653,0.460,-15.198,-117.249,-22.522
1.499,-0.672,0.480,-25.635,-116.028,-24.109
1.484,-0.734,0.502,-34.607,-108.826,-33.264
1.503,-0.700,0.490,-44.495,-97.168,-49.438
1.462,-0.590,0.450,-52.063,-79.346,-73.120
1.391,-0.459,0.417,-54.138,-52.307,-96.680
1.462,-0.432,0.440,-53.711,-18.616,-111.206
1.701,-0.350,0.467,-56.213,16.052,-112.915
1.858,-0.240,0.434,-58.716,40.344,-107.910
1.824,-0.158,0.412,-58.044,51.758,-101.440
1.698,-0.073,0.370,-54.138,54.321,-91.064
1.684,-0.072,0.387,-44.739,52.185,-76.355
1.628,-0.095,0.416,-30.396,44.617,-64.392
1.494,-0.163,0.405,-18.799,33.203,-49.927
1.425,-0.179,0.400,-13.977,22.766,-29.297
1.334,-0.183,0.363,-11.047,11.536,-7.568
1.195,-0.160,0.344,-8.789,-0.122,8.362
1.050,-0.162,0.288,-5.127,-10.864,17.883
0.895,-0.176,0.234,-0.732,-18.066,21.240
0.759,-0.197,0.191,3.113,-18.738,21.301
0.672,-0.219,0.168,6.042,-12.756,20.142
0.630,-0.236,0.163,8.362,-3.418,18.494
0.639,-0.261,0.179,10.742,5.920,15.991
0.676,-0.292,0.204,13.550,11.902,12.207
0.683,-0.306,0.211,15.686,13.184,8.667
0.704,-0.321,0.224,17.334,11.292,6.897
0.710,-0.329,0.219,18.738,7.080,7.141
0.726,-0.326,0.225,18.372,2.380,9.155
0.772,-0.340,0.240,18.005,-3.479,11.292
0.816,-0.377,0.260,18.677,-10.925,12.085
0.852,-0.405,0.286,19.836,-19.531,10.620
0.882,-0.422,0.306,21.179,-28.381,8.301
0.916,-0.446,0.309,22.400,-36.377,6.958
0.922,-0.468,0.310,21.179,-42.236,6.104
0.917,-0.464,0.294,18.066,-44.434,4.395
0.911,-0.443,0.273,13.977,-42.419,1.343
0.895,-0.411,0.255,9.399,-36.255,-2.869
0.882,-0.382,0.240,5.798,-26.306,-8.301
0.879,-0.362,0.232,2.869,-13.916,-14.221
0.885,-0.344,0.232,-0.610,-0.122,-17.944
0.909,-0.325,0.242,-3.967,13.733,-19.409
0.930,-0.310,0.250,-6.714,24.780,-19.714
0.948,-0.306,0.263,-8.850,31.433,-18.860
0.964,-0.298,0.265,-10.986,33.813,-16.785
0.975,-0.283,0.271,-12.268,31.677,-14.160
0.969,-0.264,0.271,-13.000,26.306,-10.864
0.957,-0.247,0.268,-12.756,18.494,-6.592
0.943,-0.245,0.263,-11.475,9.827,-1.953
0.922,-0.258,0.256,-9.277,1.709,2.319
0.884,-0.275,0.250,-6.165,-4.639,4.700
0.847,-0.299,0.246,-3.540,-7.996,5.798

1.516,-0.818,0.599,3.540,-26.978,11.841
1.674,-0.905,0.674,1.709,-32.837,12.451
1.815,-0.998,0.737,-0.488,-40.955,12.390
1.905,-1.079,0.786,-3.540,-49.683,11.841
1.944,-1.141,0.813,-7.446,-56.763,10.681
1.922,-1.176,0.815,-11.719,-59.753,7.385
1.876,-1.186,0.795,-17.273,-56.396,1.709
1.808,-1.174,0.763,-24.841,-47.485,-5.432
1.744,-1.143,0.734,-32.227,-33.447,-14.893
1.776,-1.096,0.767,-39.185,-18.005,-25.818
1.743,-1.026,0.695,-44.434,-9.033,-37.903
1.673,-0.939,0.675,-48.523,-3.662,-50.598
1.520,-0.791,0.616,-50.232,-0.061,-62.927
1.421,-0.696,0.587,-47.913,4.517,-74.097
1.264,-0.607,0.508,-42.297,8.362,-85.876
1.062,-0.552,0.428,-36.865,14.832,-96.802
0.918,-0.524,0.377,-33.997,24.414,-106.262
0.771,-0.532,0.268,-33.386,33.875,-114.868
0.634,-0.534,0.179,-38.696,46.143,-122.742
0.518,-0.496,0.087,-47.852,60.242,-130.005
0.431,-0.417,0.011,-58.716,74.890,-136.169
0.381,-0.320,-0.068,-68.909,88.745,-140.991
0.335,-0.214,-0.153,-76.416,102.661,-145.081
0.301,-0.110,-0.222,-80.627,117.432,-148.437
0.279,0.006,-0.268,-81.848,131.348,-149.780
0.278,0.128,-0.292,-78.979,143.005,-148.437
0.319,0.230,-0.277,-72.021,150.330,-142.578
0.370,0.300,-0.253,-61.218,151.550,-131.653
0.420,0.335,-0.189,-46.936,145.935,-116.150
0.469,0.345,-0.120,-30.334,131.958,-98.083
0.510,0.324,-0.058,-13.489,110.474,-78.857
0.544,0.271,0.004,2.502,82.581,-58.777
0.555,0.211,0.040,15.869,50.171,-38.513
0.556,0.149,0.064,25.574,16.968,-18.066
0.545,0.098,0.069,31.433,-14.465,1.099
0.543,0.053,0.088,35.034,-44.067,18.494
0.435,-0.018,0.018,35.706,-69.824,33.020
0.360,-0.044,0.011,33.325,-84.167,43.579
0.304,-0.062,-0.016,30.334,-91.309,51.331
0.248,-0.079,-0.036,26.855,-92.163,56.519
0.212,-0.094,-0.052,23.010,-87.463,58.899
0.185,-0.115,-0.066,19.409,-78.857,58.960
0.158,-0.135,-0.077,15.991,-67.017,56.213
0.161,-0.145,-0.065,13.550,-52.734,52.246
0.178,-0.142,-0.053,11.414,-39.551,48.340
0.212,-0.157,-0.037,10.010,-28.076,44.739
0.263,-0.190,-0.016,8.911,-19.165,41.687
0.319,-0.234,0.002,7.629,-12.695,39.490
0.385,-0.281,0.024,5.371,-7.996,38.391
0.479,-0.332,0.062,2.625,-4.333,39.917
0.589,-0.394,0.116,-0.183,-2.747,44.067
0.705,-0.443,0.167,-2.136,-3.540,49.866
0.786,-0.484,0.217,-2.014,-7.080,57.007
0.854,-0.542,0.269,-0.061,-11.230,65.735
0.917,-0.613,0.329,2.991,-14.587,75.439
0.955,-0.676,0.376,6.714,-17.578,84.961
0.973,-0.693,0.398,9.827,-21.179,91.553
0.982,-0.740,0.421,12.451,-26.245,94.910
0.994,-0.840,0.451,13.977,-33.020,95.764
1.025,-0.937,0.493,12.329,-40.344,94.055
1.079,-1.023,0.539,10.498,-49.683,88.196
1.124,-1.106,0.584,8.362,-60.364,77.148
1.181,-1.127,0.621,5.493,-71.350,62.988
1.289,-1.092,0.653,1.648,-81.848,47.119
1.383,-1.039,0.680,-0.916,-91.309,28.503
1.383,-1.013,0.710,-0.488,-96.497,9.033
1.359,-1.033,0.734,-0.366,-93.445,-5.615
1.339,-1.051,0.718,-3.906,-82.092,-13.184
1.301,-1.008,0.675,-12.024,-65.063,-17.578
1.234,-0.921,0.609,-22.766,-45.349,-23.987
1.186,-0.822,0.551,-33.813,-24.109,-34.668
1.171,-0.710,0.489,-44.556,-3.174,-47.607
1.126,-0.633,0.419,-53.223,16.052,-60.608
1.089,-0.536,0.386,-60.486,34.912,-72.937
1.071,-0.467,0.354,-64.331,51.331,-82.153
1.058,-0.418,0.335,-64.392,64.575,-88.379
1.023,-0.377,0.313,-61.951,73.608,-93.079
0.986,-0.346,0.290,-57.434,79.773,-95.337
0.963,-0.336,0.269,-50.354,83.069,-94.849
0.947,-0.347,0.267,-43.152,84.534,-91.614
0.944,-0.354,0.261,-36.743,83.740,-85.327
0.952,-0.353,0.260,-31.128,79.651,-77.332
0.940,-0.345,0.254,-26.306,72.571,-68.726
0.908,-0.335,0.236,-22.156,63.538,-59.937
0.880,-0.326,0.226,-18.555,54.626,-51.147
0.866,-0.309,0.214,-14.709,46.448,-41.992
0.852,-0.292,0.210,-10.620,38.147,-32.471
0.837,-0.278,0.203,-5.615,29.297,-22.583
0.823,-0.265,0.208,0.488,20.508,-12.207
0.809,-0.276,0.217,8.484,11.414,-2.930
0.792,-0.298,0.239,17.700,1.770,4.333
0.763,-0.329,0.226,26.306,-7.751,10.864
0.736,-0.370,0.255,32.532,-15.137,17.944
0.708,-0.423,0.248,37.048,-20.874,24.292
0.687,-0.467,0.270,39.673,-24.048,28.992
0.704,-0.515,0.334,41.382,-26.550,31.738
0.726,-0.563,0.349,42.664,-31.372,32.654
0.739,-0.618,0.378,42.664,-36.865,31.921
0.756,-0.681,0.411,41.687,-41.809,29.419
0.771,-0.726,0.438,38.391,-45.349,26.428
0.786,-0.749,0.451,33.020,-47.668,24.292
0.790,-0.755,0.449,26.428,-48.706,22.644
0.783,-0.731,0.431,18.921,-48.157,20.142
0.763,-0.694,0.398,12.146,-45.227,16.113
0.743,-0.652,0.358,6.348,-39.673,10.498
0.724,-0.599,0.313,1.770,-31.250,3.662
0.717,-0.548,0.276,-1.770,-19.531,-2.808
0.734,-0.496,0.257,-3.784,-6.409,-8.728
0.761,-0.446,0.250,-4.395,5.676,-13.611
0.786,-0.408,0.248,-3.357,15.198,-16.663
0.809,-0.381,0.251,-1.221,21.057,-17.761
0.835,-0.369,0.262,1.770,23.621,-16.602
0.856,-0.362,0.278,4.578,22.461,-13.062
0.876,-0.356,0.290,7.629,17.639,-7.751
0.881,-0.360,0.304,11.047,9.583,-2.380
0.879,-0.378,0.316,14.648,-0.977,2.808
0.853,-0.406,0.326,18.311,-12.268,7.629
0.821,-0.442,0.331,21.606,-22.156,11.414
0.794,-0.490,0.336,23.193,-28.687,14.099

1.249,-0.995,0.568,9.521,-32.532,22.766
1.349,-1.110,0.644,11.108,-29.053,23.987
1.436,-1.222,0.713,12.939,-25.452,23.743
1.500,-1.310,0.762,14.526,-22.888,21.240
1.539,-1.387,0.794,14.648,-21.729,17.395
1.553,-1.466,0.811,13.855,-20.874,13.245
1.549,-1.520,0.813,10.925,-19.653,8.545
1.531,-1.531,0.798,5.615,-17.639,3.235
1.508,-1.519,0.779,-0.610,-14.893,-2.075
1.481,-1.495,0.751,-7.080,-11.414,-7.202
1.457,-1.461,0.725,-12.512,-7.935,-12.756
1.432,-1.419,0.696,-15.991,-4.456,-18.982
1.397,-1.350,0.667,-18.494,-1.587,-25.391
1.357,-1.271,0.637,-19.104,0.061,-31.311
1.326,-1.203,0.603,-18.494,0.366,-36.438
1.276,-1.124,0.561,-18.005,-0.671,-41.809
1.203,-1.015,0.508,-18.433,-1.831,-47.058
1.102,-0.900,0.444,-19.592,-2.441,-51.941
0.999,-0.793,0.369,-21.179,-0.793,-56.396
0.899,-0.693,0.303,-22.888,3.601,-60.852
0.812,-0.608,0.246,-24.536,10.498,-66.162
0.747,-0.509,0.192,-27.100,17.944,-71.716
0.670,-0.389,0.123,-30.090,24.902,-76.721
0.581,-0.276,0.053,-32.104,33.081,-79.529
0.484,-0.167,-0.014,-33.813,43.091,-79.529
0.408,-0.059,-0.064,-34.058,55.115,-77.087
0.378,0.043,-0.096,-32.166,66.345,-72.815
0.365,0.136,-0.115,-28.564,73.669,-66.650
0.363,0.208,-0.115,-22.522,75.684,-59.509
0.355,0.247,-0.106,-13.855,71.594,-51.270
0.345,0.262,-0.087,-4.761,63.171,-41.748
0.335,0.261,-0.061,5.188,50.659,-31.311
0.321,0.239,-0.038,14.893,35.522,-19.958
0.305,0.200,-0.018,23.437,19.470,-8.057
0.276,0.155,-0.013,29.785,3.479,2.380
0.249,0.116,-0.012,33.997,-9.888,11.841
0.217,0.089,-0.016,35.889,-20.142,19.897
0.181,0.072,-0.022,36.133,-27.405,25.696
0.145,0.074,-0.022,35.461,-31.189,30.518
0.110,0.084,-0.015,34.363,-32.898,35.889
0.066,0.104,-0.006,33.264,-33.875,41.565
0.018,0.114,0.001,32.959,-35.950,47.119
-0.012,0.097,0.005,33.081,-39.368,51.697
-0.025,0.063,0.015,33.142,-44.250,53.894
-0.045,0.024,0.020,32.837,-49.805,53.345
-0.065,-0.017,0.020,31.677,-55.298,50.537
-0.074,-0.062,0.016,29.602,-58.594,46.143
-0.069,-0.109,0.014,25.452,-58.289,41.260
-0.045,-0.153,0.015,19.104,-53.772,36.499
0.021,-0.196,0.027,11.902,-45.654,31.555
0.115,-0.245,0.060,5.127,-35.217,26.367
0.240,-0.288,0.105,-2.014,-24.353,22.461
0.381,-0.324,0.148,-8.606,-14.526,21.240
0.530,-0.373,0.203,-13.916,-6.714,23.010
0.674,-0.440,0.268,-17.334,-1.770,26.855
0.780,-0.515,0.325,-17.517,0.732,31.067
0.854,-0.593,0.384,-14.404,2.563,34.546
0.933,-0.693,0.465,-9.338,4.456,38.513
1.006,-0.802,0.538,-3.235,5.249,43.091
1.103,-0.911,0.646,2.808,3.967,47.913
1.182,-1.020,0.738,9.521,-2.747,51.453
1.245,-1.170,0.803,16.113,-16.663,52.368
1.309,-1.400,0.883,22.400,-36.072,49.927
1.347,-1.666,0.932,28.320,-58.289,42.297
1.360,-1.824,0.936,29.480,-79.956,29.114
1.362,-1.855,0.913,23.621,-96.313,12.268
1.316,-1.819,0.869,12.390,-105.469,-3.479
1.232,-1.723,0.812,0.122,-105.164,-17.151
1.148,-1.589,0.747,-10.193,-94.666,-30.945
1.056,-1.420,0.668,-17.517,-74.524,-44.250
0.994,-1.231,0.594,-22.095,-47.241,-57.068
0.961,-1.040,0.532,-23.743,-16.968,-68.604
0.971,-0.867,0.491,-22.156,11.536,-78.674
1.004,-0.714,0.478,-18.860,35.156,-86.121
1.040,-0.605,0.460,-14.099,50.415,-90.088
1.055,-0.535,0.440,-9.155,57.983,-90.820
1.036,-0.481,0.426,-4.395,59.875,-88.745
1.005,-0.441,0.404,-0.488,57.739,-83.801
0.958,-0.408,0.383,2.747,54.016,-76.294
0.914,-0.385,0.359,4.150,49.561,-66.101
0.864,-0.378,0.335,4.150,44.250,-53.711
0.812,-0.363,0.309,2.991,37.964,-40.771
0.726,-0.341,0.269,1.709,31.128,-29.114
0.655,-0.319,0.240,0.427,25.757,-19.836
0.591,-0.315,0.204,0.854,21.301,-13.245
0.521,-0.320,0.168,2.380,18.616,-9.644
0.469,-0.320,0.142,4.456,19.104,-8.545
0.441,-0.318,0.129,7.446,22.705,-7.935
0.438,-0.324,0.130,10.498,27.832,-6.348
0.469,-0.326,0.144,14.343,32.227,-3.906
0.529,-0.334,0.161,18.616,33.447,-1.404
0.580,-0.376,0.221,23.376,31.921,2.136
0.647,-0.431,0.254,26.917,26.245,4.456
0.689,-0.459,0.288,28.687,15.564,6.470
0.703,-0.513,0.294,28.198,2.441,11.475
0.687,-0.569,0.327,26.672,-10.010,17.334
0.675,-0.654,0.362,26.245,-20.874,22.888
0.692,-0.747,0.416,27.466,-30.029,26.001
0.725,-0.830,0.477,29.602,-39.185,27.039
0.778,-0.906,0.528,32.654,-50.354,26.428
0.803,-0.979,0.541,34.546,-64.392,24.658
0.796,-1.021,0.539,34.363,-77.759,22.400
0.773,-1.030,0.528,31.677,-87.830,19.348
0.762,-1.000,0.508,27.588,-94.360,15.137
0.738,-0.947,0.459,22.522,-97.107,9.888
0.708,-0.862,0.412,16.235,-94.421,4.272
0.671,-0.776,0.361,9.460,-86.121,-0.854
0.630,-0.687,0.306,3.357,-72.388,-4.822
0.603,-0.599,0.270,-1.892,-53.650,-8.118
0.584,-0.532,0.246,-5.859,-32.104,-11.108
0.585,-0.499,0.239,-8.118,-10.559,-14.038
0.596,-0.476,0.239,-9.583,9.155,-16.907
0.639,-0.475,0.258,-10.742,25.818,-18.555
0.657,-0.469,0.278,-11.169,36.438,-18.188
0.671,-0.478,0.302,-10.986,41.382,-16.113
0.673,-0.487,0.317,-10.071,41.748,-13.367
0.668,-0.499,0.330,-8.057,39.246,-10.681
0.665,-0.528,0.345,-5.249,35.034,-7.263
0.669,-0.575,0.361,-2.075,29.846,-3.845

0.904,-1.298,0.746,24.353,-31.616,19.348
0.966,-1.498,0.806,28.076,-38.330,16.418
1.019,-1.712,0.852,31.067,-44.861,11.047
1.071,-1.937,0.908,32.715,-50.720,3.296
1.115,-2.158,0.955,32.166,-53.711,-5.615
1.151,-2.355,0.972,28.320,-54.138,-15.503
1.163,-2.481,0.956,19.409,-51.331,-25.818
1.152,-2.497,0.911,5.920,-45.776,-36.499
1.125,-2.387,0.834,-9.644,-37.231,-47.302
1.088,-2.201,0.762,-23.254,-25.391,-58.044
1.055,-2.020,0.696,-32.227,-11.169,-68.359
1.041,-1.837,0.648,-36.255,4.028,-77.637
1.047,-1.627,0.627,-35.828,18.433,-85.693
1.059,-1.410,0.613,-30.823,28.809,-91.553
1.085,-1.218,0.604,-23.437,33.630,-94.238
1.072,-1.062,0.560,-15.137,32.776,-94.421
1.034,-0.936,0.525,-8.423,28.870,-92.468
0.971,-0.807,0.462,-4.333,23.315,-91.187
0.906,-0.708,0.386,-2.808,18.555,-90.149
0.786,-0.524,0.222,-5.188,15.259,-90.393
0.746,-0.501,0.256,-10.986,18.188,-87.402
0.664,-0.308,0.071,-15.991,17.151,-90.759
0.521,-0.151,0.010,-22.705,23.804,-89.722
0.431,0.004,-0.066,-29.175,33.447,-85.144
0.349,0.110,-0.101,-31.494,44.128,-77.759
0.267,0.220,-0.129,-30.396,53.223,-68.298
0.243,0.318,-0.126,-25.330,59.387,-54.871
0.250,0.397,-0.106,-15.381,60.242,-39.063
0.268,0.440,-0.056,-0.793,54.504,-22.278
0.296,0.449,0.005,16.602,40.222,-6.226
0.318,0.439,0.051,34.729,17.822,7.812
0.306,0.386,0.082,52.856,-10.071,20.325
0.273,0.300,0.083,67.749,-40.039,30.212
0.227,0.192,0.064,77.087,-68.298,36.865
0.202,0.107,0.038,80.017,-91.309,40.100
0.135,0.052,0.021,76.965,-107.727,41.077
0.049,0.007,-0.004,69.275,-116.028,41.870
-0.016,-0.008,-0.024,58.228,-115.356,43.030
-0.077,-0.002,-0.028,45.532,-106.812,43.884
-0.116,0.005,-0.034,34.485,-93.384,44.373
-0.140,0.020,-0.034,25.391,-76.660,43.457
-0.133,0.026,-0.025,18.921,-58.838,40.405
-0.098,0.021,-0.010,15.442,-42.236,35.156
-0.062,0.009,0.013,14.099,-28.503,28.931
-0.018,-0.015,0.042,13.916,-17.944,23.254
0.031,-0.058,0.065,14.343,-11.230,18.738
0.079,-0.108,0.086,14.893,-7.751,15.259
0.119,-0.168,0.104,14.465,-6.409,13.062
0.156,-0.220,0.121,13.367,-6.287,11.475
0.189,-0.272,0.138,11.169,-7.385,11.047
0.212,-0.342,0.161,8.484,-8.667,12.451
0.254,-0.442,0.199,6.042,-9.583,15.869
0.308,-0.569,0.252,4.456,-11.108,20.386
0.362,-0.736,0.318,4.150,-13.672,23.926
0.421,-0.934,0.389,6.226,-16.846,24.902
0.470,-1.161,0.451,9.705,-20.203,23.437
0.502,-1.405,0.505,14.160,-22.461,19.836
0.520,-1.663,0.554,16.663,-23.010,15.198
0.530,-1.817,0.591,15.564,-21.240,11.108
0.561,-1.889,0.642,11.658,-18.127,9.583
0.640,-1.909,0.697,7.629,-14.587,10.132
0.732,-1.917,0.748,6.104,-14.099,10.742
0.771,-1.963,0.764,7.385,-17.029,10.254
0.779,-1.954,0.750,7.629,-21.545,7.507
0.761,-1.876,0.726,5.859,-25.146,2.625
0.723,-1.817,0.701,2.930,-26.184,-2.258
0.688,-1.817,0.691,0.671,-23.682,-6.775
0.662,-1.840,0.691,-1.648,-16.663,-12.695
0.626,-1.835,0.672,-4.517,-6.165,-20.264
0.588,-1.766,0.630,-8.911,6.714,-28.015
0.581,-1.656,0.579,-13.672,21.545,-34.302
0.603,-1.527,0.543,-17.944,35.278,-39.307
0.634,-1.392,0.513,-20.935,44.922,-44.128
0.677,-1.231,0.479,-23.071,49.561,-48.279
0.716,-1.061,0.447,-23.682,48.401,-50.049
0.739,-0.906,0.421,-23.071,42.297,-49.072
0.750,-0.759,0.396,-21.118,32.471,-46.692
0.729,-0.620,0.360,-17.029,21.240,-42.419
0.702,-0.523,0.350,-11.658,10.254,-35.583
0.663,-0.447,0.330,-5.615,0.000,-27.832
0.615,-0.397,0.305,0.671,-9.216,-18.127
0.576,-0.379,0.293,6.042,-16.174,-7.568
0.538,-0.368,0.279,9.888,-20.447,2.258
0.512,-0.372,0.263,13.123,-22.583,11.597
0.492,-0.370,0.241,15.564,-22.461,19.287
0.470,-0.389,0.210,17.456,-19.897,26.001
0.516,-0.388,0.443,16.602,-11.963,36.194
0.445,-0.406,0.055,21.057,-13.855,41.260
0.427,-0.403,0.229,22.583,-15.259,36.987
0.455,-0.403,0.307,21.118,-18.127,38.757
0.433,-0.498,0.213,21.790,-23.193,41.199
0.391,-0.522,0.236,23.743,-27.649,38.330
0.381,-0.514,0.251,22.400,-30.884,36.194
0.384,-0.572,0.274,22.705,-36.072,35.706
0.359,-0.633,0.270,22.766,-41.016,35.217
0.346,-0.734,0.315,23.315,-43.884,34.607
0.342,-0.843,0.309,23.987,-46.387,32.104
0.355,-0.974,0.349,24.963,-47.119,29.785
0.355,-1.113,0.333,26.672,-47.485,26.062
0.336,-1.235,0.367,29.602,-43.335,19.958
0.346,-1.343,0.465,32.593,-39.001,11.108
0.386,-1.355,0.450,34.668,-40.894,-0.610
0.418,-1.329,0.451,35.217,-40.161,-9.277
0.451,-1.268,0.480,34.729,-38.147,-17.029
0.479,-1.160,0.433,33.081,-38.574,-23.865
0.476,-1.046,0.402,29.602,-37.537,-27.283
0.489,-0.953,0.393,24.109,-34.851,-28.015
0.482,-0.862,0.337,18.311,-33.325,-28.259
0.458,-0.762,0.317,11.841,-27.954,-27.771
0.459,-0.687,0.284,6.714,-20.203,-26.917
0.452,-0.638,0.263,3.296,-10.925,-25.452
0.449,-0.606,0.263,0.549,-0.061,-23.132
0.450,-0.582,0.256,-0.732,10.498,-19.348
0.461,-0.582,0.280,-0.916,20.691,-13.977
0.481,-0.607,0.288,-0.122,27.466,-7.629
0.494,-0.630,0.305,1.648,30.151,-2.380
0.506,-0.652,0.319,3.784,29.175,2.502
0.510,-0.685,0.326,6.226,24.902,7.812
0.508,-0.734,0.336,8.545,17.761,12.573

0.547,-2.086,0.617,61.218,-53.101,7.507
0.593,-2.385,0.648,65.002,-57.251,-1.953
0.637,-2.631,0.677,62.500,-58.838,-11.414
0.697,-2.818,0.698,53.101,-58.228,-20.996
0.742,-2.902,0.682,37.537,-55.969,-28.931
0.773,-2.885,0.648,18.066,-51.758,-34.912
0.779,-2.832,0.600,-0.610,-44.739,-39.490
0.762,-2.752,0.533,-15.808,-33.508,-43.213
0.757,-2.620,0.470,-27.527,-16.724,-46.875
0.768,-2.498,0.439,-35.583,3.662,-51.453
0.758,-2.323,0.445,-40.710,23.437,-59.265
0.762,-2.038,0.456,-43.457,40.710,-66.101
0.778,-1.692,0.460,-40.710,55.359,-67.505
0.798,-1.435,0.480,-32.288,66.650,-63.110
0.806,-1.262,0.496,-21.790,72.388,-58.472
0.801,-1.049,0.488,-14.099,71.106,-54.871
0.819,-0.863,0.465,-9.277,64.392,-49.316
0.801,-0.689,0.371,-8.118,55.115,-44.067
0.758,-0.515,0.336,-10.620,47.852,-37.964
0.701,-0.347,0.295,-16.113,40.344,-31.433
0.647,-0.210,0.214,-22.217,33.264,-26.367
0.616,-0.082,0.165,-29.724,29.236,-20.752
0.567,0.040,0.144,-36.133,27.344,-13.733
0.528,0.113,0.116,-38.757,25.085,-5.981
0.457,0.169,0.090,-38.818,22.949,2.625
0.357,0.217,0.078,-36.011,21.973,13.611
0.278,0.251,0.069,-29.968,21.301,26.611
0.213,0.263,0.076,-21.179,20.813,40.405
0.163,0.265,0.087,-10.498,19.226,53.223
0.127,0.266,0.105,1.465,16.113,63.843
0.101,0.253,0.122,13.672,10.925,71.594
0.081,0.211,0.126,24.597,2.747,76.355
0.055,0.174,0.119,32.532,-6.287,77.332
0.013,0.156,0.109,37.048,-14.893,74.707
-0.024,0.145,0.096,38.757,-22.278,70.496
-0.052,0.125,0.084,38.269,-27.893,65.308
-0.074,0.104,0.084,35.706,-31.555,59.082
-0.108,0.088,0.070,31.433,-33.386,52.246
-0.130,0.070,0.056,24.658,-32.349,46.143
-0.152,0.052,0.040,16.052,-28.381,40.771
-0.192,0.035,0.023,6.897,-21.912,36.743
-0.224,0.021,0.010,-2.441,-13.062,34.058
-0.227,0.004,-0.003,-12.329,-2.869,31.982
-0.223,-0.009,-0.018,-20.996,8.423,29.602
-0.215,-0.020,-0.030,-28.564,20.630,26.855
-0.199,-0.026,-0.040,-34.729,32.043,23.315
-0.172,-0.043,-0.051,-38.879,42.114,19.348
-0.131,-0.076,-0.058,-41.870,50.659,15.320
-0.067,-0.106,-0.058,-43.701,57.373,12.207
0.001,-0.126,-0.045,-44.250,60.852,9.949
0.072,-0.169,-0.028,-44.128,61.279,8.789
0.160,-0.243,-0.007,-42.175,58.350,8.850
0.255,-0.385,0.033,-38.147,53.040,9.888
0.350,-0.585,0.099,-31.311,46.204,12.756
0.446,-0.835,0.188,-23.437,38.086,18.433
0.532,-1.109,0.260,-15.686,29.846,28.076
0.596,-1.402,0.361,-9.277,22.400,41.687
0.630,-1.660,0.465,-3.113,15.564,56.519
0.631,-1.811,0.550,1.099,7.874,68.787
0.651,-1.882,0.608,0.916,-1.587,77.515
0.710,-1.976,0.636,-0.916,-14.343,79.651
0.781,-2.130,0.646,-2.197,-30.273,72.693
0.828,-2.232,0.661,-3.479,-45.959,56.213
0.812,-2.281,0.636,-3.662,-60.669,34.241
0.787,-2.237,0.589,-5.859,-72.327,10.864
0.781,-2.079,0.557,-10.986,-78.979,-10.925
0.749,-1.901,0.523,-17.212,-80.444,-29.480
0.702,-1.739,0.483,-21.484,-74.829,-43.823
0.657,-1.573,0.449,-24.597,-60.364,-54.321
0.632,-1.402,0.423,-27.161,-38.696,-61.462
0.632,-1.259,0.402,-28.320,-13.428,-66.101
0.637,-1.139,0.390,-27.710,12.512,-68.726
0.664,-1.012,0.412,-25.146,36.926,-69.702
0.685,-0.899,0.405,-19.226,55.786,-68.787
0.709,-0.823,0.417,-11.292,69.763,-66.040
0.732,-0.784,0.409,-2.563,77.759,-62.256
0.742,-0.769,0.402,5.737,80.444,-58.289
0.765,-0.778,0.427,12.756,78.430,-55.786
0.763,-0.742,0.416,17.700,69.153,-55.481
0.759,-0.705,0.411,21.179,56.458,-53.284
0.767,-0.667,0.414,24.475,41.443,-49.072
0.746,-0.609,0.410,28.564,23.621,-43.518
0.722,-0.569,0.409,33.447,4.333,-35.645
0.706,-0.536,0.395,39.063,-14.832,-27.100
0.678,-0.492,0.368,44.800,-32.349,-18.372
0.644,-0.467,0.325,50.049,-45.837,-8.301
0.590,-0.483,0.307,53.833,-54.626,-0.122
0.522,-0.492,0.278,55.298,-59.265,4.517
0.414,-0.494,0.303,55.969,-57.190,6.836
0.419,-0.441,0.268,55.359,-53.467,6.287
0.435,-0.500,0.321,50.598,-46.936,7.019
0.419,-0.471,0.289,46.753,-39.673,6.287
0.420,-0.451,0.314,42.480,-30.884,8.850
0.417,-0.607,0.376,38.147,-23.315,14.954
0.446,-0.694,0.394,34.058,-20.386,16.296
0.500,-0.756,0.425,28.198,-20.508,18.433
0.497,-0.844,0.434,22.034,-21.729,21.606
0.506,-0.934,0.452,16.418,-25.635,23.560
0.518,-0.980,0.473,11.108,-30.212,24.109
0.529,-0.983,0.466,6.470,-35.767,23.315
0.536,-0.997,0.462,3.723,-41.321,21.606
0.529,-0.993,0.449,2.625,-46.753,17.578
0.519,-1.000,0.439,2.380,-51.025,12.634
0.535,-0.999,0.419,1.160,-53.894,6.348
0.539,-0.987,0.408,-1.465,-54.382,1.282
0.540,-0.962,0.382,-4.700,-51.758,-0.427
0.539,-0.937,0.366,-8.301,-46.448,-0.305
0.536,-0.907,0.343,-11.230,-38.940,0.793
0.531,-0.864,0.321,-13.367,-29.236,1.709
0.522,-0.836,0.319,-15.137,-16.846,2.991
0.517,-0.819,0.307,-15.747,-4.272,3.357
0.513,-0.796,0.305,-15.930,9.094,3.479
0.511,-0.776,0.299,-15.808,22.217,4.211
0.524,-0.763,0.308,-15.015,34.546,5.676
0.541,-0.761,0.317,-13.977,43.640,7.690
0.546,-0.761,0.325,-12.878,49.561,10.193
0.563,-0.772,0.333,-11.475,52.979,12.878
0.583,-0.796,0.344,-9.521,53.345,15.686
0.591,-0.818,0.351,-7.874,50.476,17.700

1.325,-1.057,0.499,-19.531,8.667,119.324
1.511,-1.258,0.525,-22.583,18.799,127.136
1.633,-1.514,0.570,-23.437,35.034,133.423
1.845,-1.800,0.635,-23.315,60.425,137.390
2.064,-2.042,0.687,-22.400,93.445,139.099
2.229,-2.193,0.740,-20.203,125.427,142.334
2.534,-2.305,0.833,-19.165,146.362,156.616
2.732,-2.333,0.906,-18.616,146.057,179.993
2.626,-2.253,0.930,-16.785,121.521,204.285
2.412,-2.125,0.857,-13.245,81.970,223.328
2.125,-1.875,0.761,-11.658,39.612,234.863
1.773,-1.622,0.669,-10.315,2.625,239.685
1.493,-1.481,0.565,-8.484,-26.978,237.000
1.200,-1.360,0.485,-9.338,-47.852,227.905
0.890,-1.240,0.402,-13.794,-60.669,215.454
0.699,-1.121,0.324,-23.987,-63.110,200.317
0.623,-1.006,0.272,-39.429,-54.199,181.763
0.532,-0.874,0.233,-55.908,-39.856,155.701
0.449,-0.707,0.171,-71.838,-24.597,124.695
0.423,-0.539,0.099,-86.609,-7.446,94.116
0.443,-0.431,0.048,-98.389,10.742,65.247
0.435,-0.337,-0.011,-107.666,27.588,38.574
0.427,-0.264,-0.044,-113.892,42.969,16.785
0.418,-0.171,-0.055,-117.676,56.946,-0.061
0.410,-0.082,-0.060,-117.371,68.787,-10.559
0.407,-0.021,-0.039,-112.549,78.552,-15.503
0.399,0.038,-0.040,-104.919,85.022,-16.174
0.348,0.115,-0.050,-95.093,88.989,-13.245
0.301,0.155,-0.040,-83.252,89.905,-6.958
0.273,0.158,-0.050,-70.618,86.853,0.427
0.229,0.157,-0.073,-56.763,81.482,7.874
0.174,0.157,-0.087,-42.236,75.317,14.771
0.133,0.141,-0.076,-27.649,69.702,21.057
0.110,0.133,-0.048,-13.123,63.477,26.550
0.089,0.125,-0.031,0.732,54.626,31.067
0.081,0.102,-0.013,13.489,44.189,35.645
0.063,0.099,0.006,23.865,31.677,39.429
0.031,0.103,0.013,32.349,16.541,44.800
0.008,0.083,0.012,39.429,0.671,52.368
-0.010,0.052,0.002,44.800,-14.832,59.631
-0.036,0.023,-0.011,48.767,-29.236,65.125
-0.053,0.000,-0.020,50.903,-40.771,67.932
-0.071,-0.015,-0.028,51.941,-50.415,68.848
-0.096,-0.035,-0.040,51.392,-57.739,69.153
-0.118,-0.041,-0.045,49.561,-61.890,68.237
-0.131,-0.051,-0.051,47.607,-63.538,66.528
-0.146,-0.067,-0.060,45.593,-62.378,64.087
-0.161,-0.092,-0.068,43.335,-57.678,61.462
-0.169,-0.107,-0.073,41.016,-50.171,58.167
-0.166,-0.109,-0.071,38.452,-39.978,54.504
-0.146,-0.116,-0.056,35.339,-28.442,50.537
-0.116,-0.122,-0.042,32.227,-16.785,45.654
-0.081,-0.128,-0.022,28.687,-6.348,40.161
-0.030,-0.146,-0.003,25.574,2.502,34.607
0.025,-0.171,0.012,22.705,9.583,28.809
0.090,-0.192,0.035,20.142,14.832,22.888
0.153,-0.209,0.062,17.761,17.883,16.968
0.199,-0.215,0.084,16.113,18.982,11.658
0.271,-0.230,0.102,14.587,18.677,7.874
0.402,-0.257,0.127,12.085,17.395,5.005
0.552,-0.263,0.155,8.301,14.893,2.686
0.678,-0.283,0.176,3.479,11.719,2.808
0.849,-0.195,0.245,-2.380,6.714,4.272
1.016,-0.131,0.265,-5.127,-3.296,10.315
1.104,-0.087,0.318,-4.944,-12.329,17.700
1.163,-0.047,0.392,-0.977,-21.729,27.222
1.235,-0.042,0.466,6.165,-34.607,37.720
1.373,-0.134,0.537,14.404,-49.561,45.349
1.579,-0.273,0.545,19.714,-66.284,43.762
1.855,-0.373,0.541,18.555,-80.139,23.560
2.099,-0.419,0.535,12.085,-88.440,-16.113
2.308,-0.427,0.577,3.784,-90.576,-61.218
2.511,-0.387,0.661,-5.920,-89.294,-92.529
2.509,-0.356,0.682,-12.695,-91.125,-104.004
2.334,-0.309,0.674,-15.442,-91.797,-101.746
2.171,-0.212,0.721,-16.541,-86.243,-90.515
2.019,-0.062,0.755,-17.029,-78.430,-72.632
1.802,-0.004,0.702,-16.174,-71.533,-49.622
1.425,-0.021,0.559,-15.686,-59.265,-31.372
1.240,-0.028,0.527,-16.052,-34.119,-22.766
1.336,-0.148,0.459,-16.724,-8.850,-22.644
0.964,-0.165,0.357,-17.761,8.972,-36.926
0.907,-0.079,0.256,-21.973,34.424,-50.598
1.159,0.008,0.457,-22.705,53.223,-60.303
1.032,-0.004,0.234,-21.545,49.255,-65.063
1.062,-0.002,0.377,-19.897,53.040,-64.087
1.054,0.037,0.377,-19.348,43.457,-59.021
1.066,0.006,0.347,-17.273,26.733,-45.898
1.040,-0.073,0.317,-15.869,13.794,-33.752
0.950,-0.062,0.305,-13.611,2.380,-26.062
0.839,0.075,0.361,-10.315,-11.841,-18.066
0.884,0.103,0.292,-3.967,-26.733,-1.709
0.858,-0.028,0.289,4.456,-38.086,13.428
0.660,-0.031,0.214,10.803,-50.537,19.287
0.594,0.014,0.215,15.076,-53.162,25.635
0.614,0.007,0.253,21.057,-49.988,34.485
0.571,-0.018,0.237,26.001,-48.950,40.833
0.549,-0.090,0.231,28.503,-45.593,44.434
0.550,-0.072,0.282,28.931,-39.185,42.053
0.561,-0.086,0.267,29.358,-36.072,42.175
0.599,-0.134,0.284,29.114,-32.166,42.603
0.591,-0.160,0.287,28.687,-28.320,40.833
0.603,-0.176,0.305,29.114,-24.414,39.001
0.653,-0.189,0.322,28.809,-20.630,37.415
0.705,-0.204,0.341,28.320,-17.090,35.522
0.750,-0.210,0.356,26.978,-14.221,32.715
0.827,-0.232,0.376,25.024,-13.123,29.602
0.927,-0.250,0.385,22.583,-13.184,25.391
1.015,-0.270,0.405,20.142,-15.137,19.653
1.095,-0.294,0.415,18.127,-19.653,12.146
1.108,-0.286,0.408,16.968,-25.513,3.113
1.063,-0.243,0.410,15.564,-29.297,-3.967
1.047,-0.217,0.392,14.954,-31.433,-7.751
1.046,-0.218,0.370,15.076,-29.785,-8.972
1.019,-0.214,0.377,14.832,-24.536,-8.667
0.955,-0.201,0.349,13.672,-19.104,-6.592
0.918,-0.197,0.334,12.146,-12.024,-3.540
0.896,-0.189,0.328,10.071,-3.723,-0.061
0.858,-0.179,0.317,8.362,3.418,4.089

2.578,0.165,-0.055,162.659,194.702,94.910
2.756,0.175,-0.159,175.293,179.504,110.229
2.819,0.158,-0.276,189.697,154.724,124.207
2.809,0.016,-0.309,203.247,125.854,134.216
2.781,-0.120,-0.318,206.848,96.924,135.498
2.713,-0.185,-0.303,200.012,67.688,129.883
2.656,-0.234,-0.203,185.059,36.743,121.704
2.636,-0.266,-0.105,163.452,4.578,112.610
2.513,-0.288,-0.084,136.841,-28.748,104.126
2.261,-0.192,-0.045,109.253,-60.242,96.252
2.118,-0.121,-0.013,86.243,-84.900,94.727
1.953,-0.066,0.024,69.580,-100.037,92.896
1.654,-0.014,0.039,60.669,-100.830,86.609
1.487,0.072,0.082,55.481,-84.595,82.214
1.411,0.011,0.137,49.683,-52.795,84.900
1.377,-0.019,0.251,39.978,-10.071,79.590
1.373,-0.023,0.274,28.076,29.846,70.679
1.317,-0.040,0.121,13.672,61.279,66.467
1.450,-0.110,0.170,-3.967,87.097,65.308
1.502,-0.365,0.514,-31.250,105.652,63.171
1.315,-0.559,0.513,-82.336,105.408,69.763
0.986,-0.424,0.565,-133.484,96.130,66.467
0.846,-0.133,0.272,-154.907,66.162,50.842
0.785,0.173,-0.013,-137.146,36.316,53.101
0.492,0.351,-0.095,-88.867,21.545,58.044
0.267,0.341,0.089,-26.733,18.494,59.509
0.135,0.169,0.222,24.109,18.066,61.890
-0.001,0.057,0.244,53.162,19.714,61.035
-0.233,0.053,0.431,66.162,38.269,54.688
-0.410,0.065,0.650,75.684,66.772,41.748
-0.408,-0.096,0.823,80.444,95.642,30.518
-0.241,-0.227,0.758,67.383,113.037,29.175
-0.012,-0.165,0.609,43.518,113.281,37.292
0.100,-0.056,0.483,23.132,93.201,46.448
0.106,-0.036,0.302,10.559,50.903,48.950
0.062,-0.052,0.084,7.202,-1.221,46.021
-0.028,-0.078,-0.155,10.132,-50.232,41.870
-0.113,-0.088,-0.231,16.418,-89.661,38.513
-0.192,-0.094,-0.274,22.461,-117.432,37.292
-0.261,-0.089,-0.374,26.672,-130.188,37.842
-0.334,-0.099,-0.326,34.241,-125.122,37.476
-0.361,-0.104,-0.283,38.330,-107.666,35.339
-0.360,-0.105,-0.283,40.161,-83.191,31.250
-0.329,-0.135,-0.232,45.105,-54.138,24.963
-0.248,-0.210,-0.114,49.438,-26.184,19.165
-0.173,-0.269,-0.035,47.546,-4.089,13.794
-0.072,-0.295,0.045,38.513,10.132,8.850
0.025,-0.291,0.090,26.794,12.878,5.127
0.116,-0.209,0.088,14.771,4.761,1.526
0.164,-0.154,0.103,7.690,-8.667,-1.099
0.145,-0.127,0.089,4.211,-25.757,-4.272
0.148,-0.097,0.060,2.441,-42.236,-10.254
0.188,-0.057,0.028,1.709,-54.993,-15.503
0.234,-0.031,-0.015,1.160,-62.195,-17.029
0.276,-0.041,-0.064,0.549,-63.171,-14.099
0.330,-0.022,-0.120,-0.488,-59.753,-10.803
0.427,0.018,-0.147,2.197,-52.612,-8.057
0.562,0.055,-0.085,9.705,-42.664,-4.883
0.729,0.125,0.009,17.761,-33.630,-2.808
0.914,0.208,0.097,26.062,-28.503,-3.357
1.071,0.240,0.186,36.621,-26.733,-6.287
1.184,0.242,0.267,45.654,-29.724,-10.559
1.214,0.260,0.347,48.767,-36.316,-14.221
1.194,0.331,0.406,44.128,-42.786,-18.066
1.159,0.392,0.422,35.583,-46.936,-23.743
1.191,0.429,0.403,24.292,-47.668,-32.410
1.320,0.438,0.366,11.841,-42.542,-45.776
1.489,0.445,0.296,1.160,-30.457,-63.110
1.716,0.480,0.262,-6.897,-7.507,-78.003
1.962,0.536,0.232,-16.357,21.851,-83.984
2.119,0.591,0.176,-24.902,51.636,-86.487
2.463,0.603,0.226,-29.541,76.904,-88.318
2.555,0.555,0.169,-31.860,86.121,-86.670
2.420,0.457,0.108,-34.241,84.900,-85.632
2.451,0.618,0.255,-35.400,81.665,-85.449
2.243,0.480,0.132,-30.823,65.979,-67.810
2.276,0.518,0.216,-27.283,55.115,-51.270
1.964,0.424,0.170,-26.184,35.278,-31.555
1.640,0.324,0.109,-28.625,20.020,-20.020
1.494,0.336,0.055,-32.227,15.503,-16.907
1.452,0.451,0.001,-34.729,15.442,-14.038
1.425,0.384,0.028,-34.729,12.939,-3.601
1.139,0.133,-0.029,-34.607,11.292,-3.601
1.314,0.467,0.014,-36.499,9.216,-9.827
1.093,0.288,0.011,-31.738,5.676,3.967
0.986,0.210,0.036,-30.823,13.916,4.028
0.947,0.222,0.085,-28.137,15.564,5.615
0.947,0.267,0.125,-25.146,19.897,3.967
0.962,0.189,0.204,-18.066,23.193,10.742
0.944,0.150,0.337,-11.719,21.606,12.024
0.921,0.131,0.343,-5.310,12.390,10.925
0.887,0.082,0.388,2.441,3.845,12.329
0.825,0.025,0.367,6.897,-7.019,13.916
0.707,-0.004,0.308,7.996,-19.897,13.184
0.576,-0.063,0.227,7.751,-30.396,10.437
0.533,0.005,0.152,6.409,-36.316,4.822
0.470,-0.017,0.043,7.141,-37.231,6.287
0.478,-0.040,0.030,8.362,-32.043,5.798
0.463,-0.059,-0.022,9.094,-29.785,2.686
0.511,-0.052,-0.054,9.583,-28.809,-1.709
0.599,-0.021,-0.060,10.864,-28.564,-5.188
0.616,0.006,-0.069,13.367,-30.884,-6.897
0.653,-0.012,-0.070,16.663,-34.485,-6.226
0.686,-0.026,-0.073,20.325,-38.635,-7.080
0.687,-0.002,-0.065,23.804,-40.466,-8.545
0.689,0.034,-0.046,26.794,-37.659,-8.057
0.676,0.040,-0.040,28.992,-30.701,-5.615
0.625,0.018,-0.028,29.663,-20.325,-4.028
0.631,0.024,-0.020,28.015,-7.935,-5.737
0.633,0.067,0.016,25.085,6.531,-9.583
0.648,0.090,0.046,21.423,19.836,-12.207
0.703,0.101,0.050,16.235,29.480,-15.930
0.773,0.105,0.047,11.108,36.865,-20.386
0.855,0.128,0.034,6.775,40.894,-25.513
0.987,0.124,0.024,3.723,42.969,-30.090
1.111,0.146,0.036,2.625,41.626,-34.302
1.228,0.136,0.027,2.991,34.912,-35.461
1.323,0.152,0.058,3.662,25.452,-35.645
1.343,0.174,0.049,4.333,11.963,-33.386

2.362,-0.390,0.219,-100.037,189.392,-65.613
2.406,-0.418,0.156,-102.600,122.437,-64.148
2.218,-0.389,0.080,-107.056,58.777,-62.439
1.887,-0.282,-0.043,-111.694,10.620,-56.946
1.433,-0.291,-0.208,-119.934,-11.230,-42.236
0.864,-0.441,-0.393,-138.062,7.141,-26.184
0.392,-0.579,-0.611,-163.757,67.200,-18.799
0.392,-0.609,-0.766,-185.303,137.268,-23.987
0.721,-0.592,-0.858,-192.139,181.213,-45.654
1.541,-0.715,-0.910,-184.875,184.326,-78.491
2.990,-0.838,-1.162,-176.392,131.836,-111.389
3.999,-0.564,-1.473,-159.668,43.091,-150.269
4.000,-0.130,-1.546,-126.526,-41.321,-183.105
3.826,0.176,-1.479,-82.031,-105.774,-175.659
2.904,0.276,-1.409,-33.020,-143.738,-142.456
2.256,0.244,-1.329,7.019,-138.489,-101.563
1.995,0.157,-1.244,37.170,-92.102,-51.819
1.734,0.122,-1.095,54.016,-21.790,-3.418
1.470,0.168,-0.892,57.617,53.772,28.503
1.236,0.200,-0.709,57.617,120.239,44.434
1.056,0.221,-0.425,56.763,170.837,48.279
0.964,0.200,-0.133,54.443,200.378,43.823
0.835,0.098,0.103,50.354,204.834,36.865
0.674,-0.042,0.336,44.006,189.087,31.311
0.517,-0.141,0.479,35.278,158.264,27.832
0.357,-0.204,0.574,23.010,121.338,25.879
0.258,-0.185,0.644,6.592,80.750,22.156
0.122,-0.157,0.616,-10.620,35.767,15.808
-0.062,-0.144,0.528,-26.611,-4.822,9.155
-0.189,-0.111,0.426,-40.161,-36.560,4.883
-0.268,-0.056,0.325,-47.302,-61.462,4.700
-0.339,-0.013,0.217,-46.570,-82.825,8.057
-0.355,0.008,0.115,-40.283,-101.501,10.864
-0.332,0.006,0.005,-31.921,-115.601,10.803
-0.329,-0.014,-0.089,-23.315,-123.901,8.606
-0.341,-0.047,-0.107,-17.212,-122.375,6.470
-0.165,-0.019,-0.110,-17.578,-112.122,8.911
-0.052,0.040,-0.264,-20.813,-99.365,18.677
-0.078,0.026,-0.309,-17.639,-80.200,25.269
-0.028,-0.016,-0.269,-11.902,-56.946,25.635
0.129,-0.042,-0.266,-4.333,-39.978,23.987
0.251,-0.010,-0.260,2.930,-30.945,20.752
0.336,0.001,-0.221,9.277,-29.907,17.883
0.392,0.005,-0.209,14.282,-38.574,18.372
0.448,0.004,-0.185,20.935,-52.307,21.729
0.475,0.024,-0.155,28.137,-67.383,27.832
0.444,0.034,-0.152,35.156,-82.947,33.020
0.391,0.010,-0.169,42.236,-95.642,36.804
0.377,-0.039,-0.151,48.035,-101.868,39.368
0.375,-0.074,-0.122,50.659,-102.661,40.771
0.396,-0.125,-0.093,50.598,-100.769,41.565
0.467,-0.183,-0.079,47.791,-97.290,42.603
0.458,-0.325,-0.053,40.771,-93.506,46.143
0.505,-0.302,0.070,25.085,-78.979,52.551
0.674,-0.178,0.062,9.277,-65.613,56.885
0.898,-0.180,0.056,3.601,-63.232,59.509
1.019,-0.208,0.062,3.052,-64.148,60.852
1.062,-0.175,0.040,3.174,-65.491,59.814
1.128,-0.130,0.056,4.761,-64.026,56.335
1.209,-0.113,0.086,7.568,-60.730,53.040
1.313,-0.138,0.095,8.972,-55.481,48.218
1.466,-0.240,0.064,7.568,-48.645,36.011
1.615,-0.360,0.002,2.686,-41.016,16.846
1.789,-0.396,-0.074,-5.005,-32.349,-5.493
2.025,-0.375,-0.159,-13.184,-22.156,-27.405
2.272,-0.357,-0.209,-21.423,-13.855,-45.776
2.435,-0.338,-0.238,-28.748,-7.812,-57.068
2.425,-0.285,-0.208,-35.706,-2.747,-59.448
2.324,-0.229,-0.145,-39.429,-2.380,-56.091
2.160,-0.191,-0.117,-38.086,-6.592,-48.340
2.002,-0.158,-0.083,-32.776,-10.071,-38.940
1.857,-0.128,-0.036,-26.306,-10.986,-28.198
1.681,-0.078,-0.012,-20.386,-10.010,-18.005
1.494,-0.070,-0.010,-14.709,-8.240,-11.902
1.392,-0.122,0.009,-9.888,-4.456,-10.132
1.421,-0.177,0.036,-9.888,1.770,-10.620
1.445,-0.165,0.039,-16.968,9.094,-7.385
1.394,-0.173,0.016,-25.269,13.611,-1.648
1.380,-0.179,0.013,-30.640,17.395,2.197
1.390,-0.085,0.019,-31.921,22.522,7.141
1.273,0.005,0.050,-28.015,27.405,13.672
1.121,0.036,0.081,-18.005,31.067,18.677
1.015,0.010,0.126,-4.700,33.569,21.484
0.945,-0.016,0.175,6.165,32.898,23.010
0.857,-0.033,0.201,11.902,28.381,24.963
0.777,-0.056,0.199,14.526,20.508,26.733
0.708,-0.088,0.169,15.564,10.498,27.649
0.628,-0.110,0.141,16.052,0.305,27.344
0.558,-0.138,0.121,15.747,-9.094,25.635
0.532,-0.149,0.083,13.977,-17.212,23.621
0.514,-0.140,0.043,12.756,-22.583,21.790
0.507,-0.139,0.013,12.817,-25.757,20.752
0.500,-0.118,0.004,12.451,-26.123,20.813
0.501,-0.082,-0.011,13.062,-24.048,21.301
0.538,-0.084,-0.014,14.648,-19.653,22.705
0.582,-0.116,-0.007,16.602,-14.832,22.766
0.637,-0.128,0.005,17.700,-10.254,20.020
0.699,-0.137,0.012,17.395,-6.958,15.198
0.754,-0.154,0.020,16.479,-4.395,9.094
0.822,-0.171,0.021,15.137,-2.319,1.892
0.894,-0.171,0.003,12.634,-0.549,-4.517
0.959,-0.175,-0.012,9.766,1.648,-8.911
1.007,-0.179,-0.036,6.531,4.333,-9.949
1.030,-0.168,-0.069,3.174,7.141,-8.423
1.048,-0.161,-0.093,-0.061,11.719,-6.409
1.076,-0.155,-0.102,-2.808,17.151,-5.188
1.093,-0.149,-0.107,-5.310,21.973,-4.639
1.090,-0.134,-0.110,-7.263,25.574,-4.395
1.086,-0.121,-0.112,-7.935,27.283,-3.601
1.081,-0.113,-0.121,-7.935,27.893,-2.319
1.075,-0.110,-0.111,-6.287,27.710,-0.183
1.075,-0.110,-0.101,-4.211,26.001,0.916
1.068,-0.109,-0.092,-2.197,22.705,1.282
1.044,-0.109,-0.078,-0.610,18.188,0.610
1.022,-0.113,-0.067,0.671,13.062,0.061
1.002,-0.110,-0.066,0.916,8.789,-0.244
0.975,-0.105,-0.065,1.221,6.104,0.183
0.951,-0.106,-0.064,0.854,5.737,1.160
0.929,-0.114,-0.071,0.000,7.690,2.136

1.816,-0.263,-0.829,24.536,3.235,18.555
1.785,-0.258,-0.918,32.043,30.273,15.686
1.840,-0.270,-0.914,36.438,72.998,16.846
1.926,-0.363,-0.912,36.682,112.976,19.287
1.976,-0.440,-0.921,30.518,143.677,22.278
2.011,-0.381,-0.921,19.287,160.950,25.024
2.054,-0.281,-0.922,8.118,162.476,26.428
2.091,-0.256,-0.965,-0.610,149.414,27.161
2.087,-0.238,-1.028,-10.620,126.892,26.733
2.025,-0.177,-1.117,-22.888,99.487,24.963
1.936,-0.101,-1.218,-33.264,72.998,21.118
1.791,-0.029,-1.342,-39.368,52.979,15.015
1.456,0.054,-1.470,-42.358,48.401,6.592
1.199,0.012,-1.492,-41.809,72.876,-0.183
1.119,-0.001,-1.435,-45.044,109.741,-4.944
1.116,0.020,-1.365,-50.293,142.212,-11.230
1.123,0.023,-1.259,-52.612,164.917,-16.052
1.101,0.006,-1.111,-49.988,171.753,-18.555
1.039,-0.007,-0.919,-43.457,160.645,-18.372
0.929,-0.016,-0.706,-34.302,135.559,-15.747
0.800,-0.037,-0.524,-24.658,101.746,-11.230
0.650,-0.053,-0.358,-15.869,64.819,-7.935
0.514,-0.066,-0.261,-6.714,26.123,-7.263
0.413,-0.075,-0.163,2.686,-8.789,-7.385
0.324,-0.052,-0.035,12.024,-41.992,-7.812
0.252,-0.013,-0.000,20.752,-80.261,-6.714
0.160,0.023,-0.005,30.029,-114.990,-4.395
0.039,0.051,-0.021,39.063,-139.893,-1.587
-0.096,0.054,-0.013,47.058,-152.344,0.854
-0.189,0.047,0.014,51.270,-152.954,1.831
-0.236,0.043,0.010,52.246,-145.569,0.916
-0.269,0.048,0.022,50.659,-130.920,0.366
-0.308,0.049,0.015,46.265,-111.572,1.343
-0.355,0.044,-0.018,40.405,-87.646,1.526
-0.401,0.006,-0.032,34.607,-57.983,1.404
-0.404,-0.017,-0.024,27.161,-24.109,0.427
-0.321,-0.009,0.008,18.616,8.606,-3.235
-0.192,0.002,0.020,10.437,35.828,-7.935
-0.068,0.012,0.032,5.371,54.016,-11.414
0.038,0.016,0.052,4.089,61.096,-13.367
0.127,0.019,0.073,6.653,56.946,-14.221
0.199,0.003,0.096,10.437,44.739,-14.160
0.261,-0.016,0.114,13.916,26.245,-12.573
0.286,-0.034,0.114,15.808,3.662,-9.644
0.264,-0.040,0.083,16.052,-19.653,-6.775
0.238,-0.047,0.057,15.808,-40.466,-4.395
0.214,-0.057,0.016,14.771,-57.007,-2.747
0.187,-0.085,-0.032,12.146,-68.665,-1.221
0.180,-0.100,-0.086,7.080,-73.425,0.366
0.184,-0.099,-0.129,1.160,-71.899,3.235
0.195,-0.093,-0.167,-4.944,-65.918,6.897
0.221,-0.078,-0.218,-10.132,-57.922,10.437
0.275,-0.068,-0.280,-12.817,-48.096,13.184
0.366,-0.072,-0.337,-13.184,-36.926,14.954
0.502,-0.091,-0.373,-12.024,-26.123,15.747
0.675,-0.087,-0.422,-10.437,-19.165,16.174
0.845,-0.070,-0.488,-7.141,-17.578,15.747
0.989,-0.055,-0.562,-1.526,-20.203,14.160
1.100,-0.027,-0.633,4.211,-24.658,12.512
1.201,0.035,-0.642,8.606,-27.954,12.451
1.286,0.089,-0.634,15.137,-33.020,12.634
1.350,0.065,-0.659,22.522,-41.138,11.169
1.422,0.004,-0.694,25.269,-47.607,6.714
1.507,-0.065,-0.755,22.827,-51.819,-1.099
1.586,-0.111,-0.837,16.479,-52.612,-11.047
1.667,-0.140,-0.910,6.409,-48.767,-23.071
1.870,-0.180,-1.025,-7.263,-41.748,-35.889
2.174,-0.214,-1.203,-23.621,-32.898,-46.997
2.262,-0.184,-1.272,-40.527,-18.799,-56.152
2.258,-0.042,-1.277,-51.636,-4.639,-60.669
2.201,0.038,-1.211,-49.744,8.606,-55.359
2.084,0.071,-1.092,-39.185,19.775,-43.213
1.959,0.036,-0.988,-25.879,25.696,-26.123
1.780,0.023,-0.893,-16.235,30.396,-11.292
1.588,0.010,-0.826,-8.362,33.386,-0.610
1.385,-0.026,-0.745,-2.869,34.058,6.042
1.213,-0.016,-0.689,-1.221,33.752,7.935
1.083,0.020,-0.613,0.122,33.936,7.080
0.989,0.004,-0.548,1.404,33.081,5.798
0.893,-0.047,-0.488,0.122,30.518,2.502
0.821,-0.088,-0.447,-4.333,27.161,-2.319
0.795,-0.095,-0.407,-10.071,24.414,-6.226
0.778,-0.108,-0.373,-15.930,20.996,-6.714
0.810,-0.158,-0.390,-20.935,15.198,-4.761
0.809,-0.156,-0.397,-26.489,12.207,-2.869
0.744,-0.114,-0.373,-29.541,10.742,-0.305
0.745,-0.085,-0.421,-27.527,7.629,2.441
0.736,-0.080,-0.424,-19.897,10.010,4.944
0.695,-0.064,-0.386,-10.498,13.916,6.531
0.678,-0.062,-0.348,0.244,15.015,8.240
0.689,-0.089,-0.334,10.742,12.695,9.949
0.682,-0.127,-0.294,19.470,10.620,10.864
0.658,-0.136,-0.238,25.940,8.667,11.292
0.637,-0.112,-0.211,30.090,3.662,12.451
0.604,-0.085,-0.223,33.936,-2.502,14.648
0.566,-0.079,-0.226,38.147,-7.385,15.747
0.553,-0.089,-0.229,41.748,-11.841,15.381
0.578,-0.109,-0.250,44.861,-17.700,14.587
0.624,-0.131,-0.239,47.058,-22.949,13.977
0.639,-0.138,-0.234,46.631,-28.015,13.733
0.644,-0.152,-0.249,41.992,-32.288,12.512
0.651,-0.164,-0.274,34.973,-33.447,10.254
0.651,-0.148,-0.309,26.306,-31.372,7.324
0.650,-0.131,-0.362,18.311,-26.184,3.906
0.688,-0.155,-0.427,10.620,-18.311,-0.549
0.782,-0.196,-0.510,1.038,-9.155,-5.981
0.905,-0.207,-0.601,-10.498,0.122,-12.817
1.017,-0.185,-0.681,-21.973,8.301,-19.409
1.114,-0.149,-0.752,-31.738,14.343,-23.987
1.186,-0.102,-0.807,-37.781,18.250,-26.001
1.212,-0.052,-0.817,-38.330,21.118,-25.330
1.204,-0.021,-0.792,-33.813,22.705,-22.095
1.193,-0.014,-0.744,-24.963,22.034,-17.883
1.173,-0.014,-0.674,-15.076,20.203,-13.489
1.132,-0.018,-0.604,-5.371,17.090,-8.789
1.087,-0.043,-0.538,3.967,12.268,-4.700
1.035,-0.066,-0.482,10.620,6.165,-1.526
0.979,-0.079,-0.436,14.709,0.549,2.136
0.928,-0.099,-0.394,16.968,-4.333,5.005

1.171,-0.428,-1.266,-2.258,80.444,-13.855
1.272,-0.431,-1.512,-17.212,52.002,-16.602
1.372,-0.390,-1.763,-30.396,23.743,-19.165
1.405,-0.316,-1.999,-37.415,-3.601,-21.484
1.426,-0.283,-2.136,-38.452,-25.391,-20.020
1.445,-0.292,-2.223,-39.063,-41.260,-14.648
1.400,-0.291,-2.310,-39.795,-48.523,-8.240
1.335,-0.287,-2.337,-39.124,-45.654,-2.075
1.291,-0.286,-2.308,-38.696,-35.522,4.272
1.277,-0.296,-2.240,-40.405,-19.165,11.169
1.287,-0.295,-2.172,-44.312,-1.099,17.151
1.288,-0.287,-2.090,-49.377,14.832,21.423
1.266,-0.264,-1.993,-54.932,25.513,23.865
1.246,-0.240,-1.902,-61.157,27.771,25.085
1.218,-0.224,-1.823,-66.711,22.461,25.391
1.156,-0.201,-1.712,-71.716,12.268,24.963
1.081,-0.163,-1.585,-74.829,-1.587,22.888
1.011,-0.125,-1.457,-74.768,-16.296,20.569
0.927,-0.115,-1.329,-72.693,-30.151,18.066
0.823,-0.104,-1.183,-71.045,-41.077,13.916
0.702,-0.057,-1.077,-69.275,-49.683,8.850
0.559,-0.029,-0.988,-66.101,-52.002,5.920
0.453,-0.017,-0.881,-61.768,-45.471,5.249
0.395,-0.009,-0.772,-57.861,-35.034,6.165
0.361,0.005,-0.682,-53.894,-24.414,8.179
0.325,0.044,-0.600,-48.645,-13.245,10.803
0.278,0.070,-0.511,-40.771,-2.014,15.198
0.256,0.073,-0.425,-31.311,7.690,20.203
0.242,0.069,-0.316,-22.278,15.198,23.804
0.223,0.079,-0.216,-14.343,18.860,26.184
0.201,0.085,-0.149,-7.385,17.090,27.832
0.171,0.073,-0.104,-1.465,11.597,29.419
0.135,0.050,-0.068,2.991,4.456,30.212
0.110,0.039,-0.046,6.226,-4.333,29.663
0.068,0.047,-0.042,9.094,-14.282,28.015
0.011,0.068,-0.041,12.085,-23.621,25.818
-0.019,0.088,-0.033,15.991,-30.640,22.522
-0.022,0.110,-0.027,21.057,-36.560,17.639
-0.018,0.125,-0.027,27.283,-41.260,12.268
-0.020,0.136,-0.021,34.546,-45.044,6.653
-0.026,0.139,-0.021,42.297,-47.913,0.916
-0.033,0.129,-0.024,49.438,-49.561,-3.723
-0.031,0.110,-0.027,55.725,-49.561,-6.714
-0.016,0.080,-0.028,60.486,-48.950,-8.606
0.000,0.039,-0.028,62.195,-47.852,-9.033
0.008,0.006,-0.038,60.547,-46.448,-8.545
0.005,-0.021,-0.062,56.702,-45.410,-6.958
0.001,-0.052,-0.092,51.575,-43.274,-4.517
0.006,-0.078,-0.124,46.021,-39.734,-1.770
0.021,-0.103,-0.158,40.466,-35.461,1.221
0.037,-0.122,-0.186,34.912,-30.029,3.906
0.061,-0.130,-0.223,30.884,-24.231,5.981
0.091,-0.131,-0.259,28.809,-18.799,7.141
0.129,-0.123,-0.297,28.687,-13.306,7.690
0.180,-0.119,-0.337,31.372,-8.789,7.935
0.258,-0.138,-0.363,36.377,-5.798,8.240
0.347,-0.156,-0.396,41.687,-5.066,8.423
0.430,-0.186,-0.442,47.302,-6.775,8.362
0.484,-0.230,-0.525,50.659,-10.254,9.216
0.533,-0.240,-0.618,51.880,-12.939,9.583
0.619,-0.223,-0.699,52.490,-12.573,8.667
0.730,-0.186,-0.774,53.223,-10.132,5.676
0.845,-0.150,-0.854,54.077,-6.775,2.319
0.920,-0.123,-0.912,55.054,-2.502,-0.916
0.983,-0.146,-0.952,53.101,2.563,-4.883
1.083,-0.242,-1.013,45.776,7.751,-11.719
1.222,-0.335,-1.114,30.579,12.329,-20.142
1.439,-0.437,-1.304,5.859,15.686,-27.100
1.708,-0.498,-1.592,-27.771,14.771,-35.278
1.832,-0.477,-1.748,-61.157,10.925,-44.373
1.888,-0.364,-1.843,-86.487,5.615,-49.500
1.923,-0.229,-1.863,-98.694,1.648,-47.363
1.927,-0.149,-1.846,-96.008,-1.892,-38.208
1.802,-0.101,-1.653,-83.679,-0.977,-25.940
1.642,-0.048,-1.442,-66.162,-1.404,-13.855
1.548,-0.016,-1.239,-45.471,-1.648,-4.028
1.438,-0.026,-1.012,-25.208,-0.549,2.319
1.322,-0.068,-0.931,-10.437,-4.944,5.432
1.204,-0.109,-0.845,-2.441,-8.179,4.456
1.098,-0.071,-0.733,0.122,-8.118,0.916
1.041,-0.012,-0.680,2.014,-10.376,-1.038
0.966,0.030,-0.616,4.456,-13.123,-0.488
0.881,0.044,-0.552,8.118,-17.395,3.113
0.841,0.004,-0.557,12.024,-24.414,7.812
0.752,-0.059,-0.513,14.160,-27.222,10.315
0.652,-0.074,-0.470,11.658,-27.588,9.827
0.615,-0.073,-0.454,7.935,-28.259,9.216
0.568,-0.085,-0.425,5.737,-26.978,9.644
0.509,-0.095,-0.418,4.944,-27.100,10.254
0.474,-0.116,-0.445,5.432,-26.917,10.681
0.438,-0.115,-0.458,7.324,-23.499,10.010
0.410,-0.106,-0.460,10.803,-18.005,9.338
0.401,-0.099,-0.458,17.029,-12.634,8.667
0.405,-0.105,-0.446,24.963,-8.301,7.751
0.422,-0.117,-0.444,32.471,-5.371,6.165
0.457,-0.125,-0.434,38.696,-2.991,4.150
0.492,-0.132,-0.430,43.640,-2.075,2.319
0.528,-0.151,-0.419,46.265,-3.357,1.587
0.562,-0.169,-0.412,47.241,-7.080,2.258
0.575,-0.183,-0.411,46.326,-12.939,4.272
0.575,-0.196,-0.418,43.701,-20.142,6.470
0.576,-0.210,-0.435,40.649,-27.100,7.996
0.572,-0.220,-0.460,36.255,-32.471,8.606
0.557,-0.214,-0.496,29.968,-34.851,8.240
0.554,-0.200,-0.542,21.912,-34.363,6.226
0.570,-0.212,-0.613,11.841,-30.701,2.930
0.617,-0.246,-0.714,-1.038,-23.743,-1.587
0.705,-0.260,-0.833,-17.578,-13.733,-5.432
0.811,-0.248,-0.949,-35.950,-2.869,-8.728
0.903,-0.219,-1.039,-53.284,6.897,-10.193
0.965,-0.162,-1.096,-65.613,15.015,-9.460
1.000,-0.097,-1.103,-70.129,21.301,-6.592
1.019,-0.058,-1.084,-65.857,24.902,-2.686
1.001,-0.045,-1.029,-54.932,27.039,2.258
0.946,-0.044,-0.942,-40.283,27.832,7.019
0.886,-0.050,-0.853,-25.452,26.978,11.047
0.810,-0.065,-0.770,-12.024,25.879,14.343
0.729,-0.078,-0.715,-1.282,25.208,16.663
0.654,-0.106,-0.660,7.507,25.818,17.883

1.188,-0.684,-0.727,-20.569,-33.447,-6.042
1.187,-0.734,-0.753,-32.410,-35.583,-13.123
1.265,-0.811,-0.773,-48.340,-33.936,-20.874
1.424,-0.885,-0.816,-70.190,-33.081,-27.588
1.588,-0.934,-0.844,-96.069,-37.048,-32.654
1.713,-0.919,-0.777,-123.474,-50.110,-35.583
1.761,-0.862,-0.622,-148.437,-78.186,-36.621
1.712,-0.772,-0.446,-169.128,-119.080,-38.574
1.572,-0.688,-0.308,-183.411,-165.649,-41.443
1.345,-0.659,-0.264,-190.125,-213.989,-44.800
1.043,-0.680,-0.296,-191.101,-254.395,-51.025
0.766,-0.717,-0.335,-189.331,-277.161,-61.279
0.569,-0.746,-0.365,-186.829,-282.288,-76.111
0.443,-0.768,-0.383,-182.373,-273.437,-94.360
0.371,-0.773,-0.397,-176.819,-254.272,-116.455
0.354,-0.771,-0.406,-169.800,-227.966,-140.869
0.355,-0.754,-0.428,-161.621,-196.777,-166.443
0.353,-0.686,-0.450,-150.757,-162.231,-190.002
0.388,-0.575,-0.453,-137.939,-126.465,-208.984
0.495,-0.472,-0.462,-125.061,-91.919,-218.872
0.612,-0.362,-0.420,-114.807,-55.786,-210.510
0.635,-0.206,-0.350,-109.619,-22.705,-185.303
0.582,-0.088,-0.320,-104.980,-0.244,-155.396
0.559,-0.044,-0.311,-97.961,17.944,-126.892
0.591,-0.031,-0.292,-90.210,36.072,-99.792
0.584,-0.043,-0.266,-83.191,51.514,-76.721
0.545,-0.050,-0.256,-75.928,62.195,-61.768
0.530,-0.046,-0.244,-67.017,67.688,-54.504
0.532,-0.046,-0.215,-56.946,68.909,-52.734
0.535,-0.057,-0.179,-46.082,65.552,-54.871
0.546,-0.076,-0.145,-34.668,57.129,-59.326
0.577,-0.118,-0.114,-23.254,43.945,-64.819
0.620,-0.188,-0.074,-13.855,27.649,-68.604
0.656,-0.198,-0.050,-7.446,8.667,-70.068
0.668,-0.192,-0.047,-3.296,-11.658,-68.542
0.650,-0.199,-0.064,0.488,-30.762,-63.538
0.620,-0.203,-0.089,3.662,-46.082,-56.396
0.587,-0.209,-0.105,5.798,-56.335,-47.485
0.543,-0.218,-0.114,7.019,-62.256,-37.170
0.493,-0.234,-0.123,7.507,-63.477,-27.039
0.451,-0.258,-0.125,7.141,-60.608,-18.005
0.437,-0.295,-0.122,6.226,-54.260,-10.864
0.444,-0.338,-0.120,4.395,-45.532,-5.188
0.463,-0.375,-0.118,1.770,-35.950,-1.343
0.497,-0.403,-0.105,0.183,-27.161,2.502
0.552,-0.435,-0.084,-0.061,-19.531,6.165
0.611,-0.468,-0.065,1.221,-15.015,9.460
0.663,-0.513,-0.043,5.188,-13.794,13.245
0.705,-0.575,-0.012,11.841,-14.587,18.188
0.747,-0.657,0.027,20.386,-17.212,24.414
0.769,-0.751,0.053,29.785,-20.691,32.776
0.769,-0.860,0.080,37.842,-23.682,42.358
0.771,-0.963,0.116,45.166,-26.306,51.453
0.773,-1.050,0.155,51.575,-28.687,58.716
0.759,-1.134,0.191,54.932,-30.762,63.660
0.719,-1.233,0.210,55.176,-32.166,67.078
0.676,-1.330,0.212,52.673,-33.508,67.566
0.658,-1.412,0.212,47.363,-34.302,64.392
0.647,-1.496,0.215,41.138,-34.363,57.556
0.632,-1.586,0.212,33.936,-34.363,48.157
0.635,-1.650,0.210,25.757,-34.729,35.706
0.668,-1.659,0.212,15.625,-35.706,19.592
0.732,-1.629,0.208,4.944,-37.476,0.671
0.831,-1.595,0.194,-5.493,-40.588,-20.813
0.941,-1.595,0.196,-13.123,-44.861,-44.373
0.987,-1.558,0.202,-19.043,-49.011,-65.552
0.978,-1.465,0.193,-25.269,-52.856,-80.505
0.937,-1.352,0.161,-29.846,-53.528,-89.539
0.890,-1.228,0.122,-31.433,-49.988,-95.581
0.841,-1.095,0.086,-30.273,-40.161,-99.670
0.802,-0.971,0.061,-26.611,-24.475,-102.295
0.777,-0.864,0.047,-21.179,-5.981,-104.065
0.765,-0.778,0.033,-14.954,13.367,-104.980
0.768,-0.711,0.025,-8.728,31.189,-104.675
0.798,-0.671,0.029,-2.319,45.776,-103.149
0.833,-0.661,0.043,3.906,54.932,-101.013
0.846,-0.652,0.044,10.742,58.716,-97.107
0.835,-0.621,0.045,17.517,58.777,-90.759
0.829,-0.589,0.059,23.437,56.335,-81.604
0.822,-0.569,0.072,28.137,50.110,-70.679
0.796,-0.558,0.071,31.494,40.588,-59.387
0.757,-0.578,0.076,33.691,30.945,-48.279
0.730,-0.584,0.092,33.386,20.874,-39.429
0.713,-0.553,0.094,32.532,10.071,-31.982
0.684,-0.545,0.095,32.959,-0.244,-24.109
0.652,-0.569,0.109,34.729,-10.010,-16.785
0.621,-0.595,0.115,36.499,-20.142,-10.620
0.590,-0.624,0.123,38.513,-30.029,-5.371
0.555,-0.679,0.134,40.405,-38.940,-1.526
0.518,-0.757,0.136,42.358,-46.936,1.038
0.499,-0.832,0.142,43.457,-53.406,2.197
0.484,-0.896,0.149,44.617,-58.594,1.709
0.457,-0.954,0.148,45.044,-62.439,0.061
0.420,-1.004,0.148,44.983,-64.331,-1.892
0.401,-1.025,0.149,43.030,-63.416,-3.174
0.389,-1.027,0.144,39.246,-61.035,-4.456
0.383,-1.020,0.137,34.546,-57.495,-6.531
0.377,-1.001,0.123,29.358,-52.979,-8.667
0.373,-0.978,0.111,23.682,-47.546,-10.193
0.372,-0.943,0.102,18.799,-41.443,-11.780
0.385,-0.901,0.097,15.137,-35.706,-13.062
0.401,-0.878,0.099,12.817,-29.602,-14.099
0.433,-0.873,0.111,11.841,-24.780,-14.893
0.471,-0.878,0.134,12.024,-22.339,-15.930
0.501,-0.886,0.155,12.634,-21.484,-16.968
0.521,-0.893,0.167,14.038,-23.315,-18.127
0.533,-0.897,0.172,15.503,-27.283,-18.555
0.536,-0.899,0.174,16.296,-31.799,-18.311
0.537,-0.900,0.170,16.174,-36.682,-17.029
0.533,-0.906,0.162,14.893,-41.809,-15.137
0.523,-0.906,0.149,12.329,-46.387,-12.878
0.508,-0.904,0.133,9.399,-49.988,-10.864
0.493,-0.901,0.114,6.714,-52.368,-8.850
0.481,-0.899,0.098,4.395,-53.589,-6.348
0.476,-0.906,0.088,2.747,-53.894,-4.028
0.453,-0.931,0.078,2.075,-52.795,-2.380
0.440,-0.952,0.076,2.380,-49.316,-0.061
0.446,-0.963,0.087,4.089,-44.434,2.136
0.451,-0.985,0.106,6.897,-39.246,3.967

0.669,-1.931,0.179,2.075,-19.653,19.958
0.675,-2.083,0.170,-1.526,-18.738,16.113
0.682,-2.198,0.156,-6.287,-16.541,10.681
0.702,-2.278,0.141,-11.230,-13.367,3.235
0.728,-2.329,0.127,-15.015,-9.521,-5.188
0.765,-2.343,0.118,-17.761,-5.554,-15.442
0.808,-2.335,0.108,-19.592,-1.526,-26.550
0.851,-2.329,0.091,-20.142,2.136,-37.659
0.884,-2.309,0.069,-20.691,6.104,-47.974
0.891,-2.245,0.048,-22.400,10.254,-56.580
0.883,-2.135,0.030,-25.818,14.771,-62.866
0.870,-1.965,0.018,-29.053,20.020,-67.200
0.858,-1.759,0.027,-30.945,26.123,-69.031
0.844,-1.570,0.039,-29.785,32.043,-69.092
0.831,-1.388,0.058,-26.794,37.231,-68.787
0.817,-1.241,0.081,-23.010,41.199,-68.237
0.796,-1.102,0.089,-20.386,42.908,-68.726
0.766,-0.969,0.088,-19.592,43.518,-69.702
0.718,-0.822,0.073,-21.729,43.152,-70.007
0.638,-0.656,0.048,-25.269,42.786,-67.932
0.549,-0.489,0.005,-30.579,43.701,-62.988
0.473,-0.326,-0.050,-36.682,47.058,-56.274
0.402,-0.166,-0.091,-42.236,53.711,-48.035
0.329,-0.027,-0.111,-43.762,62.500,-37.659
0.265,0.094,-0.112,-41.809,72.021,-25.391
0.229,0.199,-0.105,-37.109,81.238,-13.489
0.229,0.276,-0.073,-29.480,88.745,-4.028
0.247,0.321,-0.033,-19.226,91.980,2.930
0.262,0.330,0.005,-7.629,89.478,8.240
0.279,0.314,0.042,4.578,80.688,11.536
0.306,0.277,0.081,16.174,65.857,13.611
0.323,0.240,0.117,26.123,45.227,14.893
0.336,0.199,0.148,33.325,20.447,15.198
0.351,0.170,0.163,37.964,-7.019,14.221
0.365,0.156,0.170,40.894,-36.011,12.146
0.350,0.157,0.163,42.542,-65.247,10.620
0.279,0.157,0.140,43.518,-92.102,10.803
0.187,0.145,0.110,44.373,-113.831,13.489
0.118,0.124,0.084,44.434,-128.845,18.311
0.073,0.094,0.057,43.396,-137.390,23.560
0.036,0.059,0.033,41.016,-140.198,27.039
-0.006,0.020,0.009,37.903,-138.245,28.381
-0.026,-0.021,-0.009,34.241,-131.653,28.015
-0.016,-0.070,-0.023,29.846,-121.643,25.696
-0.007,-0.114,-0.024,25.940,-109.192,22.156
0.004,-0.153,-0.015,23.010,-96.008,18.677
0.038,-0.186,0.003,21.729,-82.825,15.930
0.084,-0.232,0.030,21.851,-70.923,14.526
0.132,-0.292,0.063,22.827,-61.584,14.160
0.181,-0.373,0.095,25.330,-55.237,14.771
0.245,-0.499,0.132,29.175,-52.612,15.930
0.306,-0.666,0.173,34.058,-53.345,16.968
0.331,-0.875,0.200,40.405,-57.007,18.005
0.335,-1.137,0.199,45.410,-61.035,19.836
0.337,-1.448,0.183,48.584,-64.453,22.339
0.322,-1.753,0.170,47.424,-64.514,25.330
0.293,-1.988,0.170,40.100,-60.547,28.870
0.262,-2.144,0.156,26.489,-54.199,31.921
0.250,-2.263,0.133,9.521,-45.410,33.142
0.251,-2.419,0.108,-6.287,-33.264,32.837
0.220,-2.633,0.071,-18.799,-18.250,30.640
0.172,-2.761,0.038,-32.532,-0.122,25.696
0.169,-2.652,0.026,-49.622,21.912,16.113
0.221,-2.387,0.014,-65.857,44.189,2.869
0.302,-2.143,0.002,-73.120,62.744,-11.414
0.379,-1.919,0.009,-70.618,76.904,-25.635
0.444,-1.708,0.030,-61.157,85.449,-40.100
0.495,-1.515,0.048,-46.875,87.708,-54.077
0.531,-1.349,0.065,-30.029,85.510,-65.308
0.562,-1.218,0.093,-12.634,80.994,-72.144
0.584,-1.111,0.114,3.296,73.669,-75.378
0.592,-1.018,0.120,17.456,64.026,-75.623
0.601,-0.954,0.136,30.579,53.772,-73.364
0.639,-0.919,0.193,41.809,43.091,-69.641
0.661,-0.889,0.219,49.805,27.588,-65.796
0.649,-0.876,0.217,53.955,10.132,-61.890
0.674,-0.832,0.279,53.467,-5.188,-58.044
0.720,-0.719,0.291,49.866,-24.902,-53.040
0.725,-0.662,0.266,47.607,-46.631,-43.945
0.675,-0.592,0.269,43.213,-66.895,-33.936
0.625,-0.568,0.198,38.879,-86.487,-22.156
0.594,-0.562,0.169,34.973,-99.915,-10.803
0.549,-0.553,0.170,30.029,-108.459,-0.854
0.470,-0.579,0.098,24.536,-117.676,7.263
0.392,-0.605,0.092,17.517,-117.920,11.963
0.312,-0.573,0.084,9.521,-112.854,13.428
0.279,-0.507,0.088,5.371,-102.356,15.259
0.281,-0.472,0.102,4.639,-88.928,19.043
0.275,-0.507,0.099,5.859,-76.233,24.292
0.246,-0.610,0.099,7.385,-64.575,29.175
0.214,-0.722,0.090,7.324,-53.955,33.020
0.197,-0.796,0.094,5.493,-43.152,35.278
0.202,-0.862,0.114,3.845,-31.616,36.804
0.210,-0.964,0.119,3.418,-22.217,37.903
0.205,-1.068,0.112,1.709,-14.099,36.316
0.202,-1.148,0.110,-1.221,-6.348,31.921
0.216,-1.186,0.110,-4.089,0.732,26.245
0.244,-1.216,0.104,-6.348,6.409,20.630
0.271,-1.246,0.101,-7.324,10.376,14.893
0.298,-1.277,0.108,-7.324,12.329,8.789
0.327,-1.302,0.123,-5.981,12.695,2.747
0.357,-1.288,0.135,-4.089,11.047,-3.418
0.382,-1.229,0.134,-1.587,7.812,-9.583
0.401,-1.159,0.131,1.465,4.211,-15.137
0.424,-1.086,0.136,4.883,0.610,-19.104
0.444,-0.990,0.145,7.996,-3.174,-21.179
0.458,-0.892,0.151,10.681,-7.324,-20.264
0.467,-0.851,0.151,13.245,-12.207,-16.724
0.451,-0.841,0.126,13.855,-17.700,-13.245
0.415,-0.819,0.116,12.207,-19.775,-9.827
0.387,-0.771,0.124,9.521,-19.531,-5.371
0.371,-0.756,0.122,7.324,-18.188,0.671
0.354,-0.783,0.122,4.639,-15.198,7.996
0.336,-0.804,0.142,0.610,-11.536,14.832
0.330,-0.845,0.141,-3.235,-8.850,21.423
0.323,-0.886,0.143,-7.141,-6.287,26.794
0.309,-0.928,0.141,-10.437,-4.333,30.701
0.298,-0.956,0.139,-13.245,-3.357,32.898
0.286,-0.980,0.132,-16.418,-2.930,33.752

0.443,-2.335,0.177,-15.320,-2.014,9.766
0.481,-2.529,0.117,-22.888,-10.254,1.099
0.495,-2.683,0.060,-29.541,-18.433,-7.141
0.499,-2.762,0.012,-33.386,-23.865,-14.587
0.526,-2.745,-0.011,-36.377,-25.269,-21.240
0.563,-2.633,-0.016,-37.842,-22.827,-27.588
0.585,-2.497,-0.016,-36.621,-18.372,-32.288
0.596,-2.391,-0.039,-31.250,-12.878,-34.851
0.605,-2.312,-0.073,-23.621,-6.592,-35.583
0.618,-2.535,-0.111,-17.151,1.404,-36.987
0.486,-2.245,-0.125,-20.447,10.986,-47.058
0.495,-2.237,-0.030,-17.700,26.794,-48.706
0.481,-1.818,-0.038,-16.052,40.039,-55.115
0.517,-1.855,0.045,1.160,61.279,-51.758
0.535,-1.554,0.054,6.775,69.519,-60.730
0.574,-1.550,0.125,18.188,78.674,-62.927
0.586,-1.235,0.178,17.578,78.796,-74.158
0.651,-0.989,0.227,17.029,73.425,-79.224
0.676,-0.718,0.217,14.587,61.707,-83.740
0.689,-0.452,0.213,12.268,50.232,-86.609
0.660,-0.181,0.183,10.193,39.551,-86.121
0.610,0.059,0.160,9.766,30.884,-79.163
0.503,0.152,0.106,10.254,24.475,-64.758
0.366,0.156,0.036,6.653,23.987,-48.828
0.296,0.217,0.063,-0.977,34.241,-33.936
0.255,0.278,0.071,-6.714,41.687,-13.733
0.209,0.303,0.067,-10.925,45.715,7.019
0.154,0.286,0.082,-13.489,49.011,26.184
0.113,0.270,0.119,-13.916,51.575,41.748
0.092,0.214,0.128,-11.780,51.514,54.260
0.090,0.136,0.124,-8.667,49.805,61.523
0.109,0.076,0.144,-6.165,47.119,63.232
0.131,0.042,0.170,-3.235,41.260,60.425
0.161,0.025,0.187,0.366,31.372,54.016
0.198,0.026,0.199,4.700,18.127,45.288
0.229,0.043,0.204,8.728,2.686,35.278
0.231,0.066,0.198,11.902,-13.306,24.902
0.206,0.086,0.174,13.062,-29.846,16.052
0.176,0.102,0.143,12.451,-43.823,10.010
0.130,0.114,0.107,10.071,-53.711,7.385
0.090,0.118,0.067,6.714,-59.326,7.690
0.074,0.110,0.029,2.563,-59.937,10.498
0.063,0.093,0.003,-1.526,-56.763,14.160
0.046,0.063,-0.020,-6.104,-50.415,17.944
0.034,0.017,-0.040,-10.742,-41.321,21.057
0.031,-0.032,-0.050,-14.282,-30.151,22.888
0.038,-0.081,-0.056,-16.541,-17.822,23.743
0.059,-0.120,-0.060,-18.311,-5.615,24.536
0.087,-0.145,-0.061,-19.226,4.883,25.208
0.119,-0.190,-0.037,-18.494,13.672,26.733
0.172,-0.264,-0.028,-15.747,19.470,29.053
0.235,-0.401,0.008,-10.986,22.644,31.921
0.316,-0.576,0.047,-4.517,21.790,34.241
0.416,-0.801,0.108,3.723,16.541,36.621
0.510,-1.089,0.148,13.855,6.714,39.185
0.588,-1.405,0.230,24.841,-3.662,43.274
0.664,-1.699,0.318,34.363,-19.226,49.500
0.692,-1.977,0.376,37.903,-39.429,56.824
0.630,-2.162,0.387,31.128,-62.683,62.134
0.563,-2.281,0.342,15.503,-83.191,63.599
0.546,-2.456,0.275,-1.221,-94.910,62.561
0.505,-2.734,0.156,-16.296,-97.412,58.777
0.417,-2.881,0.046,-35.461,-87.891,50.049
0.370,-2.760,-0.017,-61.829,-65.918,35.583
0.410,-2.471,-0.046,-88.440,-37.476,17.273
0.482,-2.172,-0.048,-102.966,-9.338,-0.549
0.543,-1.910,-0.014,-102.844,15.625,-14.709
0.589,-1.664,0.034,-92.957,37.903,-26.855
0.620,-1.449,0.094,-76.355,56.152,-35.706
0.644,-1.286,0.139,-55.298,69.519,-40.100
0.655,-1.159,0.168,-32.776,78.064,-40.710
0.666,-1.070,0.193,-10.986,83.374,-38.208
0.689,-1.000,0.224,7.629,84.900,-34.607
0.720,-0.920,0.236,22.827,81.116,-30.029
0.746,-0.791,0.274,35.156,72.754,-24.048
0.780,-0.714,0.251,47.485,58.655,-15.137
0.695,-0.798,0.181,57.556,42.786,-6.165
0.721,-0.988,0.279,54.932,28.137,-6.775
0.738,-0.710,0.322,41.138,4.211,-13.794
0.762,-0.597,0.323,40.161,-21.423,-4.822
0.752,-0.632,0.292,39.368,-51.331,3.357
0.706,-0.572,0.319,36.804,-82.092,9.705
0.662,-0.666,0.237,36.316,-112.122,20.447
0.575,-0.646,0.197,31.921,-138.123,24.841
0.506,-0.521,0.189,27.527,-156.433,30.823
0.446,-0.517,0.131,31.067,-171.143,42.786
0.400,-0.571,0.108,32.043,-179.199,49.133
0.324,-0.514,0.083,31.372,-184.326,52.063
0.258,-0.642,0.060,32.471,-181.824,56.641
0.191,-0.592,0.048,27.405,-175.537,52.368
0.149,-0.584,0.062,25.879,-160.828,51.636
0.119,-0.610,0.065,25.574,-144.653,50.110
0.086,-0.649,0.058,23.682,-127.380,47.058
0.037,-0.745,0.041,21.790,-107.605,44.861
0.012,-0.833,0.042,16.174,-85.144,41.016
0.010,-0.924,0.029,8.789,-62.439,37.415
0.029,-1.015,0.023,0.977,-40.833,34.119
0.047,-1.125,0.018,-6.042,-20.996,30.579
0.057,-1.209,0.024,-11.963,-2.869,25.024
0.073,-1.227,0.041,-16.174,13.489,18.555
0.109,-1.215,0.046,-17.761,27.710,13.184
0.154,-1.191,0.051,-15.869,39.368,8.240
0.195,-1.139,0.063,-11.597,48.523,2.930
0.242,-1.060,0.075,-5.310,55.542,-2.197
0.302,-0.997,0.081,3.357,59.692,-7.080
0.362,-0.957,0.083,12.512,61.462,-12.817
0.394,-0.941,0.073,20.264,60.791,-19.531
0.417,-0.939,0.080,24.841,59.204,-27.405
0.439,-0.874,0.094,25.757,56.702,-35.583
0.467,-0.833,0.106,26.672,53.833,-39.856
0.486,-0.813,0.116,27.039,49.744,-41.077
0.490,-0.814,0.129,26.367,44.983,-39.307
0.487,-0.815,0.145,23.987,39.246,-35.583
0.481,-0.821,0.155,20.813,32.837,-30.334
0.469,-0.837,0.158,16.663,25.757,-24.170
0.454,-0.860,0.159,12.146,18.799,-17.761
0.443,-0.886,0.160,7.812,11.780,-11.963
0.432,-0.919,0.151,3.540,5.066,-6.897
0.415,-0.951,0.140,0.061,-0.671,-3.784

0.670,-1.796,0.291,7.996,-68.115,23.132
0.650,-1.923,0.313,7.690,-77.209,22.034
0.651,-2.049,0.323,7.080,-84.229,19.897
0.658,-2.195,0.315,6.958,-89.539,15.991
0.638,-2.363,0.297,7.263,-92.590,10.376
0.600,-2.514,0.276,6.531,-91.919,3.235
0.566,-2.597,0.249,3.906,-86.365,-5.005
0.557,-2.583,0.227,-1.831,-75.256,-14.465
0.569,-2.471,0.212,-10.010,-59.204,-24.353
0.589,-2.319,0.184,-16.602,-40.588,-33.752
0.609,-2.211,0.143,-20.508,-20.996,-42.480
0.598,-2.162,0.093,-23.682,-0.488,-51.208
0.568,-2.072,0.069,-28.748,22.034,-61.951
0.571,-1.819,0.105,-35.522,45.654,-72.693
0.612,-1.536,0.159,-33.813,69.763,-75.867
0.680,-1.505,0.196,-22.888,90.332,-74.463
0.638,-1.389,0.182,-18.738,104.431,-78.613
0.611,-1.179,0.225,-20.691,118.347,-83.313
0.642,-0.847,0.267,-24.292,128.601,-86.548
0.666,-0.578,0.248,-21.790,135.315,-82.581
0.657,-0.344,0.202,-19.897,138.123,-78.369
0.615,-0.160,0.127,-19.470,140.198,-72.754
0.573,0.053,0.090,-20.630,144.958,-66.895
0.543,0.247,0.065,-20.447,149.414,-56.274
0.499,0.333,0.009,-16.479,151.611,-40.283
0.467,0.386,0.003,-13.367,155.823,-24.048
0.454,0.393,0.018,-9.583,157.715,-6.165
0.437,0.372,0.032,-5.127,155.151,12.695
0.394,0.299,0.041,-0.610,148.499,32.593
0.335,0.195,0.054,2.197,140.137,50.659
0.287,0.135,0.084,2.441,130.005,64.514
0.249,0.104,0.117,2.014,118.225,75.500
0.229,0.057,0.130,1.770,103.210,83.191
0.222,0.020,0.135,0.977,86.304,85.876
0.220,-0.001,0.136,-0.122,68.115,84.534
0.226,-0.005,0.137,-0.916,48.767,80.017
0.234,0.004,0.134,-0.916,28.442,72.632
0.240,0.019,0.118,0.000,7.568,63.477
0.234,0.035,0.096,2.075,-13.000,53.589
0.222,0.043,0.069,5.310,-32.227,44.312
0.210,0.040,0.048,8.850,-49.561,36.804
0.198,0.028,0.027,12.146,-64.087,31.067
0.189,0.006,0.012,16.113,-75.806,27.161
0.183,-0.019,0.001,19.104,-83.740,25.696
0.179,-0.050,0.000,22.217,-89.539,26.184
0.173,-0.083,-0.002,24.658,-93.140,28.442
0.167,-0.123,0.001,26.917,-94.910,31.982
0.164,-0.175,0.006,28.503,-95.398,36.499
0.172,-0.252,0.021,30.029,-94.971,41.016
0.190,-0.330,0.041,31.128,-93.872,45.227
0.221,-0.416,0.063,32.471,-93.445,47.913
0.255,-0.518,0.074,33.813,-93.628,48.889
0.305,-0.657,0.073,34.058,-94.849,48.401
0.358,-0.808,0.082,33.875,-96.313,46.997
0.435,-0.983,0.069,33.813,-97.046,47.058
0.513,-1.162,0.091,33.264,-96.802,47.852
0.569,-1.305,0.125,31.494,-98.328,49.377
0.548,-1.367,0.155,28.625,-100.769,53.589
0.454,-1.417,0.143,24.780,-101.013,61.584
0.405,-1.540,0.127,19.775,-95.520,69.275
0.400,-1.689,0.127,13.184,-83.862,71.960
0.401,-1.858,0.128,8.728,-67.017,71.167
0.375,-2.024,0.128,5.371,-47.241,67.749
0.349,-2.091,0.157,-0.427,-26.245,60.730
0.391,-2.046,0.198,-7.629,-5.676,48.035
0.522,-1.966,0.225,-13.733,13.245,29.175
0.698,-1.890,0.236,-16.174,28.015,4.333
0.834,-1.804,0.253,-14.343,37.598,-23.621
0.879,-1.673,0.280,-11.475,42.358,-50.354
0.867,-1.513,0.306,-9.705,42.603,-68.054
0.816,-1.375,0.321,-8.179,39.673,-74.463
0.739,-1.282,0.293,-7.629,34.912,-75.806
0.673,-1.222,0.241,-9.521,31.982,-74.890
0.620,-1.176,0.206,-12.878,34.607,-71.899
0.575,-1.133,0.175,-17.822,41.870,-68.604
0.541,-1.057,0.148,-24.109,51.147,-66.650
0.524,-0.952,0.126,-31.372,60.547,-66.345
0.503,-0.820,0.104,-37.048,68.848,-66.711
0.488,-0.714,0.068,-41.199,76.111,-65.369
0.468,-0.627,0.054,-43.579,83.008,-63.416
0.456,-0.526,0.051,-44.189,87.830,-60.730
0.457,-0.453,0.046,-40.894,88.806,-54.810
0.453,-0.403,0.038,-34.058,86.548,-47.058
0.450,-0.408,0.042,-24.292,82.764,-37.964
0.459,-0.413,0.055,-14.893,76.904,-30.823
0.464,-0.387,0.067,-5.615,68.237,-24.963
0.471,-0.385,0.084,4.761,57.190,-19.226
0.477,-0.400,0.106,13.916,43.152,-15.015
0.477,-0.443,0.118,22.400,26.672,-11.841
0.474,-0.462,0.130,29.358,8.667,-10.254
0.476,-0.533,0.141,35.461,-8.789,-8.667
0.475,-0.615,0.155,39.917,-26.550,-8.911
0.462,-0.717,0.157,43.518,-43.945,-9.338
0.430,-0.823,0.159,45.044,-59.692,-10.132
0.383,-0.908,0.163,44.983,-72.632,-11.414
0.346,-0.990,0.166,45.593,-81.421,-11.658
0.329,-1.069,0.169,45.959,-86.609,-11.536
0.318,-1.135,0.177,46.753,-89.050,-12.451
0.306,-1.184,0.187,47.546,-89.172,-13.550
0.314,-1.236,0.195,49.072,-87.769,-14.160
0.329,-1.292,0.198,50.903,-85.693,-15.686
0.338,-1.318,0.205,52.490,-82.825,-18.677
0.356,-1.308,0.210,54.016,-79.468,-22.217
0.392,-1.260,0.221,55.237,-76.111,-26.672
0.413,-1.198,0.228,56.213,-73.181,-32.227
0.428,-1.132,0.234,57.251,-70.557,-37.720
0.448,-1.058,0.239,57.495,-68.237,-42.175
0.467,-0.989,0.241,56.458,-65.979,-44.739
0.479,-0.936,0.232,54.321,-64.514,-44.739
0.481,-0.917,0.207,50.964,-63.721,-42.908
0.464,-0.934,0.182,45.898,-61.523,-40.161
0.440,-0.921,0.172,38.391,-57.617,-37.048
0.417,-0.885,0.167,30.396,-52.734,-32.043
0.403,-0.893,0.152,22.766,-47.546,-24.841
0.385,-0.922,0.139,14.648,-42.053,-17.334
0.365,-0.951,0.131,6.165,-36.011,-9.827
0.350,-0.982,0.124,-1.038,-29.785,-3.357
0.336,-1.006,0.124,-7.385,-23.682,1.892
0.323,-1.030,0.123,-12.268,-18.188,6.226

0.702,-1.888,0.220,-0.427,8.850,17.517
0.745,-2.054,0.249,0.000,8.057,24.353
0.758,-2.220,0.281,0.244,6.226,30.334
0.754,-2.370,0.303,0.305,4.028,33.875
0.756,-2.487,0.317,-0.671,2.563,34.607
0.764,-2.551,0.326,-2.869,2.136,32.043
0.768,-2.576,0.326,-5.493,2.136,26.917
0.760,-2.563,0.311,-9.155,2.502,20.081
0.744,-2.504,0.281,-14.526,3.845,12.268
0.729,-2.405,0.235,-21.851,6.958,3.662
0.720,-2.277,0.191,-28.992,12.024,-3.906
0.744,-2.170,0.162,-34.546,19.165,-10.559
0.776,-2.021,0.140,-39.246,25.818,-17.944
0.782,-1.870,0.133,-42.297,32.532,-24.475
0.746,-1.684,0.108,-43.335,39.063,-31.433
0.743,-1.434,0.177,-41.199,46.631,-37.048
0.695,-1.122,0.169,-31.677,52.917,-34.607
0.665,-1.021,0.133,-18.250,60.303,-27.222
0.580,-1.027,0.130,-12.390,67.749,-26.489
0.505,-0.952,0.146,-20.447,73.059,-34.180
0.489,-0.624,0.155,-33.691,79.041,-40.222
0.472,-0.351,0.125,-38.696,87.646,-37.720
0.436,-0.197,0.075,-41.260,95.520,-33.447
0.374,-0.138,0.005,-45.044,103.088,-29.053
0.329,-0.041,-0.016,-50.110,112.854,-24.780
0.316,0.033,-0.054,-54.565,121.460,-17.212
0.318,0.091,-0.077,-58.105,128.296,-8.911
0.333,0.127,-0.070,-60.913,132.751,-1.404
0.383,0.149,-0.028,-61.707,130.554,7.019
0.432,0.152,-0.007,-59.631,119.690,16.479
0.449,0.126,0.004,-54.443,102.356,26.184
0.422,0.082,0.002,-49.072,80.566,34.912
0.381,0.076,0.002,-43.762,56.824,41.748
0.335,0.106,0.008,-36.865,33.569,48.157
0.290,0.088,-0.015,-27.710,11.047,54.260
0.235,0.072,-0.046,-19.592,-8.301,57.556
0.167,0.064,-0.068,-12.634,-22.827,58.533
0.115,0.073,-0.073,-7.080,-32.227,57.495
0.083,0.088,-0.081,-1.892,-38.025,54.565
0.065,0.091,-0.092,3.296,-40.588,51.025
0.050,0.083,-0.103,7.385,-40.161,46.936
0.036,0.080,-0.104,10.559,-37.109,42.480
0.027,0.076,-0.103,13.000,-32.410,38.452
0.031,0.065,-0.100,14.771,-26.550,35.339
0.039,0.044,-0.090,15.625,-20.264,33.142
0.053,0.010,-0.077,15.869,-14.465,31.921
0.076,-0.032,-0.060,15.808,-9.644,31.738
0.099,-0.067,-0.035,15.442,-6.470,31.982
0.130,-0.108,-0.012,14.648,-5.005,32.776
0.169,-0.170,0.000,14.343,-5.737,33.325
0.212,-0.235,0.022,14.282,-7.812,33.081
0.260,-0.300,0.050,15.259,-11.414,31.982
0.323,-0.372,0.071,17.517,-17.761,30.090
0.391,-0.467,0.092,21.423,-26.245,27.466
0.460,-0.597,0.115,27.710,-36.316,25.208
0.551,-0.750,0.136,35.400,-47.974,23.315
0.635,-0.901,0.157,43.396,-60.242,22.949
0.652,-1.032,0.165,51.086,-72.021,26.306
0.587,-1.119,0.167,56.946,-79.285,34.241
0.494,-1.150,0.170,59.631,-77.576,44.983
0.451,-1.181,0.165,57.129,-67.810,57.007
0.451,-1.271,0.154,51.697,-52.307,67.749
0.444,-1.444,0.153,44.861,-32.043,75.012
0.438,-1.614,0.164,36.621,-8.728,77.332
0.432,-1.711,0.166,26.733,14.465,73.059
0.464,-1.692,0.163,14.465,36.743,63.782
0.594,-1.694,0.171,1.038,57.312,49.561
0.690,-1.667,0.210,-11.719,70.801,27.649
0.826,-1.694,0.154,-20.142,74.097,4.456
0.929,-1.740,0.132,-25.757,76.904,-19.470
0.968,-1.725,0.135,-32.898,74.890,-43.518
0.969,-1.580,0.096,-42.603,68.176,-64.270
0.993,-1.396,0.118,-48.523,63.110,-76.843
0.983,-1.156,0.163,-48.218,55.054,-86.121
0.955,-0.970,0.154,-39.185,44.067,-88.684
0.945,-0.899,0.174,-24.231,35.706,-87.219
0.901,-0.850,0.204,-9.277,27.893,-88.440
0.819,-0.774,0.204,4.700,19.775,-90.271
0.758,-0.748,0.171,18.555,13.977,-90.149
0.722,-0.762,0.167,29.358,11.841,-91.919
0.686,-0.769,0.181,36.438,10.071,-95.215
0.670,-0.826,0.160,40.527,6.287,-96.863
0.636,-0.832,0.147,40.405,3.906,-98.511
0.613,-0.789,0.151,37.415,2.747,-98.267
0.614,-0.721,0.176,32.837,0.793,-96.802
0.608,-0.642,0.165,28.076,-4.822,-93.384
0.577,-0.613,0.122,24.780,-10.620,-85.876
0.556,-0.644,0.121,21.606,-14.038,-76.538
0.556,-0.617,0.130,17.212,-19.470,-69.153
0.577,-0.588,0.121,14.404,-27.283,-59.509
0.579,-0.541,0.132,13.550,-35.767,-47.546
0.583,-0.536,0.149,14.587,-46.631,-33.813
0.587,-0.612,0.144,16.968,-59.570,-20.081
0.549,-0.696,0.124,18.250,-72.998,-9.033
0.469,-0.737,0.119,18.066,-83.557,-1.038
0.402,-0.749,0.139,18.066,-89.478,5.554
0.366,-0.783,0.160,19.897,-93.384,11.658
0.320,-0.855,0.139,21.973,-96.375,15.930
0.260,-0.912,0.129,22.888,-95.154,17.456
0.219,-0.958,0.134,22.705,-89.905,16.907
0.204,-1.015,0.135,23.437,-83.008,15.381
0.195,-1.115,0.125,25.024,-74.463,13.611
0.183,-1.221,0.120,26.794,-63.904,11.230
0.182,-1.281,0.130,26.917,-52.795,7.690
0.184,-1.331,0.123,25.513,-41.687,3.906
0.187,-1.394,0.109,23.010,-30.518,1.343
0.200,-1.454,0.095,18.127,-19.653,-1.160
0.225,-1.485,0.081,10.742,-10.071,-3.174
0.250,-1.489,0.070,3.296,-1.953,-5.554
0.281,-1.467,0.059,-3.296,4.517,-8.362
0.332,-1.417,0.061,-7.935,9.460,-12.756
0.395,-1.333,0.079,-9.583,11.353,-17.395
0.445,-1.225,0.106,-6.958,9.399,-22.522
0.478,-1.107,0.127,-1.404,3.906,-26.611
0.496,-0.989,0.140,5.798,-3.845,-29.907
0.500,-0.868,0.144,13.794,-12.756,-30.945
0.492,-0.781,0.129,21.729,-21.973,-29.236
0.472,-0.734,0.104,28.198,-29.541,-25.757
0.449,-0.708,0.087,31.738,-34.058,-21.423

0.631,-1.892,0.149,-12.634,-37.109,20.935
0.628,-2.001,0.144,-15.015,-40.405,25.635
0.617,-2.127,0.137,-15.991,-41.870,30.334
0.599,-2.264,0.137,-15.015,-40.955,33.813
0.570,-2.382,0.136,-13.733,-37.109,35.278
0.542,-2.460,0.140,-13.550,-30.273,34.363
0.527,-2.493,0.144,-13.611,-21.423,31.738
0.535,-2.497,0.145,-14.709,-10.925,27.588
0.559,-2.506,0.129,-16.479,-1.038,21.912
0.543,-2.533,0.071,-19.897,8.911,13.428
0.472,-2.578,0.012,-27.222,21.790,1.099
0.436,-2.392,0.040,-40.344,38.513,-14.648
0.474,-2.144,0.050,-46.570,56.152,-26.855
0.545,-2.092,0.040,-44.556,72.510,-36.011
0.538,-1.908,0.016,-47.546,85.449,-49.927
0.574,-1.716,0.067,-50.720,98.938,-62.256
0.646,-1.412,0.107,-54.993,107.117,-73.425
0.692,-1.210,0.108,-54.871,110.229,-78.552
0.690,-0.991,0.077,-58.838,109.009,-83.679
0.664,-0.738,0.063,-64.880,108.154,-85.327
0.607,-0.443,0.015,-70.862,107.483,-82.947
0.532,-0.159,-0.049,-74.768,109.253,-76.538
0.473,0.077,-0.100,-77.515,115.173,-65.491
0.411,0.247,-0.146,-77.759,124.207,-49.744
0.360,0.361,-0.167,-76.294,136.475,-29.785
0.329,0.436,-0.147,-74.585,150.330,-5.249
0.304,0.478,-0.101,-72.632,162.415,22.583
0.288,0.492,-0.037,-67.444,168.152,51.758
0.288,0.453,0.013,-58.411,166.016,79.773
0.298,0.386,0.063,-47.119,156.067,102.600
0.300,0.324,0.132,-34.973,139.404,117.432
0.293,0.217,0.176,-20.874,115.784,124.695
0.300,0.111,0.224,-8.911,86.792,123.108
0.309,0.056,0.254,0.061,53.467,113.708
0.290,0.006,0.234,6.775,17.822,98.511
0.263,-0.037,0.187,11.047,-15.808,79.895
0.222,-0.044,0.136,12.634,-45.349,59.143
0.172,-0.029,0.095,13.000,-69.214,39.978
0.102,-0.021,0.049,13.672,-86.975,25.574
0.023,-0.009,0.001,13.489,-98.145,15.625
-0.045,0.012,-0.041,11.047,-101.257,10.254
-0.094,0.029,-0.079,8.240,-97.046,7.629
-0.121,0.025,-0.107,6.592,-86.304,6.653
-0.138,0.007,-0.129,5.615,-70.679,5.554
-0.142,-0.016,-0.134,5.493,-51.208,3.357
-0.121,-0.050,-0.125,6.775,-30.579,0.916
-0.081,-0.090,-0.110,9.399,-10.986,-1.770
-0.035,-0.117,-0.092,13.367,5.737,-4.089
0.018,-0.128,-0.070,17.517,19.287,-7.019
0.073,-0.137,-0.046,21.729,28.687,-9.827
0.139,-0.189,-0.021,26.611,34.363,-11.353
0.194,-0.244,0.008,31.372,36.072,-12.756
0.257,-0.291,0.060,36.499,33.020,-12.573
0.326,-0.388,0.076,42.358,25.696,-10.376
0.421,-0.476,0.176,48.645,16.296,-7.751
0.542,-0.650,0.241,57.068,1.160,-0.854
0.651,-0.862,0.322,64.941,-17.395,8.545
0.728,-1.082,0.377,70.984,-41.748,19.287
0.771,-1.279,0.449,73.486,-68.176,31.799
0.763,-1.489,0.473,72.937,-95.520,46.509
0.687,-1.736,0.447,66.711,-119.385,62.012
0.599,-1.962,0.406,52.673,-134.766,72.144
0.551,-2.143,0.351,33.813,-140.259,75.745
0.538,-2.262,0.304,13.184,-135.010,73.914
0.508,-2.345,0.282,-5.615,-120.789,66.101
0.470,-2.368,0.249,-22.339,-101.013,52.551
0.493,-2.248,0.233,-38.574,-76.233,34.363
0.578,-2.025,0.236,-51.636,-49.377,11.963
0.662,-1.813,0.243,-56.030,-26.001,-10.986
0.720,-1.675,0.262,-50.537,-7.019,-32.043
0.767,-1.579,0.281,-38.696,7.935,-50.659
0.810,-1.505,0.319,-24.536,21.179,-64.209
0.841,-1.427,0.357,-11.475,32.349,-72.510
0.868,-1.337,0.384,-0.305,40.527,-77.087
0.892,-1.219,0.395,10.559,44.739,-80.750
0.918,-1.102,0.395,21.545,45.105,-83.069
0.921,-0.982,0.378,32.654,41.931,-83.557
0.908,-0.953,0.325,43.884,36.255,-81.177
0.946,-1.007,0.335,50.842,28.809,-80.750
0.923,-0.894,0.320,49.622,14.648,-85.815
0.878,-0.757,0.312,47.546,-1.404,-83.130
0.841,-0.715,0.279,45.654,-17.944,-74.646
0.762,-0.654,0.219,40.894,-35.522,-67.322
0.679,-0.576,0.194,35.583,-48.950,-57.617
0.625,-0.487,0.195,32.593,-60.791,-44.739
0.592,-0.420,0.151,32.104,-74.646,-29.663
0.545,-0.484,0.116,34.912,-86.182,-12.878
0.493,-0.546,0.099,33.081,-96.191,-1.709
0.452,-0.536,0.101,28.992,-103.821,6.592
0.425,-0.513,0.113,26.550,-107.300,15.564
0.404,-0.515,0.111,26.550,-109.131,23.132
0.372,-0.573,0.100,27.710,-108.459,29.175
0.325,-0.653,0.094,28.137,-105.408,33.264
0.288,-0.727,0.087,26.489,-99.976,36.255
0.274,-0.812,0.078,24.292,-93.628,38.757
0.262,-0.921,0.061,21.179,-86.853,40.466
0.241,-1.017,0.055,16.724,-78.918,40.649
0.228,-1.089,0.055,12.268,-70.007,39.734
0.229,-1.143,0.073,8.972,-60.974,38.696
0.236,-1.198,0.088,7.385,-53.101,38.086
0.239,-1.239,0.099,7.629,-46.753,36.316
0.244,-1.242,0.135,8.850,-40.405,33.325
0.258,-1.232,0.153,11.963,-36.072,28.931
0.266,-1.207,0.153,15.991,-32.959,22.827
0.276,-1.172,0.154,19.897,-29.419,16.907
0.293,-1.135,0.155,23.682,-26.367,10.620
0.305,-1.078,0.153,26.062,-23.621,4.089
0.322,-1.024,0.153,27.710,-20.935,-0.854
0.339,-0.989,0.147,27.649,-18.616,-4.028
0.348,-0.932,0.138,25.757,-15.930,-6.714
0.347,-0.854,0.134,22.400,-11.902,-7.751
0.347,-0.800,0.130,18.738,-7.812,-6.958
0.344,-0.742,0.125,14.771,-3.540,-4.944
0.345,-0.736,0.115,10.864,0.916,-0.732
0.346,-0.748,0.101,6.042,4.944,4.089
0.342,-0.753,0.096,0.488,9.216,8.667
0.343,-0.761,0.104,-5.249,13.062,13.794
0.345,-0.778,0.109,-10.132,14.343,18.555
0.339,-0.824,0.106,-13.733,13.977,22.827

0.819,-1.640,0.411,-29.419,-1.160,50.476
0.900,-1.749,0.481,-40.283,-13.977,69.031
0.921,-1.867,0.495,-51.270,-31.250,89.417
0.934,-2.016,0.449,-61.279,-49.805,105.957
0.944,-2.199,0.398,-71.045,-62.805,116.455
0.912,-2.340,0.322,-81.238,-67.627,117.859
0.849,-2.395,0.252,-90.515,-63.721,109.375
0.800,-2.370,0.221,-97.168,-51.758,94.482
0.797,-2.337,0.235,-98.267,-32.715,75.500
0.834,-2.337,0.272,-93.384,-10.620,54.199
0.889,-2.331,0.309,-84.839,10.132,31.799
0.923,-2.278,0.341,-76.233,27.588,10.864
0.955,-2.191,0.359,-68.909,40.894,-6.348
0.959,-2.032,0.353,-62.927,49.805,-20.325
0.937,-1.867,0.335,-56.824,57.068,-29.297
0.914,-1.664,0.306,-50.415,63.354,-35.461
0.916,-1.532,0.278,-41.809,69.153,-38.818
0.856,-1.378,0.241,-36.194,72.693,-43.884
0.784,-1.214,0.262,-35.400,76.843,-48.828
0.772,-1.009,0.288,-36.987,79.102,-53.894
0.740,-0.867,0.261,-37.537,76.660,-59.631
0.656,-0.695,0.230,-38.757,73.242,-67.932
0.599,-0.525,0.228,-37.842,71.411,-75.012
0.560,-0.359,0.198,-33.936,68.176,-81.299
0.505,-0.267,0.155,-28.259,66.101,-84.412
0.435,-0.195,0.112,-23.437,65.552,-86.426
0.366,-0.111,0.086,-21.240,66.101,-87.524
0.315,-0.031,0.054,-18.250,69.702,-86.670
0.304,0.053,0.074,-15.564,77.209,-84.839
0.306,0.146,0.070,-11.475,83.008,-80.017
0.293,0.162,0.022,-4.272,85.876,-71.899
0.285,0.137,0.008,1.953,89.294,-64.026
0.300,0.155,0.054,6.836,92.773,-56.458
0.320,0.177,0.085,14.221,91.553,-46.997
0.330,0.157,0.093,22.461,85.938,-35.522
0.326,0.131,0.113,28.442,77.576,-24.475
0.315,0.127,0.127,32.654,66.589,-13.794
0.301,0.116,0.134,36.377,53.528,-3.723
0.295,0.093,0.134,38.452,39.734,5.554
0.275,0.091,0.130,38.757,25.208,13.367
0.235,0.101,0.120,38.452,10.620,19.897
0.179,0.101,0.103,37.964,-2.869,25.635
0.126,0.101,0.086,36.438,-14.099,31.006
0.086,0.099,0.066,34.607,-22.949,35.706
0.068,0.080,0.050,32.654,-28.870,39.673
0.062,0.052,0.045,31.128,-32.776,41.809
0.063,0.030,0.048,30.029,-35.461,42.419
0.078,-0.002,0.049,29.785,-37.292,42.175
0.100,-0.038,0.050,29.419,-39.368,40.710
0.116,-0.077,0.052,29.602,-41.138,39.246
0.127,-0.128,0.058,29.297,-42.786,38.513
0.146,-0.195,0.068,29.053,-44.739,38.879
0.171,-0.265,0.088,29.785,-46.143,39.978
0.199,-0.333,0.129,31.799,-48.035,41.687
0.240,-0.425,0.175,35.706,-51.575,44.006
0.286,-0.553,0.225,41.504,-57.007,45.532
0.337,-0.714,0.282,49.194,-65.430,45.837
0.407,-0.893,0.344,58.289,-76.233,44.861
0.515,-1.093,0.391,67.627,-89.111,41.870
0.644,-1.322,0.427,75.012,-104.614,37.720
0.717,-1.541,0.444,75.745,-122.375,34.363
0.722,-1.739,0.425,67.078,-139.587,34.119
0.672,-1.877,0.372,48.096,-153.015,38.147
0.606,-2.013,0.285,20.935,-160.156,45.959
0.552,-2.088,0.193,-11.963,-160.156,53.162
0.500,-2.052,0.115,-46.875,-151.367,56.641
0.441,-1.969,0.058,-79.773,-133.789,56.763
0.396,-1.886,0.026,-106.934,-109.192,52.368
0.364,-1.762,0.018,-125.610,-79.224,42.297
0.359,-1.596,0.026,-135.864,-44.800,28.076
0.380,-1.420,0.043,-137.207,-7.751,12.146
0.405,-1.273,0.062,-130.188,29.419,-2.625
0.426,-1.177,0.067,-116.821,65.063,-15.808
0.462,-1.152,0.074,-100.342,97.351,-27.710
0.525,-1.151,0.072,-82.642,124.451,-38.025
0.599,-1.121,0.083,-66.589,146.179,-47.852
0.671,-1.037,0.128,-52.490,161.865,-58.472
0.760,-0.934,0.179,-39.063,169.373,-68.054
0.837,-0.842,0.229,-24.597,168.030,-74.707
0.879,-0.779,0.283,-11.353,158.264,-78.003
0.885,-0.717,0.312,0.305,140.198,-79.468
0.861,-0.622,0.326,10.803,117.432,-79.041
0.829,-0.536,0.340,21.606,94.055,-75.500
0.792,-0.465,0.359,32.593,70.557,-69.824
0.755,-0.397,0.371,42.969,46.326,-62.622
0.721,-0.372,0.362,53.650,23.437,-52.979
0.687,-0.386,0.365,63.232,3.906,-42.419
0.647,-0.414,0.390,70.129,-13.306,-31.860
0.590,-0.491,0.376,73.303,-31.555,-22.949
0.542,-0.518,0.374,70.068,-46.387,-16.541
0.557,-0.538,0.406,62.622,-56.519,-10.071
0.578,-0.542,0.395,54.138,-67.383,-4.517
0.547,-0.637,0.338,45.166,-78.430,0.366
0.466,-0.737,0.286,33.142,-83.740,2.686
0.433,-0.723,0.299,19.226,-82.886,2.808
0.445,-0.709,0.292,10.498,-80.811,6.836
0.443,-0.767,0.253,5.798,-78.125,13.062
0.422,-0.861,0.237,2.502,-72.693,17.944
0.416,-0.890,0.250,-0.793,-65.491,19.958
0.427,-0.879,0.248,-1.648,-58.472,22.705
0.443,-0.956,0.234,2.136,-51.880,27.588
0.456,-1.054,0.233,6.470,-45.715,28.931
0.467,-1.093,0.247,9.155,-39.307,27.222
0.500,-1.137,0.270,13.123,-32.898,25.513
0.557,-1.165,0.300,17.090,-28.259,22.400
0.606,-1.154,0.336,20.386,-26.428,18.799
0.647,-1.129,0.374,23.621,-26.733,15.564
0.695,-1.094,0.405,26.794,-29.419,12.146
0.727,-1.047,0.423,28.076,-33.081,9.460
0.733,-0.998,0.435,28.442,-37.415,7.690
0.718,-0.934,0.434,26.245,-41.809,7.080
0.691,-0.875,0.416,22.095,-44.556,8.423
0.662,-0.848,0.387,16.174,-44.922,11.169
0.623,-0.817,0.358,8.423,-43.152,14.587
0.584,-0.780,0.327,-0.610,-39.307,18.982
0.546,-0.766,0.297,-8.850,-34.180,23.987
0.502,-0.765,0.271,-16.602,-27.344,28.503
0.464,-0.761,0.256,-23.804,-19.104,32.288
0.431,-0.755,0.246,-29.846,-10.681,35.095

0.706,-1.763,0.420,0.732,-28.076,34.241
0.722,-1.902,0.449,5.981,-34.180,31.555
0.724,-2.043,0.453,10.193,-39.490,27.710
0.708,-2.203,0.431,12.634,-43.274,22.583
0.686,-2.359,0.381,11.108,-44.189,15.930
0.670,-2.478,0.329,5.920,-41.199,7.996
0.669,-2.544,0.282,-1.709,-33.997,-0.427
0.691,-2.587,0.239,-9.888,-23.071,-9.705
0.711,-2.610,0.187,-19.226,-9.644,-21.912
0.699,-2.581,0.139,-30.396,5.676,-36.865
0.677,-2.413,0.122,-42.786,24.048,-52.368
0.693,-2.140,0.118,-52.307,43.884,-64.148
0.714,-1.901,0.090,-53.528,62.866,-68.909
0.755,-1.799,0.097,-50.476,80.383,-71.106
0.713,-1.500,0.089,-49.988,93.567,-75.806
0.686,-1.342,0.142,-43.640,106.689,-74.707
0.671,-1.056,0.184,-37.903,114.929,-74.646
0.691,-0.922,0.199,-26.794,119.995,-68.665
0.688,-0.855,0.201,-16.663,121.460,-63.416
0.656,-0.769,0.198,-11.475,120.422,-59.143
0.626,-0.663,0.208,-9.583,118.652,-53.711
0.603,-0.523,0.221,-10.132,115.173,-48.401
0.556,-0.395,0.220,-11.353,110.229,-41.626
0.469,-0.315,0.191,-12.878,105.469,-33.630
0.365,-0.228,0.164,-17.029,103.027,-26.611
0.267,-0.126,0.122,-24.231,103.760,-18.860
0.178,-0.020,0.068,-32.959,107.544,-10.254
0.109,0.099,0.025,-42.114,113.892,-2.502
0.070,0.222,0.007,-49.011,120.911,4.761
0.059,0.321,0.011,-52.124,126.038,11.658
0.075,0.364,0.020,-50.598,126.648,17.883
0.109,0.345,0.027,-46.265,121.643,22.766
0.145,0.318,0.032,-40.894,111.267,24.475
0.190,0.300,0.029,-34.973,96.619,22.949
0.233,0.279,0.017,-28.809,78.674,18.677
0.251,0.255,-0.002,-22.095,59.143,12.756
0.224,0.256,-0.032,-15.320,39.612,7.446
0.165,0.268,-0.055,-10.010,22.583,5.493
0.108,0.289,-0.070,-4.456,8.911,6.592
0.070,0.279,-0.085,2.136,-0.854,10.437
0.052,0.242,-0.100,9.033,-6.836,15.930
0.043,0.197,-0.105,15.442,-9.338,21.118
0.045,0.147,-0.096,21.301,-9.766,25.146
0.068,0.078,-0.080,26.123,-9.460,27.466
0.097,-0.002,-0.060,30.396,-9.705,28.137
0.128,-0.082,-0.042,33.325,-11.230,27.283
0.163,-0.166,-0.020,35.095,-14.099,25.574
0.201,-0.241,0.000,35.645,-18.677,23.743
0.242,-0.307,0.018,35.583,-24.841,22.339
0.287,-0.361,0.044,35.156,-32.471,21.484
0.340,-0.423,0.072,35.645,-41.565,21.301
0.390,-0.514,0.098,37.537,-52.246,22.034
0.424,-0.640,0.117,40.222,-64.148,24.170
0.459,-0.784,0.144,42.480,-76.233,27.649
0.509,-0.950,0.185,43.274,-86.792,32.532
0.548,-1.139,0.234,42.542,-97.534,39.246
0.548,-1.321,0.260,39.246,-108.887,46.326
0.516,-1.490,0.247,31.067,-118.103,52.795
0.485,-1.591,0.220,17.639,-122.437,56.641
0.465,-1.649,0.197,3.357,-121.094,58.716
0.458,-1.683,0.186,-9.460,-114.868,59.509
0.439,-1.746,0.177,-18.677,-105.225,58.228
0.420,-1.814,0.171,-23.682,-93.140,55.298
0.439,-1.838,0.187,-26.184,-78.918,49.133
0.500,-1.825,0.213,-25.024,-63.904,38.025
0.584,-1.802,0.242,-19.409,-50.476,21.484
0.667,-1.794,0.281,-9.338,-39.368,1.709
0.721,-1.818,0.317,3.784,-31.006,-19.104
0.754,-1.844,0.343,16.418,-24.597,-38.696
0.799,-1.817,0.360,25.513,-19.409,-54.810
0.846,-1.745,0.387,31.677,-15.381,-66.406
0.849,-1.651,0.391,38.086,-13.489,-73.975
0.827,-1.550,0.367,43.396,-11.597,-78.491
0.807,-1.452,0.345,45.410,-7.568,-81.482
0.787,-1.344,0.311,43.762,-1.953,-84.229
0.767,-1.213,0.277,39.185,5.493,-85.999
0.756,-1.077,0.239,33.020,13.916,-85.205
0.752,-0.950,0.213,26.489,22.095,-81.909
0.738,-0.801,0.213,19.775,27.893,-76.172
0.702,-0.669,0.213,15.442,30.029,-65.918
0.681,-0.594,0.222,14.221,29.175,-52.185
0.681,-0.534,0.273,14.404,23.926,-37.842
0.680,-0.494,0.279,16.418,11.230,-22.095
0.654,-0.517,0.263,19.836,-4.272,-5.127
0.582,-0.500,0.262,21.484,-20.386,9.766
0.539,-0.478,0.241,24.414,-37.537,25.208
0.516,-0.513,0.209,28.625,-53.650,39.612
0.513,-0.460,0.226,30.823,-69.336,49.438
0.470,-0.568,0.163,35.522,-86.182,60.059
0.334,-0.765,0.095,34.912,-99.731,61.646
0.251,-0.741,0.134,24.475,-105.103,53.467
0.261,-0.670,0.149,18.433,-105.530,48.279
0.277,-0.708,0.127,17.761,-103.516,46.204
0.242,-0.834,0.102,16.968,-99.915,43.884
0.193,-0.902,0.108,13.611,-94.666,39.490
0.169,-0.945,0.099,9.399,-88.379,35.828
0.163,-0.989,0.093,5.554,-80.017,33.386
0.156,-1.037,0.088,2.930,-71.045,31.799
0.151,-1.068,0.090,0.854,-61.829,29.602
0.157,-1.087,0.102,0.366,-52.002,26.978
0.172,-1.116,0.120,1.831,-41.931,24.109
0.182,-1.137,0.135,3.723,-32.593,20.142
0.198,-1.113,0.150,5.676,-23.071,15.503
0.223,-1.072,0.158,7.874,-14.282,10.071
0.244,-1.046,0.159,10.315,-6.104,3.235
0.260,-1.008,0.156,11.719,1.892,-3.845
0.280,-0.966,0.156,12.451,10.559,-10.803
0.305,-0.920,0.156,11.963,19.043,-16.602
0.330,-0.915,0.146,10.498,27.039,-20.813
0.349,-0.925,0.144,6.775,34.424,-24.719
0.359,-0.922,0.146,1.099,40.466,-27.771
0.386,-0.888,0.156,-6.042,45.471,-28.687
0.402,-0.863,0.145,-12.024,48.950,-27.466
0.401,-0.870,0.141,-17.639,51.880,-25.085
0.393,-0.869,0.133,-22.583,54.138,-23.071
0.389,-0.873,0.125,-26.123,56.030,-20.813
0.400,-0.888,0.120,-27.344,57.556,-18.250
0.413,-0.909,0.109,-26.978,57.495,-16.052
0.427,-0.938,0.101,-24.963,56.519,-14.343

0.606,-1.795,0.303,1.465,-27.588,21.240
0.621,-1.929,0.294,-5.676,-33.264,24.048
0.632,-2.032,0.283,-13.611,-37.354,28.259
0.647,-2.109,0.268,-21.423,-40.039,32.104
0.664,-2.160,0.254,-27.588,-41.321,34.302
0.676,-2.191,0.247,-31.189,-40.161,34.302
0.680,-2.217,0.250,-32.227,-37.476,31.982
0.687,-2.232,0.259,-30.212,-34.119,27.222
0.706,-2.225,0.271,-25.879,-30.457,20.569
0.725,-2.212,0.279,-20.325,-27.588,12.207
0.736,-2.189,0.281,-13.733,-25.635,2.747
0.744,-2.169,0.270,-6.958,-24.353,-6.653
0.768,-2.176,0.250,-1.221,-23.193,-17.639
0.770,-2.072,0.224,0.732,-21.790,-31.067
0.761,-1.875,0.237,-0.977,-18.616,-43.091
0.729,-1.604,0.234,-3.174,-15.198,-50.964
0.713,-1.379,0.230,-4.395,-10.742,-53.650
0.675,-1.153,0.224,-6.653,-5.737,-54.260
0.609,-0.964,0.229,-9.338,0.305,-52.979
0.516,-0.728,0.241,-12.390,7.324,-50.232
0.437,-0.500,0.242,-13.977,15.930,-43.213
0.375,-0.342,0.227,-12.451,27.100,-32.898
0.317,-0.253,0.201,-10.681,40.527,-22.095
0.245,-0.205,0.171,-10.803,56.030,-12.329
0.178,-0.148,0.151,-13.000,72.693,-3.601
0.130,-0.099,0.127,-16.418,89.050,4.456
0.103,-0.070,0.096,-21.301,105.164,11.414
0.097,-0.045,0.082,-27.039,120.117,16.418
0.107,-0.025,0.082,-32.288,132.263,19.836
0.130,-0.010,0.083,-36.438,140.137,21.912
0.173,0.002,0.098,-38.330,143.738,22.095
0.236,0.016,0.129,-37.903,142.090,21.179
0.301,0.035,0.164,-35.339,133.789,19.897
0.342,0.052,0.181,-31.067,119.263,18.860
0.328,0.062,0.179,-26.672,99.915,18.799
0.277,0.081,0.164,-23.437,78.796,20.935
0.205,0.109,0.137,-21.484,58.594,25.879
0.127,0.131,0.105,-20.264,41.870,32.776
0.076,0.134,0.080,-19.775,29.602,40.344
0.051,0.129,0.059,-19.348,20.874,45.532
0.036,0.117,0.042,-18.311,14.648,47.913
0.026,0.107,0.026,-17.334,10.071,47.791
0.038,0.094,0.010,-16.357,6.653,45.715
0.069,0.072,0.000,-14.404,3.845,42.175
0.108,0.041,0.001,-12.207,0.671,38.269
0.150,-0.006,0.007,-8.789,-3.784,33.875
0.191,-0.060,0.017,-5.066,-9.644,29.968
0.225,-0.105,0.028,-2.197,-17.029,26.733
0.257,-0.166,0.024,1.099,-25.818,25.391
0.274,-0.230,0.046,3.662,-34.729,26.184
0.273,-0.310,0.052,5.981,-45.105,29.358
0.272,-0.416,0.068,8.667,-55.054,35.156
0.283,-0.549,0.100,12.024,-63.965,41.687
0.297,-0.696,0.153,17.090,-72.510,47.058
0.307,-0.865,0.201,23.926,-81.482,51.270
0.320,-1.063,0.232,30.029,-90.332,53.406
0.326,-1.265,0.251,32.776,-98.755,53.528
0.316,-1.419,0.252,29.053,-105.103,53.101
0.282,-1.508,0.233,17.029,-109.131,52.673
0.269,-1.569,0.207,-0.916,-109.924,51.270
