aX,aY,aZ,gX,gY,gZ
0.520,-1.767,0.667,25.574,-28.259,16.907
0.527,-1.951,0.711,31.677,-28.503,14.038
0.531,-2.079,0.746,36.682,-27.466,8.667
0.539,-2.219,0.774,40.466,-24.658,0.854
0.533,-2.326,0.772,42.114,-18.738,-9.094
0.544,-2.404,0.768,39.001,-9.399,-21.179
0.554,-2.411,0.741,28.259,3.357,-34.241
0.550,-2.357,0.696,11.292,20.813,-46.814
0.532,-2.231,0.641,-9.277,42.419,-57.190
0.508,-2.043,0.591,-31.799,67.993,-64.331
0.508,-1.836,0.552,-51.880,95.093,-69.580
0.523,-1.620,0.517,-67.261,121.033,-73.181
0.526,-1.405,0.486,-76.904,144.836,-75.256
0.500,-1.176,0.454,-82.275,164.551,-76.416
0.443,-0.937,0.400,-84.839,180.725,-75.684
0.403,-0.702,0.323,-85.449,192.688,-73.181
0.398,-0.467,0.259,-84.656,201.721,-69.824
0.416,-0.230,0.215,-82.886,206.665,-64.392
0.437,-0.005,0.177,-80.017,204.407,-56.274
0.457,0.184,0.154,-76.111,193.481,-45.959
0.469,0.320,0.141,-70.862,173.767,-34.546
0.455,0.400,0.121,-64.148,147.400,-22.461
0.402,0.437,0.098,-55.359,117.859,-10.803
0.320,0.435,0.069,-45.837,88.867,-0.610
0.227,0.416,0.044,-36.011,63.843,9.094
0.135,0.394,0.037,-26.672,44.556,17.700
0.053,0.354,0.034,-17.700,31.616,24.170
-0.015,0.304,0.030,-10.193,24.536,28.137
-0.044,0.256,0.035,-3.967,22.278,30.823
-0.045,0.208,0.053,1.343,22.583,31.738
-0.018,0.156,0.079,5.676,21.912,29.785
0.043,0.127,0.107,8.667,18.066,25.879
0.100,0.109,0.133,10.620,8.545,22.522
0.137,0.088,0.142,12.268,-5.310,19.348
0.151,0.070,0.140,13.855,-21.606,16.418
0.138,0.050,0.129,15.198,-37.231,13.245
0.117,0.023,0.106,17.090,-49.194,9.155
0.103,-0.014,0.097,19.348,-55.603,3.845
0.111,-0.049,0.110,22.034,-57.007,-2.136
0.136,-0.097,0.131,26.855,-55.115,-6.775
0.170,-0.163,0.164,33.020,-51.331,-10.559
0.228,-0.260,0.210,39.612,-47.241,-12.634
0.295,-0.411,0.272,48.401,-43.274,-12.207
0.339,-0.588,0.328,57.129,-40.588,-8.789
0.358,-0.796,0.377,64.575,-39.490,-2.747
0.365,-1.024,0.436,70.007,-38.757,6.592
0.360,-1.256,0.506,73.059,-37.170,19.287
0.338,-1.474,0.572,72.632,-35.645,32.898
0.319,-1.654,0.608,68.359,-35.583,43.823
0.335,-1.762,0.616,60.303,-36.682,49.744
0.386,-1.859,0.601,51.575,-38.208,49.683
0.441,-2.025,0.609,46.021,-39.551,42.053
0.508,-2.155,0.627,42.297,-40.955,25.452
0.581,-2.108,0.642,37.842,-40.894,2.380
0.626,-1.880,0.668,31.372,-38.879,-21.729
0.633,-1.642,0.685,26.611,-36.377,-43.457
0.636,-1.489,0.668,25.452,-33.691,-58.044
0.599,-1.396,0.630,26.184,-28.381,-65.247
0.541,-1.317,0.581,26.184,-18.921,-68.542
0.509,-1.230,0.535,23.987,-6.042,-68.115
0.490,-1.138,0.501,19.653,10.132,-63.904
0.467,-1.051,0.471,14.709,28.015,-57.251
0.458,-0.983,0.455,10.376,45.715,-49.316
0.457,-0.920,0.449,7.629,60.425,-40.588
0.457,-0.877,0.445,5.554,70.984,-31.860
0.474,-0.844,0.444,3.845,76.233,-23.987
0.504,-0.807,0.445,2.380,74.707,-16.907
0.530,-0.769,0.443,0.854,65.308,-10.620
0.544,-0.737,0.430,-0.671,49.072,-5.554
0.527,-0.710,0.405,-1.526,27.954,-2.563
0.490,-0.687,0.370,-2.380,5.798,-0.427
0.438,-0.670,0.332,-2.625,-14.038,0.549
0.380,-0.666,0.299,-2.014,-30.396,0.549
0.314,-0.666,0.272,-0.488,-41.626,-0.305
0.245,-0.658,0.249,1.831,-48.035,-1.709
0.185,-0.651,0.228,4.700,-49.194,-2.747
0.139,-0.653,0.211,7.996,-44.983,-2.991
0.105,-0.665,0.197,11.353,-36.316,-2.869
0.087,-0.694,0.192,14.893,-24.719,-2.625
0.085,-0.730,0.190,17.883,-11.719,-2.258
0.089,-0.776,0.189,20.020,0.854,-2.625
0.107,-0.844,0.197,22.034,12.939,-3.296
0.132,-0.911,0.217,23.865,22.827,-4.822
0.163,-0.963,0.240,25.818,29.236,-7.935
0.189,-1.010,0.264,28.076,31.738,-12.085
0.204,-1.057,0.279,30.457,31.067,-16.907
0.211,-1.104,0.285,32.471,28.992,-22.278
0.214,-1.133,0.286,33.081,26.123,-27.710
0.216,-1.139,0.279,32.043,23.499,-32.654
0.221,-1.121,0.268,30.640,21.851,-37.354
0.227,-1.095,0.253,28.564,20.996,-41.748
0.235,-1.062,0.242,26.123,21.484,-44.922
0.249,-1.013,0.234,23.499,23.010,-46.692
0.263,-0.962,0.226,20.691,25.330,-46.936
0.273,-0.915,0.215,18.127,28.259,-45.410
0.280,-0.880,0.205,16.479,31.494,-43.030
0.285,-0.871,0.203,15.503,35.278,-39.612
0.290,-0.878,0.207,15.320,38.513,-35.339
0.294,-0.882,0.215,15.442,41.138,-30.884
0.295,-0.887,0.226,15.076,42.542,-26.184
0.292,-0.904,0.235,14.038,42.908,-21.179
0.288,-0.924,0.242,13.184,41.870,-16.357
0.286,-0.941,0.248,11.963,39.612,-11.963
0.282,-0.956,0.251,10.254,36.255,-8.301
0.278,-0.971,0.253,8.850,31.921,-5.615
0.274,-0.984,0.251,6.897,27.466,-3.845
0.269,-0.994,0.246,4.822,22.400,-3.357
0.264,-1.001,0.239,2.563,17.395,-3.235
0.260,-1.014,0.229,0.183,12.756,-3.418
0.254,-1.031,0.221,-2.075,8.728,-3.845
0.246,-1.040,0.211,-3.540,5.615,-4.578
0.240,-1.042,0.201,-5.493,3.662,-4.944
0.234,-1.042,0.193,-6.836,2.808,-5.127
0.227,-1.042,0.182,-7.690,3.296,-5.249
0.222,-1.037,0.174,-8.240,4.822,-5.249
0.222,-1.030,0.167,-7.935,7.568,-5.371
0.221,-1.016,0.161,-7.202,10.803,-5.615
0.222,-1.004,0.158,-6.531,14.648,-5.737
0.225,-0.993,0.159,-5.371,18.799,-5.859

0.337,-2.158,0.250,-13.123,-32.043,15.686
0.352,-2.268,0.247,-14.893,-29.236,8.118
0.372,-2.323,0.245,-16.907,-26.611,0.549
0.396,-2.329,0.242,-18.921,-24.170,-6.409
0.420,-2.297,0.240,-20.996,-21.484,-13.733
0.434,-2.240,0.237,-22.278,-18.738,-20.630
0.434,-2.179,0.232,-21.851,-15.381,-25.696
0.431,-2.127,0.228,-19.348,-11.047,-29.175
0.414,-2.056,0.234,-14.648,-5.493,-31.738
0.392,-1.959,0.246,-8.301,0.916,-33.142
0.376,-1.854,0.271,0.183,8.606,-33.203
0.365,-1.729,0.285,9.460,17.029,-33.447
0.364,-1.602,0.291,17.883,25.940,-34.302
0.371,-1.453,0.297,23.499,34.668,-36.255
0.391,-1.279,0.296,26.245,42.603,-39.307
0.421,-1.090,0.287,26.245,49.194,-41.931
0.436,-0.893,0.267,24.231,54.688,-44.006
0.423,-0.693,0.242,20.874,58.899,-44.312
0.421,-0.500,0.232,14.954,62.439,-41.687
0.425,-0.319,0.212,8.545,64.392,-36.560
0.405,-0.159,0.179,2.502,65.125,-28.809
0.354,-0.033,0.150,-2.991,65.674,-18.555
0.309,0.048,0.134,-7.568,66.528,-6.226
0.282,0.079,0.125,-11.230,65.979,7.385
0.234,0.092,0.118,-14.160,63.660,22.583
0.175,0.111,0.113,-17.822,59.692,36.987
0.127,0.125,0.106,-21.362,54.749,49.561
0.084,0.123,0.104,-23.315,48.645,60.242
0.050,0.117,0.104,-24.475,42.053,67.627
0.025,0.105,0.100,-24.475,34.912,70.129
0.010,0.091,0.096,-24.292,28.503,68.176
0.021,0.081,0.093,-23.315,22.339,61.523
0.040,0.085,0.087,-21.484,16.357,51.941
0.058,0.081,0.084,-18.616,11.047,41.565
0.074,0.064,0.079,-15.259,5.554,31.433
0.090,0.038,0.075,-12.817,0.183,22.461
0.117,0.023,0.071,-11.658,-4.517,15.076
0.156,0.009,0.073,-10.925,-8.911,10.193
0.164,0.000,0.071,-11.169,-13.794,8.606
0.159,-0.015,0.068,-11.841,-19.226,9.827
0.161,-0.037,0.069,-11.963,-23.926,13.184
0.157,-0.060,0.069,-12.207,-27.283,18.005
0.146,-0.093,0.063,-11.963,-29.541,23.621
0.130,-0.145,0.061,-11.475,-30.273,29.175
0.123,-0.214,0.069,-10.681,-29.358,34.729
0.145,-0.299,0.089,-8.850,-27.527,39.001
0.176,-0.404,0.113,-5.920,-25.940,40.955
0.207,-0.539,0.137,-3.174,-25.269,40.466
0.239,-0.712,0.166,0.000,-26.001,39.001
0.266,-0.914,0.190,3.784,-27.832,37.903
0.284,-1.121,0.220,8.240,-31.128,37.415
0.305,-1.296,0.265,11.353,-34.851,37.964
0.330,-1.415,0.322,11.658,-38.452,40.894
0.334,-1.500,0.357,8.118,-43.030,45.410
0.303,-1.571,0.357,2.563,-48.340,48.889
0.281,-1.673,0.344,-2.502,-50.476,49.133
0.295,-1.829,0.331,-5.676,-47.363,45.044
0.350,-1.935,0.336,-8.118,-39.673,35.706
0.430,-1.895,0.356,-10.376,-28.870,20.203
0.544,-1.787,0.399,-11.047,-17.761,1.221
0.600,-1.644,0.424,-8.484,-10.376,-20.020
0.629,-1.566,0.450,-2.441,-4.761,-37.598
0.660,-1.529,0.473,5.066,0.610,-47.852
0.650,-1.504,0.483,11.475,5.920,-51.758
0.614,-1.504,0.483,15.625,11.658,-51.025
0.581,-1.495,0.456,15.991,17.883,-48.584
0.582,-1.445,0.424,13.855,25.879,-45.715
0.602,-1.388,0.405,10.925,35.583,-42.542
0.600,-1.316,0.391,7.446,43.823,-40.283
0.605,-1.242,0.384,4.456,49.194,-38.513
0.622,-1.164,0.387,2.075,50.903,-37.476
0.626,-1.074,0.384,-0.061,48.157,-36.194
0.623,-0.998,0.383,-0.610,41.809,-34.180
0.605,-0.902,0.376,-0.183,32.593,-31.494
0.575,-0.812,0.374,1.831,21.545,-26.978
0.542,-0.736,0.370,5.920,9.705,-21.179
0.507,-0.671,0.361,10.986,-1.709,-15.076
0.464,-0.618,0.350,16.052,-11.597,-8.606
0.413,-0.583,0.332,21.118,-19.897,-2.869
0.361,-0.567,0.312,25.818,-25.879,2.869
0.316,-0.569,0.288,28.748,-29.175,8.301
0.274,-0.578,0.265,30.823,-29.541,12.939
0.240,-0.589,0.246,31.311,-27.344,17.151
0.221,-0.612,0.235,30.640,-23.621,20.569
0.202,-0.639,0.224,28.687,-19.409,23.010
0.191,-0.679,0.218,25.208,-15.137,24.780
0.187,-0.724,0.213,21.057,-11.597,25.635
0.187,-0.775,0.205,16.479,-9.399,25.391
0.182,-0.840,0.198,10.986,-8.118,24.475
0.182,-0.913,0.191,6.409,-7.812,23.193
0.185,-0.982,0.190,2.625,-9.033,21.606
0.198,-1.040,0.197,0.488,-11.047,19.348
0.214,-1.089,0.206,0.366,-14.404,16.174
0.223,-1.112,0.215,2.686,-19.043,11.963
0.237,-1.125,0.230,7.202,-23.987,6.897
0.256,-1.120,0.239,13.855,-29.724,1.221
0.274,-1.113,0.246,21.545,-35.278,-4.639
0.292,-1.092,0.251,29.175,-40.039,-11.658
0.311,-1.065,0.253,36.377,-43.701,-19.043
0.325,-1.034,0.254,42.114,-46.143,-24.963
0.334,-1.001,0.253,44.922,-47.058,-29.419
0.340,-0.973,0.252,45.898,-46.570,-32.166
0.350,-0.942,0.245,44.250,-44.800,-33.386
0.349,-0.908,0.235,40.710,-41.321,-32.898
0.343,-0.882,0.228,35.461,-35.828,-31.067
0.333,-0.858,0.214,28.809,-29.114,-28.015
0.327,-0.845,0.210,21.423,-20.874,-23.743
0.326,-0.838,0.205,13.733,-12.451,-19.104
0.323,-0.842,0.200,6.592,-4.761,-13.977
0.319,-0.847,0.200,0.122,2.563,-8.301
0.322,-0.858,0.207,-6.042,8.850,-2.869
0.327,-0.875,0.214,-11.108,13.306,2.502
0.330,-0.902,0.216,-14.954,15.625,7.385
0.327,-0.928,0.216,-17.395,16.296,10.986
0.321,-0.952,0.219,-18.372,15.808,13.428
0.315,-0.980,0.211,-18.250,14.587,14.587
0.312,-1.013,0.214,-17.273,13.367,14.771
0.294,-1.009,0.192,-16.174,12.207,13.245
0.295,-1.022,0.198,-15.198,12.573,12.512

0.524,-1.900,0.329,-12.146,4.761,27.283
0.551,-2.052,0.354,-13.062,-2.502,27.710
0.556,-2.208,0.347,-15.930,-9.705,27.588
0.557,-2.358,0.321,-20.691,-15.503,25.146
0.556,-2.492,0.306,-26.428,-18.127,20.386
0.543,-2.561,0.297,-35.522,-16.846,13.245
0.530,-2.548,0.279,-46.204,-12.085,3.540
0.521,-2.463,0.250,-56.885,-3.601,-6.775
0.517,-2.319,0.219,-65.796,8.728,-17.395
0.518,-2.168,0.199,-71.838,23.804,-27.222
0.510,-2.029,0.179,-74.646,40.100,-34.912
0.499,-1.884,0.160,-76.172,57.312,-39.856
0.489,-1.740,0.165,-75.500,74.463,-42.664
0.487,-1.573,0.187,-74.097,90.820,-43.518
0.516,-1.394,0.215,-70.923,104.614,-43.579
0.572,-1.209,0.243,-65.491,113.220,-42.664
0.619,-1.026,0.267,-59.875,115.112,-41.077
0.625,-0.835,0.275,-55.298,111.023,-38.696
0.590,-0.628,0.260,-52.185,101.746,-34.607
0.562,-0.438,0.221,-49.927,90.454,-28.381
0.545,-0.276,0.187,-48.706,79.102,-21.606
0.502,-0.135,0.144,-48.706,68.298,-14.832
0.432,-0.001,0.087,-50.110,58.655,-7.935
0.355,0.125,0.048,-52.490,51.514,-0.671
0.281,0.215,0.023,-52.307,46.631,7.629
0.197,0.285,0.003,-48.706,42.969,16.296
0.131,0.331,-0.003,-42.480,41.199,24.963
0.080,0.351,0.001,-33.936,40.649,32.715
0.056,0.347,0.016,-23.743,40.100,38.940
0.039,0.319,0.038,-13.306,38.574,43.518
0.043,0.276,0.059,-3.540,34.729,45.776
0.062,0.224,0.080,4.761,28.137,45.959
0.081,0.166,0.085,11.169,19.409,43.152
0.101,0.126,0.081,15.747,8.789,37.842
0.089,0.101,0.064,18.127,-2.136,31.921
0.064,0.078,0.042,18.555,-12.390,27.161
0.056,0.053,0.016,17.761,-21.240,23.437
0.040,0.039,-0.005,17.029,-27.710,20.081
-0.007,0.036,-0.017,16.541,-30.823,17.883
-0.034,0.026,-0.023,16.663,-30.945,17.151
-0.030,0.014,-0.023,17.090,-28.381,17.578
-0.018,-0.010,-0.015,18.982,-23.804,18.311
0.007,-0.044,0.002,21.790,-18.860,18.677
0.044,-0.094,0.031,24.780,-14.648,18.188
0.084,-0.164,0.066,28.625,-11.841,17.395
0.131,-0.260,0.104,32.654,-10.925,16.785
0.198,-0.394,0.143,35.645,-11.841,17.456
0.277,-0.566,0.191,37.964,-14.343,19.531
0.366,-0.766,0.245,38.696,-18.616,23.804
0.455,-1.001,0.293,38.269,-25.330,31.006
0.525,-1.255,0.350,35.767,-34.241,40.955
0.561,-1.481,0.403,30.396,-46.387,50.110
0.572,-1.631,0.436,21.362,-60.547,56.091
0.563,-1.672,0.438,9.521,-74.768,57.495
0.542,-1.680,0.425,-3.113,-86.304,54.749
0.523,-1.709,0.407,-12.634,-93.811,47.913
0.500,-1.800,0.388,-18.250,-97.290,36.804
0.484,-1.857,0.370,-21.851,-96.069,21.729
0.495,-1.819,0.363,-25.452,-90.271,4.883
0.531,-1.732,0.371,-27.222,-81.787,-11.658
0.569,-1.633,0.382,-25.513,-72.937,-27.466
0.588,-1.548,0.394,-20.813,-63.782,-39.856
0.585,-1.502,0.404,-14.709,-52.795,-47.607
0.567,-1.472,0.396,-9.583,-39.673,-51.880
0.537,-1.414,0.372,-7.629,-23.926,-54.443
0.509,-1.345,0.339,-7.751,-6.531,-55.908
0.489,-1.294,0.304,-8.484,12.878,-56.580
0.481,-1.272,0.287,-8.850,33.936,-56.885
0.490,-1.240,0.284,-9.033,53.284,-58.105
0.519,-1.187,0.294,-8.789,68.481,-59.631
0.563,-1.128,0.307,-6.897,77.209,-59.998
0.600,-1.060,0.319,-3.296,78.186,-58.838
0.619,-0.995,0.325,2.319,71.838,-55.542
0.626,-0.924,0.320,9.888,59.143,-50.232
0.617,-0.853,0.314,19.409,42.175,-42.908
0.588,-0.792,0.305,29.114,23.743,-34.058
0.544,-0.742,0.292,38.757,5.371,-25.513
0.494,-0.708,0.272,47.485,-10.559,-18.311
0.440,-0.693,0.254,55.176,-23.926,-13.000
0.395,-0.684,0.242,61.768,-34.119,-9.705
0.354,-0.670,0.227,67.322,-41.077,-8.362
0.323,-0.656,0.216,71.045,-45.044,-8.484
0.297,-0.643,0.208,73.853,-46.692,-9.949
0.278,-0.638,0.207,75.867,-45.959,-11.292
0.263,-0.637,0.211,76.904,-44.189,-12.329
0.255,-0.647,0.222,76.355,-42.053,-12.573
0.253,-0.656,0.231,74.524,-40.405,-12.207
0.253,-0.665,0.238,70.557,-39.001,-10.986
0.253,-0.682,0.243,65.308,-38.635,-9.033
0.255,-0.705,0.244,58.960,-39.185,-6.470
0.256,-0.735,0.245,52.002,-40.649,-4.028
0.251,-0.769,0.243,44.617,-42.908,-2.258
0.240,-0.810,0.237,37.170,-45.410,-0.549
0.224,-0.848,0.226,29.907,-47.607,1.526
0.216,-0.897,0.217,23.193,-49.316,3.601
0.189,-0.944,0.199,16.785,-50.171,5.188
0.166,-1.016,0.189,11.169,-49.255,6.836
0.143,-1.092,0.171,5.615,-47.119,6.836
0.114,-1.171,0.161,0.732,-42.969,6.226
0.095,-1.245,0.150,-3.906,-37.476,4.700
0.081,-1.305,0.132,-7.568,-30.884,1.831
0.080,-1.340,0.130,-10.254,-21.729,-1.099
0.097,-1.332,0.136,-12.329,-12.024,-4.272
0.113,-1.296,0.135,-12.634,-3.174,-8.606
0.130,-1.241,0.133,-11.108,6.165,-13.306
0.156,-1.171,0.134,-7.935,15.625,-18.494
0.192,-1.097,0.140,-3.662,23.926,-23.560
0.229,-1.023,0.147,1.282,31.555,-28.137
0.260,-0.956,0.148,5.554,37.781,-31.372
0.288,-0.901,0.151,9.216,42.908,-33.447
0.313,-0.856,0.149,11.169,47.302,-34.119
0.341,-0.822,0.151,11.963,50.720,-33.020
0.361,-0.795,0.158,11.230,52.429,-30.701
0.371,-0.783,0.164,9.338,52.429,-26.123
0.388,-0.794,0.181,6.958,50.964,-19.958
0.407,-0.817,0.204,4.517,47.119,-13.550
0.414,-0.842,0.223,1.709,40.649,-7.263
0.413,-0.873,0.239,0.061,31.921,-1.526
0.413,-0.916,0.253,0.061,21.423,4.211

0.451,-2.094,0.393,-44.250,-15.442,79.285
0.480,-2.187,0.392,-54.749,-19.958,81.848
0.507,-2.229,0.386,-63.843,-22.644,77.393
0.522,-2.235,0.377,-70.740,-24.170,66.040
0.521,-2.240,0.369,-75.073,-24.048,50.293
0.526,-2.231,0.357,-76.233,-21.484,33.020
0.540,-2.204,0.347,-75.317,-16.846,16.174
0.545,-2.192,0.339,-72.021,-10.559,0.977
0.533,-2.197,0.333,-66.406,-2.380,-11.597
0.513,-2.179,0.328,-60.425,9.399,-22.217
0.493,-2.109,0.333,-55.969,24.353,-30.457
0.471,-1.972,0.325,-51.880,41.260,-37.292
0.457,-1.806,0.310,-48.828,60.181,-43.335
0.455,-1.612,0.281,-47.729,79.102,-48.645
0.473,-1.408,0.252,-48.584,96.558,-53.833
0.507,-1.189,0.220,-51.331,111.633,-59.021
0.550,-0.970,0.197,-54.626,123.047,-64.209
0.590,-0.758,0.189,-57.373,130.371,-68.726
0.603,-0.527,0.179,-60.364,132.874,-71.960
0.599,-0.332,0.144,-60.852,131.531,-71.777
0.532,-0.132,0.121,-58.411,128.296,-67.993
0.491,-0.008,0.114,-53.711,123.779,-59.998
0.445,0.083,0.074,-47.119,117.065,-51.270
0.356,0.156,0.031,-39.795,110.901,-40.649
0.271,0.202,0.016,-32.288,107.483,-26.672
0.207,0.248,0.018,-25.146,104.065,-13.733
0.165,0.271,0.027,-16.418,100.403,-1.648
0.143,0.274,0.050,-7.629,95.764,8.362
0.134,0.271,0.085,1.099,88.867,15.259
0.135,0.257,0.116,10.132,78.796,18.372
0.138,0.241,0.143,18.494,65.369,18.738
0.154,0.216,0.160,25.818,48.340,16.846
0.173,0.194,0.164,31.311,29.602,12.817
0.162,0.181,0.166,34.790,10.559,7.568
0.121,0.169,0.155,37.231,-7.446,2.563
0.073,0.156,0.131,38.208,-23.315,-1.404
0.046,0.141,0.104,37.964,-35.278,-3.540
0.024,0.127,0.073,36.865,-43.335,-5.737
-0.006,0.104,0.042,34.973,-47.302,-7.507
-0.034,0.079,0.012,32.104,-47.302,-8.362
-0.052,0.053,-0.011,28.687,-44.495,-8.606
-0.053,0.017,-0.029,24.658,-39.124,-8.362
-0.043,-0.013,-0.031,20.447,-31.616,-8.118
-0.018,-0.037,-0.020,16.846,-22.949,-8.240
0.012,-0.067,-0.001,15.381,-15.137,-8.118
0.048,-0.101,0.018,15.320,-8.972,-7.385
0.110,-0.162,0.039,16.846,-4.639,-5.371
0.183,-0.264,0.062,18.555,-2.380,-2.625
0.271,-0.423,0.099,19.653,-3.174,1.160
0.383,-0.615,0.147,19.897,-6.775,7.324
0.514,-0.847,0.203,17.883,-13.550,17.395
0.619,-1.103,0.263,12.146,-24.292,31.799
0.675,-1.381,0.297,3.662,-38.696,49.561
0.698,-1.707,0.327,-4.883,-54.749,68.054
0.671,-1.968,0.359,-12.695,-70.618,83.984
0.631,-2.082,0.396,-22.644,-85.144,93.750
0.635,-2.133,0.402,-34.607,-97.839,93.811
0.639,-2.247,0.398,-43.335,-106.201,84.473
0.609,-2.400,0.376,-45.898,-109.070,67.017
0.581,-2.408,0.345,-47.729,-105.652,44.006
0.585,-2.204,0.323,-52.917,-96.008,20.447
0.614,-1.972,0.313,-56.580,-81.482,-0.244
0.594,-1.747,0.303,-53.406,-64.941,-15.991
0.583,-1.561,0.339,-42.786,-45.227,-24.536
0.584,-1.398,0.380,-27.832,-23.743,-29.724
0.579,-1.273,0.406,-14.343,-1.770,-31.799
0.573,-1.196,0.425,-4.150,20.752,-30.457
0.587,-1.148,0.428,2.075,41.138,-27.405
0.605,-1.104,0.437,4.517,57.190,-23.682
0.614,-1.038,0.445,4.089,67.627,-20.020
0.638,-0.968,0.450,3.418,70.984,-17.151
0.663,-0.884,0.451,2.563,67.871,-15.381
0.680,-0.807,0.447,2.441,58.411,-14.465
0.676,-0.735,0.430,3.357,44.006,-13.977
0.653,-0.677,0.409,5.493,26.917,-13.550
0.615,-0.630,0.382,8.728,8.667,-12.634
0.569,-0.586,0.359,13.794,-8.972,-9.888
0.524,-0.566,0.339,20.813,-25.024,-5.066
0.477,-0.565,0.312,28.442,-39.185,0.122
0.420,-0.556,0.292,36.438,-50.476,6.592
0.373,-0.568,0.271,44.739,-58.594,13.672
0.348,-0.591,0.248,52.185,-64.087,19.531
0.311,-0.602,0.245,57.983,-67.139,22.827
0.294,-0.654,0.207,62.317,-68.359,25.208
0.289,-0.745,0.239,64.514,-66.650,24.902
0.259,-0.715,0.214,63.477,-66.833,20.752
0.229,-0.743,0.214,63.660,-64.575,21.301
0.217,-0.804,0.223,64.270,-60.425,21.973
0.211,-0.833,0.216,62.866,-56.885,20.569
0.226,-0.890,0.271,61.462,-51.880,19.958
0.258,-0.880,0.264,58.228,-51.941,16.357
0.240,-0.908,0.257,55.603,-51.819,15.503
0.244,-0.987,0.268,52.490,-50.720,14.587
0.233,-1.001,0.260,47.913,-50.354,11.169
0.229,-1.012,0.285,43.823,-48.096,8.911
0.250,-1.028,0.293,39.856,-46.631,6.104
0.259,-1.031,0.296,35.706,-44.983,4.395
0.276,-1.027,0.298,31.494,-42.419,4.333
0.284,-1.015,0.288,26.855,-39.917,4.089
0.279,-1.004,0.273,22.827,-36.072,3.906
0.272,-0.987,0.262,18.250,-30.029,2.502
0.274,-0.971,0.260,13.489,-22.095,0.183
0.282,-0.946,0.244,8.728,-14.160,-2.502
0.292,-0.925,0.228,3.967,-5.737,-4.333
0.312,-0.908,0.221,-0.305,3.357,-6.409
0.336,-0.886,0.221,-3.601,11.902,-7.935
0.360,-0.871,0.223,-6.470,18.799,-8.545
0.378,-0.862,0.217,-8.484,23.315,-8.606
0.396,-0.867,0.220,-9.949,26.794,-7.568
0.417,-0.867,0.225,-10.559,28.259,-5.920
0.437,-0.865,0.231,-10.742,27.649,-3.601
0.452,-0.869,0.238,-9.583,25.269,-1.648
0.460,-0.881,0.247,-8.057,21.057,0.916
0.464,-0.901,0.254,-5.676,15.259,3.113
0.463,-0.919,0.261,-2.869,8.728,4.883
0.455,-0.937,0.266,0.122,1.526,6.226
0.439,-0.952,0.267,3.174,-5.310,6.775
0.422,-0.969,0.262,5.127,-11.597,7.019
0.398,-0.984,0.254,5.737,-16.602,7.385

0.439,-2.019,0.305,13.611,0.366,-1.648
0.467,-2.203,0.310,12.207,0.244,-4.517
0.486,-2.352,0.313,8.179,0.488,-8.667
0.502,-2.466,0.313,3.174,1.526,-14.282
0.526,-2.539,0.305,-2.502,3.052,-21.423
0.543,-2.573,0.293,-9.399,5.615,-29.541
0.546,-2.560,0.273,-16.968,9.155,-37.354
0.542,-2.478,0.254,-24.963,13.855,-44.678
0.540,-2.340,0.232,-32.410,19.958,-50.842
0.540,-2.194,0.214,-36.987,26.794,-55.725
0.536,-2.044,0.212,-38.269,33.997,-58.716
0.531,-1.836,0.230,-39.551,40.710,-60.669
0.529,-1.610,0.254,-39.917,46.265,-61.768
0.500,-1.380,0.270,-39.612,50.232,-62.012
0.441,-1.142,0.257,-39.917,53.711,-60.486
0.382,-0.901,0.241,-41.016,57.129,-57.190
0.338,-0.658,0.217,-42.297,61.401,-52.490
0.310,-0.465,0.178,-42.725,66.772,-46.448
0.286,-0.308,0.113,-44.067,72.815,-41.626
0.221,-0.091,0.073,-47.729,79.895,-38.818
0.185,0.024,0.005,-48.584,87.646,-32.837
0.172,0.122,-0.048,-46.692,97.717,-27.405
0.202,0.135,-0.015,-43.945,109.009,-22.583
0.208,0.253,0.013,-39.246,111.633,-20.691
0.240,0.349,0.018,-30.457,107.727,-15.564
0.301,0.318,0.039,-17.029,100.586,-7.629
0.295,0.334,0.082,-5.859,87.585,-3.906
0.291,0.320,0.104,6.348,70.251,0.854
0.283,0.276,0.155,17.883,50.720,5.920
0.245,0.231,0.163,27.344,27.405,8.606
0.170,0.202,0.159,35.339,4.639,12.939
0.107,0.109,0.149,41.077,-13.123,18.799
0.041,0.038,0.105,41.321,-27.588,20.386
-0.036,-0.012,0.054,37.415,-35.583,19.470
-0.092,-0.056,0.015,29.724,-35.339,16.785
-0.121,-0.067,-0.013,19.836,-29.419,11.230
-0.122,-0.062,-0.036,10.254,-19.714,4.761
-0.084,-0.056,-0.052,2.014,-8.118,-1.221
-0.033,-0.053,-0.052,-4.700,3.235,-6.104
0.017,-0.058,-0.045,-9.155,12.939,-10.071
0.090,-0.059,-0.032,-11.780,19.775,-12.817
0.165,-0.065,-0.014,-12.085,22.705,-14.099
0.228,-0.091,0.005,-9.521,21.729,-13.977
0.277,-0.124,0.019,-5.371,17.273,-12.268
0.310,-0.149,0.034,-0.427,10.315,-9.216
0.331,-0.198,0.046,5.066,1.892,-4.883
0.351,-0.290,0.052,10.498,-7.141,0.244
0.376,-0.423,0.060,14.771,-15.625,6.958
0.390,-0.588,0.069,17.761,-23.743,13.489
0.402,-0.807,0.076,18.372,-30.701,18.799
0.438,-1.047,0.094,17.456,-36.255,23.376
0.484,-1.292,0.129,17.517,-40.344,27.649
0.510,-1.530,0.176,18.738,-44.678,31.799
0.504,-1.748,0.215,18.433,-49.561,35.217
0.487,-1.884,0.243,14.282,-54.260,37.354
0.492,-1.953,0.262,7.263,-58.228,37.964
0.508,-2.067,0.263,2.563,-61.951,36.194
0.530,-2.284,0.256,2.075,-64.880,31.433
0.529,-2.477,0.244,1.587,-65.674,23.071
0.536,-2.504,0.225,-4.272,-64.514,11.597
0.543,-2.333,0.190,-15.198,-60.181,-0.427
0.546,-2.117,0.169,-24.109,-52.063,-9.460
0.555,-1.983,0.165,-25.391,-41.809,-15.747
0.546,-1.880,0.159,-21.851,-30.579,-20.020
0.529,-1.767,0.161,-16.235,-16.113,-21.606
0.519,-1.624,0.177,-11.475,0.366,-21.667
0.519,-1.438,0.195,-6.592,17.334,-19.836
0.538,-1.234,0.214,-1.709,33.081,-15.564
0.567,-1.029,0.237,3.296,44.556,-10.132
0.590,-0.858,0.255,9.094,50.354,-3.845
0.611,-0.748,0.267,15.503,49.744,3.723
0.622,-0.693,0.275,22.095,42.908,12.939
0.618,-0.669,0.278,27.588,30.518,22.766
0.598,-0.658,0.283,30.884,14.709,32.654
0.564,-0.642,0.286,32.776,-3.296,41.809
0.525,-0.628,0.279,33.508,-22.888,50.293
0.478,-0.616,0.274,33.875,-42.297,58.105
0.425,-0.605,0.266,33.813,-60.486,64.453
0.367,-0.583,0.251,33.203,-75.806,68.848
0.306,-0.572,0.236,32.410,-88.074,71.411
0.269,-0.572,0.201,31.616,-96.924,72.388
0.230,-0.596,0.211,30.945,-101.196,72.388
0.227,-0.676,0.162,29.114,-104.614,69.641
0.137,-0.611,0.135,26.184,-105.042,66.040
0.120,-0.710,0.152,26.306,-99.426,68.054
0.101,-0.746,0.133,24.109,-94.971,63.416
0.071,-0.794,0.135,22.583,-88.257,59.326
0.070,-0.892,0.136,20.752,-80.444,53.894
0.058,-0.978,0.099,17.151,-73.242,46.326
0.038,-1.069,0.102,12.939,-62.866,39.368
0.024,-1.125,0.096,8.057,-52.185,30.945
0.031,-1.168,0.097,4.700,-41.016,23.193
0.073,-1.193,0.137,2.991,-29.114,15.442
0.115,-1.169,0.155,2.747,-21.118,7.385
0.170,-1.162,0.163,4.333,-15.137,0.732
0.209,-1.117,0.181,6.836,-10.254,-6.287
0.245,-1.073,0.193,9.521,-7.263,-12.695
0.302,-1.019,0.217,12.207,-5.249,-18.127
0.328,-0.957,0.211,13.855,-5.493,-22.644
0.347,-0.927,0.210,15.686,-5.371,-23.926
0.367,-0.904,0.201,15.930,-4.639,-24.536
0.367,-0.883,0.184,14.954,-3.357,-24.658
0.360,-0.869,0.180,12.329,0.427,-24.231
0.352,-0.851,0.181,8.484,5.859,-23.926
0.344,-0.843,0.177,5.066,11.841,-22.766
0.344,-0.853,0.176,1.404,18.433,-21.179
0.347,-0.869,0.176,-2.319,25.024,-19.958
0.363,-0.885,0.180,-5.737,30.396,-18.921
0.383,-0.903,0.181,-9.094,33.569,-17.822
0.404,-0.930,0.180,-11.292,34.241,-17.090
0.421,-0.955,0.176,-12.573,32.776,-16.724
0.430,-0.973,0.173,-13.245,29.785,-16.846
0.440,-0.978,0.173,-13.062,25.085,-17.029
0.448,-0.985,0.172,-11.475,19.043,-16.541
0.444,-0.992,0.173,-8.362,12.024,-15.198
0.444,-0.989,0.174,-4.517,4.944,-13.428
0.443,-0.985,0.180,-0.061,-1.526,-11.230
0.432,-0.986,0.186,4.944,-7.568,-9.094
0.416,-0.988,0.187,9.521,-13.062,-7.996

0.531,-1.879,0.273,5.066,-42.725,4.395
0.530,-2.025,0.240,1.648,-49.500,-0.122
0.527,-2.144,0.208,-3.479,-52.612,-4.517
0.528,-2.242,0.181,-9.583,-51.880,-9.521
0.532,-2.330,0.160,-14.465,-47.974,-15.320
0.534,-2.407,0.150,-17.822,-40.955,-21.545
0.533,-2.458,0.151,-19.592,-31.555,-27.832
0.529,-2.452,0.164,-20.691,-20.447,-34.058
0.519,-2.383,0.180,-21.667,-8.728,-39.429
0.504,-2.285,0.185,-22.217,3.906,-44.006
0.484,-2.160,0.171,-22.400,17.456,-47.546
0.463,-2.019,0.151,-21.729,31.738,-50.171
0.449,-1.683,0.150,-18.066,59.448,-52.979
0.476,-1.488,0.183,-13.916,70.496,-54.077
0.501,-1.294,0.225,-8.484,77.393,-54.565
0.510,-1.115,0.264,-2.563,79.529,-54.626
0.512,-0.951,0.298,2.441,76.904,-54.565
0.512,-0.796,0.316,5.920,70.496,-54.199
0.504,-0.667,0.298,7.568,61.462,-53.589
0.444,-0.496,0.281,6.348,51.819,-52.429
0.389,-0.353,0.199,4.456,43.640,-47.791
0.358,-0.289,0.181,1.892,42.175,-41.687
0.347,-0.184,0.162,-4.028,40.039,-40.039
0.284,0.001,0.129,-10.315,37.415,-38.147
0.245,0.099,0.080,-12.512,37.781,-30.273
0.225,0.123,0.046,-14.038,39.978,-23.804
0.182,0.163,0.033,-15.198,43.152,-20.142
0.153,0.194,0.038,-13.550,47.241,-15.198
0.148,0.203,0.053,-9.705,50.476,-10.498
0.136,0.224,0.069,-5.127,50.659,-8.301
0.142,0.232,0.088,-0.061,48.462,-5.005
0.155,0.216,0.088,3.601,44.739,-0.977
0.126,0.198,0.075,6.409,39.124,2.319
0.094,0.186,0.069,8.057,32.898,4.883
0.082,0.172,0.056,8.606,26.917,6.836
0.073,0.147,0.047,8.972,21.423,7.690
0.058,0.125,0.045,9.216,16.663,6.653
0.048,0.104,0.040,9.216,12.939,5.188
0.043,0.072,0.040,9.521,10.071,3.723
0.048,0.036,0.042,9.766,8.057,3.052
0.064,0.002,0.041,9.521,6.226,2.625
0.078,-0.039,0.034,8.118,4.639,2.441
0.098,-0.087,0.027,6.226,2.747,2.747
0.107,-0.117,0.022,3.296,1.160,3.601
0.114,-0.146,0.017,0.366,-0.671,4.456
0.132,-0.192,0.010,-2.075,-3.113,5.676
0.159,-0.253,0.007,-3.235,-5.615,7.080
0.193,-0.332,0.008,-3.479,-8.301,8.301
0.243,-0.446,0.022,-2.991,-11.047,9.644
0.306,-0.604,0.042,-3.052,-14.343,11.597
0.363,-0.781,0.054,-3.296,-19.043,13.489
0.425,-0.969,0.073,-4.028,-24.536,16.052
0.505,-1.158,0.096,-5.005,-30.212,20.142
0.571,-1.342,0.117,-5.005,-36.804,24.597
0.593,-1.520,0.149,-4.089,-43.884,29.053
0.571,-1.667,0.182,-3.174,-50.232,34.180
0.552,-1.786,0.212,-2.808,-55.542,38.635
0.542,-1.937,0.217,-1.770,-59.814,40.771
0.549,-2.128,0.235,1.953,-61.646,40.161
0.542,-2.258,0.266,5.493,-62.073,35.645
0.522,-2.242,0.276,5.798,-61.096,28.809
0.504,-2.114,0.273,2.686,-57.556,21.729
0.493,-1.956,0.273,-0.183,-51.697,14.771
0.486,-1.847,0.266,-0.916,-45.227,9.033
0.479,-1.802,0.250,0.488,-37.903,4.883
0.464,-1.756,0.237,1.404,-29.419,1.343
0.437,-1.680,0.231,-0.854,-19.226,-1.770
0.410,-1.603,0.214,-5.310,-7.568,-3.906
0.394,-1.526,0.199,-10.254,5.920,-6.531
0.389,-1.426,0.196,-16.174,21.240,-9.277
0.406,-1.306,0.194,-22.217,35.278,-11.414
0.449,-1.195,0.196,-26.733,45.654,-12.146
0.486,-1.092,0.201,-29.724,50.781,-11.719
0.507,-0.998,0.208,-31.006,50.232,-9.155
0.524,-0.913,0.205,-30.212,43.945,-5.798
0.519,-0.823,0.196,-28.137,34.119,-2.136
0.504,-0.757,0.190,-23.254,22.583,3.601
0.485,-0.710,0.181,-16.968,9.583,9.521
0.450,-0.676,0.174,-10.254,-2.441,15.503
0.401,-0.661,0.170,-3.174,-12.329,21.484
0.350,-0.662,0.167,3.967,-20.691,26.306
0.306,-0.663,0.164,10.498,-26.489,29.846
0.271,-0.665,0.164,16.113,-29.663,31.982
0.241,-0.667,0.162,20.874,-31.067,32.532
0.220,-0.673,0.165,24.780,-30.273,32.227
0.200,-0.674,0.169,28.076,-28.381,31.067
0.193,-0.707,0.179,30.762,-26.001,29.602
0.198,-0.773,0.175,32.410,-23.987,27.100
0.178,-0.785,0.174,32.654,-22.339,23.499
0.190,-0.869,0.186,33.691,-20.142,21.973
0.200,-0.916,0.178,31.921,-19.775,17.334
0.207,-0.979,0.178,29.541,-19.653,13.123
0.215,-1.026,0.185,26.245,-20.386,8.667
0.223,-1.067,0.183,23.437,-22.095,4.211
0.227,-1.097,0.195,21.118,-23.621,0.488
0.231,-1.107,0.207,18.982,-25.391,-2.869
0.226,-1.106,0.200,16.785,-27.344,-5.493
0.213,-1.101,0.182,14.465,-28.442,-7.324
0.205,-1.092,0.159,11.658,-27.832,-7.751
0.203,-1.068,0.137,8.423,-25.391,-7.690
0.199,-1.044,0.116,5.615,-21.118,-7.690
0.202,-1.021,0.100,2.869,-14.893,-7.446
0.210,-0.994,0.089,-0.122,-7.324,-7.080
0.220,-0.965,0.086,-2.380,0.488,-6.775
0.234,-0.936,0.084,-3.723,8.972,-6.836
0.254,-0.910,0.089,-3.845,17.029,-6.531
0.279,-0.887,0.098,-2.563,23.193,-6.104
0.304,-0.868,0.108,-0.244,27.527,-5.615
0.327,-0.861,0.123,3.113,30.029,-5.310
0.346,-0.859,0.138,6.592,29.907,-5.066
0.370,-0.860,0.154,9.949,27.344,-4.517
0.393,-0.866,0.169,13.489,22.461,-4.089
0.405,-0.879,0.181,16.357,15.747,-3.540
0.405,-0.894,0.182,18.494,7.263,-3.052
0.405,-0.908,0.185,19.531,-1.465,-2.258
0.404,-0.919,0.193,19.897,-9.949,-1.465
0.395,-0.936,0.199,19.592,-18.555,-0.916
0.385,-0.951,0.206,18.982,-26.611,-0.916
0.374,-0.969,0.212,19.165,-34.119,-1.099

0.458,-2.116,0.117,-12.756,-10.742,-1.892
0.492,-2.224,0.138,-9.521,-8.301,-5.920
0.519,-2.270,0.175,-6.714,-5.920,-12.207
0.529,-2.273,0.202,-4.211,-4.028,-19.653
0.533,-2.267,0.228,-1.587,-2.197,-27.588
0.531,-2.224,0.207,-0.488,-0.549,-35.034
0.526,-2.138,0.182,-1.221,2.686,-40.344
0.519,-2.039,0.160,-3.052,7.690,-43.457
0.512,-1.946,0.136,-4.517,13.550,-44.983
0.508,-1.824,0.134,-6.165,20.264,-44.739
0.513,-1.690,0.153,-7.812,26.367,-44.128
0.530,-1.554,0.180,-7.996,30.701,-43.884
0.542,-1.424,0.211,-7.446,32.104,-43.823
0.542,-1.295,0.238,-5.859,31.006,-43.945
0.534,-1.170,0.253,-4.028,27.161,-43.701
0.515,-1.033,0.253,-2.930,21.912,-43.213
0.492,-0.890,0.246,-2.991,16.418,-42.480
0.458,-0.734,0.226,-3.967,11.841,-41.077
0.423,-0.585,0.204,-6.042,9.460,-38.452
0.393,-0.461,0.182,-7.996,8.606,-35.400
0.372,-0.353,0.169,-9.583,9.583,-31.799
0.362,-0.254,0.158,-10.620,11.108,-27.222
0.328,-0.139,0.149,-10.132,11.902,-21.606
0.297,-0.074,0.133,-7.019,12.146,-14.038
0.271,-0.007,0.134,-2.930,13.184,-5.859
0.253,0.021,0.144,1.770,13.916,1.587
0.231,0.051,0.143,6.104,12.939,9.583
0.206,0.050,0.142,10.193,12.146,18.127
0.182,0.042,0.146,13.000,11.536,25.940
0.148,0.046,0.144,14.465,10.681,32.471
0.107,0.046,0.136,14.771,10.315,38.940
0.069,0.049,0.129,13.550,10.376,44.373
0.043,0.058,0.129,11.841,10.742,48.218
0.035,0.071,0.126,9.216,10.803,50.171
0.026,0.078,0.118,7.324,10.193,50.842
0.007,0.085,0.110,5.554,9.399,50.537
-0.013,0.092,0.100,3.235,8.606,49.683
-0.027,0.092,0.090,1.465,7.812,48.279
-0.020,0.083,0.080,0.183,7.568,46.692
0.002,0.066,0.073,-1.221,7.324,44.067
0.038,0.039,0.063,-2.686,6.104,40.283
0.077,0.008,0.057,-3.723,3.723,36.194
0.113,-0.036,0.053,-3.540,0.183,33.142
0.147,-0.087,0.044,-3.418,-4.883,30.884
0.179,-0.153,0.033,-4.028,-11.353,30.396
0.216,-0.255,0.031,-4.089,-18.616,31.982
0.240,-0.400,0.031,-4.517,-26.978,35.706
0.238,-0.589,0.015,-5.737,-35.828,40.710
0.233,-0.796,0.011,-7.629,-43.213,45.471
0.252,-0.982,0.031,-9.949,-48.828,48.889
0.275,-1.131,0.048,-12.939,-53.406,49.927
0.293,-1.251,0.067,-17.761,-57.434,49.438
0.323,-1.341,0.084,-23.621,-61.707,48.767
0.342,-1.406,0.101,-29.724,-65.979,49.011
0.378,-1.518,0.129,-33.325,-70.435,49.866
0.418,-1.685,0.151,-32.227,-75.195,48.828
0.441,-1.836,0.169,-29.358,-79.285,44.983
0.474,-1.899,0.185,-27.344,-81.055,37.354
0.509,-1.901,0.191,-27.039,-80.017,25.085
0.537,-1.915,0.192,-26.611,-76.050,9.644
0.542,-1.915,0.193,-24.292,-69.092,-5.859
0.537,-1.872,0.206,-20.935,-59.143,-18.921
0.523,-1.799,0.221,-18.005,-46.021,-28.381
0.499,-1.716,0.216,-16.541,-30.212,-34.241
0.468,-1.612,0.193,-16.968,-11.230,-36.987
0.435,-1.500,0.153,-20.508,11.169,-37.720
0.408,-1.381,0.111,-25.269,37.720,-37.476
0.392,-1.277,0.069,-30.090,66.772,-37.292
0.406,-1.202,0.035,-34.546,96.191,-37.842
0.455,-1.138,0.037,-38.025,123.352,-39.185
0.501,-1.056,0.053,-40.405,144.958,-40.527
0.554,-0.985,0.078,-41.687,159.668,-41.870
0.610,-0.897,0.116,-41.016,166.199,-42.786
0.655,-0.821,0.154,-37.720,163.574,-42.175
0.688,-0.754,0.201,-31.860,152.039,-40.405
0.690,-0.677,0.223,-23.315,132.141,-36.804
0.662,-0.583,0.221,-11.475,107.666,-30.273
0.680,-0.623,0.241,0.793,83.191,-21.240
0.685,-0.572,0.248,12.085,53.833,-16.602
0.623,-0.480,0.266,23.926,23.437,-9.949
0.618,-0.526,0.252,38.086,-5.859,0.854
0.580,-0.571,0.229,48.523,-33.264,7.751
0.489,-0.562,0.225,55.786,-55.725,13.550
0.431,-0.615,0.221,62.683,-73.242,19.836
0.405,-0.668,0.222,67.749,-87.708,23.010
0.349,-0.691,0.224,71.411,-98.511,25.085
0.309,-0.790,0.213,74.585,-105.713,27.893
0.265,-0.888,0.200,75.256,-109.802,28.687
0.221,-0.973,0.196,74.402,-109.680,28.625
0.203,-1.055,0.222,71.777,-106.262,27.771
0.193,-1.111,0.241,67.200,-102.173,24.780
0.189,-1.157,0.256,61.951,-97.412,22.217
0.208,-1.197,0.276,56.091,-91.370,19.958
0.224,-1.198,0.286,49.805,-85.999,16.846
0.233,-1.180,0.300,44.861,-80.200,14.099
0.247,-1.155,0.315,40.894,-74.707,11.108
0.260,-1.122,0.328,38.147,-69.397,7.751
0.264,-1.091,0.334,35.400,-64.026,4.028
0.256,-1.069,0.330,32.104,-57.983,0.366
0.239,-1.044,0.313,27.771,-50.415,-3.052
0.224,-1.022,0.300,21.484,-40.344,-5.615
0.210,-1.007,0.287,14.587,-28.625,-8.118
0.191,-0.998,0.272,6.775,-15.259,-9.705
0.177,-0.983,0.254,-1.709,-1.038,-10.376
0.166,-0.968,0.232,-9.827,14.526,-10.376
0.152,-0.956,0.207,-17.334,30.945,-9.766
0.147,-0.948,0.186,-24.963,47.913,-8.240
0.163,-0.935,0.172,-31.006,64.331,-6.348
0.183,-0.924,0.162,-35.522,78.857,-4.150
0.199,-0.923,0.149,-38.147,91.431,-3.113
0.219,-0.926,0.138,-39.368,101.868,-2.808
0.240,-0.930,0.126,-39.124,109.985,-3.113
0.261,-0.939,0.111,-38.574,115.662,-3.662
0.289,-0.946,0.102,-37.354,119.202,-5.005
0.321,-0.946,0.098,-35.767,120.605,-6.592
0.345,-0.943,0.094,-33.447,119.812,-8.118
0.366,-0.939,0.092,-30.579,117.126,-9.338
0.386,-0.937,0.091,-27.283,112.610,-10.071
0.407,-0.932,0.094,-23.865,106.873,-10.498

0.422,-1.960,0.182,-6.592,-40.771,-6.775
0.423,-2.034,0.182,-5.432,-35.583,-11.780
0.431,-2.084,0.201,-3.296,-29.541,-17.517
0.450,-2.101,0.238,0.244,-24.048,-24.048
0.471,-2.097,0.269,3.662,-19.653,-30.945
0.484,-2.072,0.279,6.836,-16.663,-37.781
0.474,-2.010,0.272,7.935,-13.367,-43.396
0.461,-1.917,0.240,7.080,-9.705,-47.913
0.460,-1.821,0.204,4.333,-4.700,-51.147
0.458,-1.718,0.170,0.427,1.465,-52.734
0.456,-1.611,0.145,-4.700,8.728,-53.894
0.452,-1.514,0.128,-9.949,16.235,-55.359
0.434,-1.408,0.109,-15.503,23.682,-57.312
0.414,-1.281,0.090,-21.301,32.349,-58.960
0.397,-1.124,0.078,-27.405,41.809,-59.448
0.385,-0.958,0.069,-32.227,51.147,-57.922
0.383,-0.784,0.063,-35.889,59.326,-54.260
0.385,-0.600,0.061,-37.659,65.552,-48.401
0.385,-0.427,0.061,-37.354,69.580,-40.894
0.360,-0.275,0.051,-34.851,71.655,-31.677
0.328,-0.137,0.039,-31.555,72.449,-21.301
0.311,0.025,0.030,-27.588,72.876,-10.925
0.316,0.133,0.002,-20.874,72.937,-0.610
0.304,0.240,0.025,-13.062,73.059,7.874
0.304,0.324,0.044,-4.211,70.740,15.381
0.320,0.394,0.066,5.920,65.308,21.545
0.344,0.406,0.087,17.578,57.739,27.466
0.362,0.380,0.113,28.320,47.241,32.227
0.375,0.346,0.149,36.865,33.630,35.950
0.394,0.306,0.182,43.274,16.357,39.063
0.408,0.255,0.210,46.997,-3.601,42.419
0.402,0.190,0.221,48.523,-26.306,45.715
0.370,0.140,0.214,47.913,-50.110,49.133
0.340,0.094,0.195,44.617,-71.899,52.734
0.305,0.049,0.163,38.879,-91.003,55.237
0.268,0.003,0.119,31.677,-106.323,56.580
0.239,-0.039,0.078,23.193,-117.432,57.007
0.228,-0.078,0.059,14.954,-124.451,57.495
0.224,-0.131,0.056,9.338,-129.211,58.289
0.226,-0.203,0.049,5.310,-132.446,59.814
0.217,-0.293,0.045,3.296,-134.094,61.646
0.197,-0.416,0.041,2.625,-134.521,64.270
0.165,-0.581,0.034,2.869,-133.484,67.871
0.118,-0.784,0.035,3.174,-130.188,71.533
0.063,-0.987,0.025,2.502,-124.512,74.829
0.011,-1.153,0.028,-1.526,-115.967,76.904
-0.027,-1.247,0.033,-8.667,-105.225,76.843
-0.048,-1.281,0.049,-17.700,-92.529,74.402
-0.053,-1.357,0.062,-24.597,-79.285,70.068
-0.051,-1.518,0.071,-26.489,-65.857,63.477
-0.034,-1.732,0.098,-23.865,-52.429,53.833
-0.028,-1.950,0.116,-20.447,-39.856,42.236
-0.017,-2.084,0.118,-20.508,-28.381,29.114
0.030,-2.062,0.120,-26.672,-16.479,12.817
0.105,-1.968,0.112,-34.424,-4.761,-6.531
0.155,-1.901,0.091,-39.124,6.592,-27.649
0.174,-1.866,0.070,-40.833,18.372,-48.645
0.196,-1.825,0.055,-41.565,31.433,-66.772
0.225,-1.790,0.042,-41.687,45.898,-80.139
0.245,-1.728,0.027,-41.809,61.462,-88.257
0.274,-1.603,0.014,-42.236,76.965,-91.614
0.312,-1.454,0.005,-41.016,91.431,-91.797
0.348,-1.326,0.005,-37.415,104.614,-90.149
0.391,-1.229,0.013,-31.189,115.295,-87.585
0.429,-1.148,0.022,-22.095,123.047,-85.205
0.467,-1.070,0.035,-11.414,127.258,-83.374
0.512,-0.999,0.056,0.183,127.869,-81.787
0.559,-0.938,0.079,12.390,123.901,-80.139
0.600,-0.896,0.099,23.499,115.784,-78.674
0.633,-0.880,0.121,33.997,103.149,-76.599
0.661,-0.864,0.152,43.091,85.876,-73.730
0.671,-0.818,0.206,50.049,64.697,-69.946
0.677,-0.765,0.177,56.152,38.391,-63.721
0.651,-0.695,0.227,63.110,12.451,-53.589
0.660,-0.767,0.232,69.580,-13.489,-41.443
0.631,-0.729,0.255,72.205,-41.992,-35.950
0.579,-0.666,0.271,75.256,-70.374,-27.588
0.559,-0.737,0.233,80.017,-96.924,-15.198
0.495,-0.797,0.221,81.543,-117.798,-7.141
0.399,-0.776,0.228,81.360,-132.996,-1.038
0.335,-0.812,0.222,81.726,-143.066,6.653
0.287,-0.872,0.227,81.055,-148.804,11.475
0.225,-0.905,0.228,78.369,-150.818,14.038
0.172,-0.963,0.214,74.890,-148.987,17.456
0.124,-1.031,0.201,69.519,-142.944,19.592
0.073,-1.088,0.188,62.256,-133.606,20.081
0.032,-1.139,0.179,52.673,-121.338,20.203
0.004,-1.181,0.173,41.626,-106.873,18.982
-0.010,-1.217,0.165,29.785,-91.370,16.663
-0.021,-1.244,0.150,17.212,-75.500,13.794
-0.028,-1.252,0.131,5.127,-58.472,10.559
-0.033,-1.236,0.121,-5.554,-40.527,7.568
-0.022,-1.202,0.119,-14.648,-22.766,4.639
-0.005,-1.152,0.114,-21.851,-6.348,1.526
0.021,-1.095,0.113,-27.100,8.972,-1.709
0.048,-1.040,0.104,-29.785,22.583,-4.150
0.080,-0.984,0.092,-30.334,34.851,-6.714
0.112,-0.924,0.084,-29.419,45.593,-8.789
0.140,-0.876,0.087,-27.039,54.749,-10.559
0.162,-0.842,0.084,-23.254,61.707,-12.024
0.185,-0.825,0.081,-18.982,67.078,-13.000
0.203,-0.825,0.083,-14.587,71.045,-13.367
0.218,-0.830,0.087,-10.071,73.608,-12.756
0.232,-0.839,0.091,-6.042,74.768,-10.864
0.252,-0.854,0.098,-2.930,74.646,-8.423
0.271,-0.872,0.103,-0.061,72.754,-5.615
0.279,-0.901,0.109,1.770,69.336,-3.601
0.283,-0.939,0.112,2.502,65.308,-2.930
0.289,-0.976,0.118,2.747,60.059,-2.930
0.295,-1.001,0.124,2.258,53.467,-3.296
0.304,-1.017,0.130,1.526,45.776,-4.028
0.313,-1.028,0.138,0.793,37.354,-5.310
0.321,-1.036,0.145,0.427,27.832,-6.897
0.325,-1.046,0.148,-0.183,17.456,-8.362
0.324,-1.051,0.148,-0.427,6.836,-9.399
0.316,-1.052,0.144,-0.488,-2.869,-9.949
0.303,-1.046,0.136,-0.366,-11.108,-10.254
0.292,-1.036,0.130,0.122,-18.188,-10.315
0.278,-1.026,0.122,0.732,-23.254,-9.766

0.315,-2.246,0.185,0.122,56.335,-8.301
0.350,-2.306,0.183,-4.639,52.246,-18.738
0.383,-2.340,0.178,-8.911,45.471,-29.785
0.419,-2.322,0.154,-13.184,36.438,-40.527
0.457,-2.253,0.121,-16.846,27.039,-50.171
0.495,-2.153,0.104,-19.775,18.250,-58.228
0.515,-2.060,0.092,-20.630,9.521,-64.087
0.515,-1.975,0.089,-19.409,1.282,-67.200
0.512,-1.885,0.087,-17.090,-6.104,-68.420
0.507,-1.789,0.084,-14.404,-13.062,-69.397
0.500,-1.690,0.070,-11.963,-19.226,-70.496
0.491,-1.572,0.056,-8.850,-23.987,-72.083
0.480,-1.449,0.058,-5.249,-27.161,-72.693
0.468,-1.332,0.064,-0.366,-30.212,-71.594
0.462,-1.212,0.078,5.432,-33.325,-67.749
0.452,-1.086,0.104,11.414,-36.926,-60.547
0.433,-0.952,0.122,17.212,-41.321,-50.903
0.411,-0.795,0.141,23.010,-46.204,-39.368
0.391,-0.628,0.157,28.381,-51.025,-27.039
0.367,-0.460,0.157,34.180,-55.725,-14.648
0.340,-0.303,0.159,39.490,-58.899,-3.113
0.312,-0.174,0.159,44.434,-60.486,7.446
0.277,-0.079,0.163,49.194,-60.730,17.395
0.242,-0.020,0.165,53.162,-59.448,26.123
0.202,0.006,0.164,54.810,-56.885,33.447
0.147,0.007,0.176,53.772,-53.833,39.001
0.095,-0.020,0.189,50.659,-50.415,43.762
0.039,-0.035,0.209,45.044,-46.753,46.509
0.000,-0.089,0.219,38.574,-43.701,47.913
-0.044,-0.165,0.254,30.151,-44.312,46.021
-0.091,-0.149,0.294,15.320,-46.875,38.269
-0.127,-0.069,0.315,-2.563,-44.434,29.724
-0.105,-0.028,0.291,-19.165,-39.246,25.818
-0.044,-0.035,0.245,-33.081,-36.438,25.879
0.020,-0.026,0.153,-43.396,-35.156,28.137
0.094,0.007,0.109,-48.767,-35.095,31.433
0.143,0.030,0.062,-50.476,-39.795,36.377
0.169,0.019,0.014,-48.218,-47.485,42.297
0.194,-0.002,-0.015,-45.410,-55.115,47.302
0.206,-0.015,-0.023,-41.992,-61.829,51.025
0.204,-0.038,0.000,-36.926,-67.322,53.589
0.186,-0.074,0.033,-30.823,-71.472,55.237
0.177,-0.131,0.052,-24.292,-74.341,56.641
0.173,-0.231,0.062,-18.005,-76.538,58.105
0.154,-0.345,0.048,-12.817,-78.735,59.814
0.113,-0.472,0.039,-8.789,-79.224,61.401
0.061,-0.641,0.022,-6.531,-77.332,62.317
0.003,-0.851,-0.012,-7.507,-71.655,62.683
-0.056,-1.051,-0.040,-11.658,-61.768,61.890
-0.110,-1.244,-0.057,-18.127,-47.791,60.486
-0.148,-1.407,-0.067,-26.733,-30.334,57.617
-0.149,-1.494,-0.051,-37.415,-11.169,53.162
-0.119,-1.550,-0.023,-47.363,7.690,47.180
-0.116,-1.733,-0.021,-52.734,24.963,39.978
-0.145,-2.007,-0.038,-53.894,40.039,31.067
-0.149,-2.233,-0.038,-53.711,54.810,19.836
-0.062,-2.330,0.001,-54.810,68.787,5.920
0.085,-2.299,0.050,-55.176,79.346,-12.146
0.257,-2.207,0.096,-52.734,85.510,-35.583
0.376,-2.034,0.126,-51.025,87.280,-63.293
0.418,-1.818,0.121,-48.706,84.839,-90.454
0.437,-1.666,0.086,-43.152,81.604,-109.863
0.451,-1.545,0.030,-37.537,79.590,-121.094
0.448,-1.441,-0.024,-33.752,79.956,-126.648
0.426,-1.324,-0.064,-30.579,84.167,-127.930
0.407,-1.201,-0.085,-28.076,92.957,-123.535
0.415,-1.095,-0.092,-23.987,105.042,-114.624
0.440,-1.026,-0.078,-18.738,117.798,-104.065
0.464,-0.949,-0.037,-12.329,129.028,-92.651
0.501,-0.896,-0.020,-4.211,135.681,-79.468
0.554,-0.868,0.031,4.272,137.878,-66.772
0.602,-0.784,0.097,12.878,131.897,-55.908
0.650,-0.729,0.136,24.841,117.554,-43.518
0.699,-0.713,0.205,39.734,96.985,-30.457
0.726,-0.696,0.279,55.176,68.848,-18.250
0.726,-0.707,0.320,71.045,34.180,-5.554
0.695,-0.718,0.336,84.595,-2.747,6.714
0.649,-0.738,0.340,94.177,-39.368,19.226
0.597,-0.770,0.330,101.563,-74.707,31.067
0.510,-0.808,0.308,105.347,-107.361,41.016
0.397,-0.843,0.288,106.384,-135.071,48.096
0.320,-0.868,0.275,103.333,-155.823,53.833
0.250,-0.915,0.243,97.900,-170.227,58.533
0.163,-0.974,0.213,90.515,-178.223,60.791
0.084,-1.024,0.205,80.688,-179.260,60.059
0.018,-1.077,0.199,69.092,-174.988,57.007
-0.022,-1.131,0.199,56.702,-166.870,52.490
-0.051,-1.164,0.201,44.067,-156.555,46.021
-0.069,-1.189,0.203,32.227,-144.775,38.940
-0.076,-1.217,0.209,21.973,-132.202,31.738
-0.086,-1.231,0.213,12.939,-119.324,24.170
-0.081,-1.224,0.221,5.859,-105.347,16.846
-0.058,-1.215,0.225,0.793,-91.187,9.766
-0.042,-1.184,0.227,-4.028,-77.881,2.686
-0.026,-1.147,0.226,-8.118,-64.941,-3.052
-0.008,-1.109,0.213,-11.536,-53.894,-7.690
0.005,-1.076,0.200,-14.648,-43.030,-11.597
0.014,-1.034,0.185,-17.700,-32.104,-14.832
0.019,-0.991,0.167,-20.874,-20.874,-17.090
0.024,-0.946,0.144,-23.499,-9.094,-18.555
0.033,-0.919,0.121,-26.794,3.601,-19.348
0.040,-0.898,0.099,-30.396,17.334,-19.653
0.056,-0.876,0.084,-34.363,31.860,-19.104
0.079,-0.859,0.077,-37.659,45.898,-17.334
0.107,-0.852,0.075,-40.405,58.044,-14.526
0.130,-0.855,0.076,-42.175,67.749,-10.559
0.152,-0.865,0.078,-43.457,74.768,-5.981
0.170,-0.880,0.082,-42.908,79.102,-1.587
0.182,-0.905,0.083,-41.809,80.811,2.869
0.188,-0.937,0.086,-39.856,80.322,7.080
0.192,-0.964,0.089,-37.598,78.430,10.376
0.197,-0.989,0.095,-34.851,74.890,12.451
0.204,-1.007,0.100,-31.555,70.007,13.916
0.213,-1.021,0.104,-28.503,63.599,14.404
0.222,-1.027,0.108,-25.146,55.908,13.733
0.226,-1.029,0.109,-21.301,47.546,12.451
0.232,-1.034,0.109,-17.273,38.513,10.437
0.234,-1.035,0.109,-12.878,29.175,8.057
0.235,-1.026,0.108,-9.277,20.081,5.432

0.149,-2.378,0.086,7.324,-39.856,-8.362
0.144,-2.446,0.087,3.174,-39.368,-16.296
0.145,-2.441,0.089,-2.136,-37.354,-24.170
0.157,-2.351,0.081,-8.911,-33.936,-31.616
0.182,-2.187,0.066,-16.968,-28.809,-37.292
0.209,-2.033,0.048,-22.827,-23.132,-40.833
0.219,-1.937,0.030,-25.391,-17.456,-41.199
0.213,-1.848,0.014,-26.489,-11.841,-39.246
0.200,-1.731,0.012,-27.344,-6.775,-35.950
0.193,-1.593,0.022,-27.161,-1.892,-31.250
0.188,-1.452,0.038,-25.818,2.502,-25.330
0.181,-1.313,0.063,-22.522,6.409,-18.738
0.180,-1.170,0.096,-17.517,9.644,-12.451
0.183,-1.026,0.128,-11.169,11.597,-6.714
0.182,-0.889,0.150,-4.028,12.146,-2.380
0.175,-0.743,0.153,2.563,11.963,1.282
0.168,-0.591,0.145,7.202,12.207,3.784
0.161,-0.441,0.125,10.193,13.794,4.883
0.150,-0.315,0.096,12.634,16.785,5.615
0.138,-0.238,0.057,14.709,21.851,6.897
0.118,-0.136,0.048,16.052,28.748,7.568
0.109,-0.098,0.016,16.418,35.889,10.193
0.105,-0.009,0.002,14.587,45.654,13.245
0.118,0.008,0.038,10.681,58.105,17.517
0.138,0.079,0.081,5.371,64.270,20.508
0.153,0.144,0.069,0.427,64.270,24.292
0.162,0.160,0.065,-2.808,63.660,32.471
0.147,0.146,0.052,-7.324,60.974,40.405
0.119,0.130,0.054,-12.329,56.396,47.180
0.112,0.093,0.052,-16.479,50.720,52.429
0.098,0.102,0.065,-20.142,44.617,56.091
0.100,0.097,0.089,-21.729,37.659,60.120
0.122,0.077,0.105,-21.423,28.198,62.195
0.138,0.045,0.107,-19.836,17.090,62.500
0.137,0.007,0.104,-17.029,5.127,60.730
0.134,-0.021,0.103,-14.160,-6.775,56.458
0.137,-0.046,0.098,-11.536,-19.226,51.086
0.152,-0.069,0.091,-8.423,-32.288,44.861
0.165,-0.088,0.088,-5.005,-45.166,38.330
0.178,-0.119,0.092,-1.526,-57.678,32.532
0.194,-0.173,0.086,2.869,-70.190,28.137
0.207,-0.271,0.072,6.836,-82.092,25.757
0.208,-0.392,0.052,9.216,-92.285,24.841
0.193,-0.528,0.033,10.437,-100.586,25.208
0.169,-0.702,0.018,11.292,-106.750,27.161
0.149,-0.923,0.018,12.451,-110.229,30.640
0.127,-1.167,0.004,13.245,-111.084,33.813
0.106,-1.450,0.003,13.306,-109.558,35.706
0.079,-1.757,0.020,13.123,-105.347,35.278
0.068,-2.001,0.047,10.681,-99.487,32.349
0.083,-2.159,0.087,5.005,-93.323,26.855
0.098,-2.295,0.098,-3.174,-87.402,19.897
0.082,-2.487,0.069,-11.719,-81.970,11.719
0.072,-2.549,0.060,-23.010,-73.914,2.075
0.110,-2.364,0.069,-36.560,-63.965,-8.362
0.163,-2.100,0.056,-46.936,-53.406,-20.081
0.212,-1.886,0.045,-50.232,-42.725,-31.860
0.234,-1.667,0.041,-47.791,-31.860,-41.565
0.242,-1.491,0.044,-41.016,-19.897,-48.340
0.236,-1.355,0.043,-31.982,-6.470,-52.979
0.212,-1.258,0.035,-22.766,8.972,-55.786
0.185,-1.208,0.025,-13.977,27.649,-55.603
0.172,-1.186,0.019,-6.714,48.767,-53.162
0.167,-1.161,0.016,-2.319,70.984,-49.927
0.183,-1.135,0.017,-0.122,92.773,-46.021
0.215,-1.096,0.023,-0.122,112.488,-41.870
0.261,-1.043,0.033,-2.014,127.991,-37.598
0.322,-0.992,0.046,-4.883,138.123,-33.997
0.378,-0.922,0.059,-8.301,141.724,-30.151
0.423,-0.859,0.068,-10.132,138.672,-25.146
0.464,-0.833,0.073,-10.010,129.883,-19.348
0.495,-0.802,0.091,-8.545,116.272,-14.038
0.509,-0.743,0.125,-5.615,97.839,-8.911
0.517,-0.694,0.144,0.305,75.378,-3.174
0.512,-0.674,0.164,7.141,51.331,2.319
0.490,-0.663,0.190,14.709,26.672,7.019
0.458,-0.662,0.196,22.583,2.197,11.169
0.419,-0.668,0.196,29.724,-19.897,14.771
0.369,-0.684,0.195,36.072,-39.185,17.334
0.321,-0.698,0.192,41.199,-54.932,18.494
0.283,-0.715,0.190,44.678,-66.345,18.799
0.241,-0.736,0.188,47.546,-74.036,18.433
0.199,-0.760,0.189,49.622,-77.515,17.090
0.164,-0.784,0.192,50.354,-77.759,14.587
0.135,-0.816,0.192,50.293,-75.134,11.841
0.109,-0.854,0.190,49.072,-70.068,8.728
0.087,-0.897,0.189,46.082,-62.744,5.737
0.069,-0.943,0.188,41.870,-53.894,3.235
0.059,-0.988,0.186,36.621,-43.823,0.732
0.050,-1.032,0.181,30.334,-33.264,-1.343
0.045,-1.088,0.172,22.705,-22.522,-2.869
0.045,-1.157,0.158,14.465,-11.841,-3.784
0.045,-1.233,0.146,5.554,-1.343,-4.761
0.050,-1.301,0.136,-3.967,8.728,-6.226
0.057,-1.349,0.122,-13.184,18.311,-8.301
0.072,-1.380,0.114,-21.545,27.283,-10.437
0.088,-1.380,0.102,-28.748,35.217,-13.489
0.108,-1.346,0.087,-34.180,42.358,-16.724
0.134,-1.292,0.075,-37.659,48.767,-19.592
0.161,-1.228,0.068,-38.574,54.443,-22.583
0.191,-1.148,0.062,-38.208,59.021,-25.269
0.217,-1.062,0.055,-36.316,62.073,-27.283
0.235,-0.992,0.046,-32.776,64.575,-28.442
0.251,-0.931,0.034,-28.259,66.895,-28.259
0.270,-0.882,0.026,-23.193,69.397,-26.428
0.289,-0.839,0.023,-17.822,71.716,-23.499
0.302,-0.809,0.019,-12.817,73.303,-19.287
0.307,-0.794,0.018,-7.874,74.646,-13.977
0.318,-0.789,0.026,-3.052,75.256,-7.812
0.332,-0.793,0.042,1.221,74.585,-2.014
0.344,-0.808,0.062,4.761,72.083,3.723
0.348,-0.826,0.083,7.568,67.505,8.789
0.353,-0.846,0.103,10.437,60.608,13.062
0.356,-0.862,0.124,12.390,51.514,16.296
0.359,-0.878,0.145,14.160,40.344,18.494
0.359,-0.901,0.160,14.954,27.466,19.958
0.348,-0.932,0.169,15.259,13.245,20.569
0.325,-0.967,0.168,14.709,-1.160,20.325
0.291,-1.001,0.162,13.428,-14.404,19.165

0.176,-2.385,0.132,-0.854,-36.926,-2.747
0.223,-2.513,0.105,0.854,-36.743,-10.193
0.267,-2.534,0.065,3.113,-35.461,-17.395
0.300,-2.498,0.029,7.141,-33.630,-22.644
0.330,-2.445,-0.000,13.428,-31.250,-24.353
0.343,-2.421,-0.020,21.362,-28.015,-23.193
0.330,-2.411,-0.030,30.151,-23.987,-20.142
0.314,-2.406,-0.022,37.415,-18.188,-15.869
0.308,-2.384,-0.014,43.274,-12.451,-12.451
0.306,-2.316,0.011,47.852,-6.836,-10.986
0.312,-2.218,0.068,51.880,-2.502,-10.925
0.331,-2.061,0.130,54.016,-0.610,-11.902
0.353,-1.888,0.187,54.138,-1.770,-13.367
0.363,-1.681,0.242,51.392,-5.249,-15.137
0.363,-1.455,0.272,46.326,-10.071,-17.151
0.370,-1.238,0.298,40.588,-16.296,-19.287
0.378,-1.039,0.316,33.447,-22.400,-21.790
0.388,-0.851,0.318,25.452,-28.687,-24.658
0.393,-0.676,0.320,17.029,-34.302,-27.222
0.391,-0.535,0.331,8.667,-39.490,-28.992
0.369,-0.419,0.311,1.465,-43.640,-29.602
0.342,-0.327,0.280,-5.066,-46.570,-29.419
0.311,-0.256,0.274,-11.108,-47.668,-27.649
0.275,-0.184,0.240,-17.639,-46.692,-24.292
0.251,-0.152,0.200,-24.597,-44.312,-18.127
0.234,-0.134,0.197,-34.363,-39.185,-8.667
0.214,-0.095,0.192,-46.448,-32.410,1.648
0.208,-0.059,0.189,-58.533,-25.513,13.489
0.203,-0.027,0.174,-69.397,-18.738,26.062
0.184,0.001,0.152,-77.515,-13.000,38.086
0.146,0.046,0.132,-82.703,-7.324,49.194
0.111,0.079,0.112,-84.656,-1.221,58.777
0.089,0.106,0.091,-83.313,5.554,65.430
0.076,0.135,0.069,-79.102,12.390,68.787
0.070,0.162,0.052,-72.937,18.494,69.763
0.082,0.179,0.027,-65.247,23.437,69.580
0.098,0.184,0.018,-57.617,26.184,68.542
0.119,0.188,0.003,-50.354,27.161,66.467
0.146,0.196,-0.006,-43.274,26.184,64.514
0.156,0.208,-0.016,-35.950,23.254,62.073
0.176,0.201,-0.036,-28.076,19.287,59.326
0.196,0.215,-0.061,-19.165,13.855,56.885
0.208,0.227,-0.073,-10.132,7.812,55.359
0.233,0.212,-0.092,0.610,1.038,56.030
0.253,0.196,-0.111,13.000,-7.080,58.777
0.267,0.172,-0.113,26.611,-16.235,63.049
0.269,0.121,-0.109,41.870,-27.588,67.810
0.242,0.033,-0.127,57.800,-40.344,72.021
0.202,-0.111,-0.151,72.815,-52.124,75.317
0.153,-0.310,-0.174,86.548,-61.768,76.782
0.075,-0.561,-0.193,98.022,-67.932,77.637
-0.029,-0.836,-0.169,106.689,-68.176,77.393
-0.123,-1.099,-0.130,112.244,-62.195,75.195
-0.193,-1.370,-0.112,113.342,-50.354,68.909
-0.245,-1.593,-0.166,107.056,-33.264,57.129
-0.281,-1.797,-0.230,90.088,-10.132,40.955
-0.280,-2.053,-0.304,63.110,17.761,23.987
-0.220,-2.323,-0.394,28.259,48.828,6.531
-0.051,-2.475,-0.455,-9.644,80.994,-14.648
0.184,-2.501,-0.497,-45.654,108.887,-39.551
0.435,-2.442,-0.510,-76.294,128.479,-62.927
0.662,-2.339,-0.502,-96.924,138.123,-81.665
0.828,-2.139,-0.467,-106.445,137.939,-94.849
0.924,-1.856,-0.404,-104.004,129.700,-102.600
0.950,-1.568,-0.335,-90.454,116.455,-104.370
0.929,-1.398,-0.288,-68.665,101.379,-101.013
0.842,-1.257,-0.212,-46.326,88.318,-95.398
0.767,-1.141,-0.189,-24.719,78.674,-87.646
0.746,-1.139,-0.222,-5.493,75.745,-81.116
0.656,-1.002,-0.128,4.944,78.125,-79.468
0.663,-0.965,-0.117,15.564,80.444,-73.730
0.647,-0.866,-0.056,24.963,84.595,-67.566
0.688,-0.831,-0.036,35.522,86.060,-58.105
0.715,-0.825,-0.025,44.617,83.679,-49.561
0.733,-0.819,0.008,51.636,77.209,-41.504
0.745,-0.826,0.043,56.824,65.796,-35.522
0.675,-0.760,0.113,60.364,50.598,-31.555
0.635,-0.769,0.142,66.284,33.081,-24.536
0.589,-0.793,0.163,72.327,15.930,-17.517
0.530,-0.827,0.180,77.332,0.000,-11.169
0.474,-0.857,0.204,80.505,-14.893,-5.188
0.409,-0.930,0.232,81.177,-28.809,0.244
0.357,-0.995,0.253,77.942,-41.077,5.737
0.342,-1.017,0.261,71.716,-53.345,10.498
0.287,-1.075,0.274,65.552,-65.247,14.465
0.191,-1.186,0.306,56.885,-74.402,17.395
0.073,-1.329,0.445,42.664,-79.285,16.174
-0.036,-1.442,0.603,21.545,-81.909,9.583
-0.085,-1.476,0.680,-2.136,-83.923,-0.549
-0.055,-1.428,0.641,-23.987,-86.670,-8.911
-0.002,-1.384,0.511,-40.222,-86.243,-11.475
0.036,-1.337,0.348,-51.147,-81.848,-8.667
0.054,-1.237,0.241,-57.312,-73.853,-4.028
0.057,-1.110,0.184,-58.228,-62.744,-0.244
0.068,-1.022,0.139,-52.673,-49.377,2.502
0.064,-0.955,0.099,-43.579,-34.973,1.282
0.079,-0.911,0.071,-31.799,-20.752,-2.014
0.125,-0.892,0.043,-20.020,-8.972,-5.737
0.161,-0.874,0.024,-10.742,-0.305,-9.888
0.179,-0.843,0.033,-4.333,6.592,-12.817
0.193,-0.818,0.038,0.732,11.902,-13.184
0.208,-0.829,0.039,4.456,16.602,-11.353
0.221,-0.874,0.032,6.287,20.874,-8.789
0.227,-0.909,0.042,5.920,24.902,-6.226
0.245,-0.927,0.056,3.906,27.405,-3.967
0.256,-0.941,0.069,1.221,27.527,-2.808
0.261,-0.971,0.070,-1.160,26.062,-1.343
0.261,-1.001,0.073,-3.784,23.071,-0.488
0.254,-1.020,0.073,-6.714,18.982,-0.671
0.246,-1.027,0.071,-9.094,14.404,-1.465
0.255,-1.052,0.072,-11.230,9.277,-2.319
0.259,-1.082,0.066,-12.146,3.662,-3.479
0.255,-1.099,0.056,-12.634,-1.831,-4.883
0.263,-1.094,0.047,-13.123,-7.019,-6.104
0.257,-1.077,0.031,-13.184,-11.597,-6.714
0.252,-1.069,0.009,-13.000,-15.198,-6.348
0.249,-1.060,-0.015,-12.817,-16.602,-5.310
0.241,-1.043,-0.037,-13.550,-15.930,-4.272
0.234,-1.021,-0.052,-15.137,-13.489,-3.601

1.224,-1.265,0.148,-47.302,38.574,177.979
1.234,-1.357,0.171,-52.612,38.452,195.007
1.225,-1.454,0.177,-55.908,37.354,212.891
1.161,-1.527,0.172,-55.725,36.804,227.417
1.073,-1.582,0.167,-51.453,40.039,235.596
1.022,-1.625,0.165,-42.786,47.791,237.854
1.014,-1.649,0.168,-31.921,60.486,234.680
1.040,-1.706,0.186,-20.020,76.660,228.760
1.164,-1.812,0.218,-11.047,92.102,224.792
1.321,-1.884,0.245,-6.897,102.600,220.703
1.546,-1.960,0.278,-7.507,106.445,214.905
1.790,-1.946,0.284,-11.719,102.722,208.435
1.913,-1.838,0.286,-18.860,89.111,203.735
1.924,-1.734,0.257,-26.062,66.467,203.308
1.885,-1.727,0.174,-31.616,42.786,205.200
1.865,-1.690,0.086,-37.842,24.170,203.674
1.671,-1.470,0.025,-42.725,11.292,195.679
1.424,-1.278,-0.018,-42.603,4.211,187.683
1.269,-1.182,-0.068,-37.231,4.944,177.979
1.057,-1.051,-0.101,-30.334,10.803,161.560
0.841,-0.881,-0.094,-25.513,19.165,143.799
0.681,-0.735,-0.079,-22.156,28.198,130.676
0.536,-0.639,-0.072,-19.897,35.950,119.629
0.429,-0.555,-0.056,-20.081,42.480,108.215
0.337,-0.477,-0.034,-22.278,47.119,96.313
0.254,-0.405,-0.024,-25.452,48.645,84.839
0.187,-0.318,-0.013,-28.992,48.828,73.914
0.146,-0.235,0.040,-31.494,46.631,63.599
0.136,-0.164,0.080,-32.043,39.124,55.298
0.120,-0.164,0.050,-31.982,26.184,47.424
0.094,-0.103,0.079,-35.706,13.916,36.682
0.060,0.023,0.120,-39.917,-0.488,24.536
0.062,0.059,0.110,-40.039,-16.968,15.930
0.089,0.073,0.094,-40.405,-33.081,9.094
0.112,0.053,0.044,-42.114,-48.218,5.127
0.152,0.052,0.011,-46.570,-59.692,4.456
0.133,0.072,-0.019,-52.063,-68.115,6.775
0.103,0.064,-0.067,-54.871,-72.693,12.024
0.077,0.089,-0.098,-55.237,-71.167,16.357
0.043,0.134,-0.121,-52.246,-64.514,19.348
0.025,0.146,-0.137,-45.044,-54.749,20.874
0.029,0.156,-0.137,-35.645,-42.969,20.752
0.051,0.160,-0.134,-25.513,-32.104,19.165
0.064,0.163,-0.121,-15.320,-22.461,17.029
0.094,0.158,-0.093,-5.493,-15.137,16.357
0.115,0.146,-0.077,3.540,-10.803,18.311
0.130,0.122,-0.069,11.292,-9.094,22.217
0.125,0.095,-0.059,16.541,-8.606,26.550
0.111,0.066,-0.057,20.691,-8.850,29.419
0.094,0.034,-0.052,22.949,-8.789,30.945
0.101,0.003,-0.052,23.193,-8.301,31.555
0.103,-0.023,-0.051,21.606,-7.324,31.738
0.104,-0.049,-0.052,18.738,-6.409,31.677
0.106,-0.069,-0.054,14.465,-4.883,31.860
0.112,-0.087,-0.063,10.010,-2.991,32.104
0.128,-0.114,-0.073,5.249,-0.610,31.860
0.154,-0.131,-0.085,0.854,2.808,31.006
0.185,-0.132,-0.097,-2.991,7.141,29.480
0.227,-0.134,-0.107,-5.188,11.353,28.687
0.290,-0.154,-0.118,-5.859,15.930,29.663
0.372,-0.182,-0.131,-5.554,20.020,30.640
0.469,-0.191,-0.137,-4.578,23.010,31.189
0.574,-0.180,-0.128,-2.136,25.330,32.898
0.649,-0.191,-0.128,2.319,26.306,36.804
0.739,-0.194,-0.123,7.751,28.564,40.833
0.836,-0.164,-0.088,12.756,32.654,41.870
0.941,-0.160,-0.014,18.921,36.438,39.124
1.096,-0.241,0.072,25.452,35.950,33.997
1.346,-0.447,0.142,28.381,27.344,25.024
1.674,-0.685,0.177,21.057,9.583,7.507
1.960,-0.819,0.162,2.380,-15.259,-20.203
2.135,-0.817,0.137,-24.475,-42.358,-49.500
2.270,-0.767,0.105,-53.467,-68.726,-67.200
2.324,-0.700,0.063,-76.721,-89.539,-73.364
2.242,-0.569,0.040,-90.210,-101.440,-71.838
2.059,-0.484,-0.006,-91.553,-103.638,-63.232
1.967,-0.283,0.102,-81.787,-95.642,-51.880
1.730,-0.282,0.029,-61.646,-84.412,-39.490
1.553,-0.240,0.101,-42.053,-64.575,-35.522
1.379,-0.254,0.094,-25.452,-42.908,-37.537
1.235,-0.234,0.127,-13.184,-15.686,-45.654
1.147,-0.210,0.147,-5.676,13.123,-50.476
1.071,-0.221,0.123,-1.709,40.405,-49.622
1.102,-0.223,0.162,-2.625,64.636,-47.058
1.013,-0.185,0.166,-6.531,80.505,-42.725
1.064,-0.134,0.186,-9.949,86.914,-32.715
1.079,-0.151,0.179,-13.062,84.900,-20.447
0.909,-0.098,0.169,-17.395,78.064,-11.475
0.905,-0.132,0.105,-19.653,69.275,-3.479
0.855,-0.078,0.119,-20.813,63.843,-2.563
0.810,-0.074,0.122,-18.799,57.678,-3.113
0.853,-0.079,0.112,-14.404,48.767,-3.357
0.881,-0.071,0.119,-9.827,38.574,-4.089
0.901,-0.058,0.130,-4.150,26.489,-4.089
0.926,-0.071,0.132,2.380,12.817,-2.563
0.937,-0.086,0.131,9.521,-1.099,-0.671
0.940,-0.103,0.134,15.686,-14.099,1.221
0.944,-0.127,0.137,19.897,-26.245,3.418
0.955,-0.156,0.138,22.461,-36.194,4.883
0.967,-0.188,0.136,23.193,-44.067,5.615
0.991,-0.219,0.137,21.729,-49.622,5.249
0.997,-0.240,0.135,18.982,-52.979,3.174
1.021,-0.255,0.148,15.503,-54.382,1.526
1.031,-0.267,0.138,12.451,-53.711,0.977
1.075,-0.285,0.129,9.399,-50.903,0.366
1.023,-0.303,0.113,7.019,-46.875,-0.732
1.060,-0.310,0.122,3.967,-39.795,-0.732
1.040,-0.311,0.128,2.991,-32.288,-1.892
1.052,-0.311,0.115,2.014,-26.184,-2.197
1.012,-0.307,0.105,0.366,-21.057,-1.282
0.975,-0.289,0.081,-1.709,-16.418,-0.183
0.931,-0.271,0.066,-2.991,-10.925,0.183
0.930,-0.254,0.075,-3.296,-5.493,-0.488
0.935,-0.277,0.055,-3.113,-2.502,-0.610
0.936,-0.255,0.069,-5.066,-0.977,0.427
0.924,-0.240,0.063,-7.080,-1.770,3.174
0.911,-0.228,0.057,-7.446,-3.357,5.493
0.885,-0.234,0.030,-7.263,-4.700,6.775
0.855,-0.205,0.027,-7.141,-3.967,6.287

1.829,-0.820,0.203,-21.240,-0.427,-8.423
1.878,-0.879,0.196,-25.146,1.282,-11.841
1.873,-0.943,0.166,-28.748,4.761,-16.479
1.848,-1.012,0.121,-31.555,12.207,-21.423
1.826,-1.065,0.072,-35.400,22.888,-26.123
1.813,-1.095,0.032,-40.405,35.583,-31.494
1.818,-1.100,0.006,-45.105,48.584,-38.086
1.834,-1.084,-0.005,-48.279,59.326,-46.082
1.845,-1.058,-0.014,-50.110,66.223,-54.688
1.843,-1.033,-0.017,-49.988,68.420,-63.232
1.811,-0.991,-0.019,-49.377,66.040,-71.655
1.745,-0.931,-0.022,-47.791,60.181,-79.895
1.644,-0.862,-0.035,-45.349,52.063,-88.501
1.521,-0.780,-0.052,-41.260,43.396,-97.351
1.422,-0.710,-0.049,-36.621,35.400,-105.164
1.340,-0.659,-0.052,-32.166,28.564,-108.276
1.265,-0.606,-0.062,-31.860,22.339,-102.112
1.199,-0.549,-0.056,-35.278,15.991,-88.989
1.157,-0.524,-0.049,-39.734,10.681,-74.097
1.160,-0.503,-0.057,-45.471,6.104,-59.326
1.142,-0.445,-0.067,-52.856,0.549,-48.218
1.082,-0.356,-0.081,-58.655,-5.737,-41.016
1.013,-0.264,-0.095,-62.073,-12.207,-36.072
0.938,-0.176,-0.110,-62.195,-17.883,-32.593
0.852,-0.091,-0.131,-59.204,-21.729,-29.907
0.769,-0.007,-0.146,-53.894,-23.376,-27.100
0.693,0.069,-0.162,-46.265,-22.888,-23.987
0.612,0.142,-0.187,-35.889,-20.325,-20.325
0.536,0.203,-0.203,-23.865,-16.479,-15.442
0.469,0.246,-0.209,-11.169,-11.475,-8.972
0.412,0.269,-0.201,2.258,-6.409,-2.075
0.367,0.269,-0.180,15.930,-2.197,5.493
0.326,0.252,-0.152,29.480,0.488,12.451
0.289,0.230,-0.122,42.114,1.221,18.127
0.255,0.210,-0.093,52.734,-0.305,23.010
0.227,0.186,-0.069,61.035,-3.479,27.405
0.204,0.164,-0.050,67.627,-7.935,30.762
0.184,0.147,-0.034,71.838,-13.062,33.203
0.168,0.129,-0.019,74.158,-18.982,34.790
0.163,0.088,-0.010,75.195,-25.146,36.072
0.167,0.040,-0.008,74.768,-31.128,36.804
0.176,0.004,-0.010,72.327,-36.560,37.170
0.184,-0.016,-0.006,67.749,-40.710,37.720
0.201,-0.048,-0.004,61.584,-43.213,38.818
0.225,-0.100,-0.013,55.054,-44.800,40.100
0.240,-0.151,-0.020,47.119,-44.678,40.466
0.257,-0.188,-0.027,38.513,-42.908,39.978
0.276,-0.210,-0.036,30.518,-39.978,38.940
0.298,-0.234,-0.043,24.414,-35.217,37.598
0.324,-0.287,-0.048,20.020,-29.419,37.170
0.346,-0.364,-0.053,17.273,-23.254,36.682
0.368,-0.455,-0.056,15.808,-15.930,35.645
0.404,-0.561,-0.061,15.076,-7.507,35.095
0.448,-0.636,-0.062,13.794,1.587,35.339
0.497,-0.656,-0.046,14.099,11.292,35.889
0.564,-0.653,-0.003,16.663,20.081,36.804
0.629,-0.680,0.027,21.973,25.024,37.231
0.682,-0.755,0.049,28.809,25.513,36.194
0.763,-0.894,0.092,34.363,21.851,32.471
0.927,-1.121,0.148,37.415,14.465,23.743
1.194,-1.391,0.151,34.851,2.563,4.700
1.458,-1.515,0.124,21.179,-13.306,-25.879
1.615,-1.430,0.131,-2.380,-30.945,-57.190
1.752,-1.296,0.134,-28.381,-50.537,-74.158
1.826,-1.150,0.110,-48.584,-68.542,-75.195
1.761,-0.962,0.086,-60.486,-80.444,-67.017
1.599,-0.751,0.073,-61.646,-82.825,-52.979
1.420,-0.573,0.055,-51.941,-74.585,-36.682
1.271,-0.496,0.054,-34.729,-56.763,-23.682
1.206,-0.537,0.073,-15.442,-33.936,-17.700
1.146,-0.592,0.094,0.854,-10.803,-21.240
1.101,-0.618,0.133,11.414,9.949,-30.457
1.091,-0.636,0.171,15.808,27.893,-37.781
1.140,-0.661,0.186,15.137,40.833,-40.771
1.175,-0.630,0.200,10.132,48.035,-42.480
1.165,-0.565,0.238,3.235,48.950,-42.480
1.185,-0.522,0.226,-1.953,43.640,-39.429
1.147,-0.489,0.202,-6.409,35.095,-33.752
1.108,-0.452,0.184,-12.146,26.306,-26.917
1.021,-0.401,0.169,-15.991,17.822,-21.057
0.961,-0.362,0.161,-17.151,10.803,-16.052
0.895,-0.339,0.151,-15.625,5.310,-11.719
0.873,-0.353,0.130,-12.695,1.526,-7.141
0.772,-0.313,0.127,-9.521,-1.160,-4.089
0.742,-0.332,0.137,-5.737,-1.892,0.000
0.778,-0.332,0.104,-2.502,-2.991,2.319
0.722,-0.349,0.141,-0.488,-3.784,3.540
0.751,-0.355,0.146,1.160,-6.226,6.409
0.779,-0.419,0.137,3.418,-9.216,8.179
0.757,-0.454,0.127,3.357,-12.695,5.859
0.797,-0.484,0.171,-0.183,-15.625,2.380
0.824,-0.513,0.185,-2.197,-19.653,-1.160
0.851,-0.536,0.174,-3.784,-23.437,-3.723
0.903,-0.577,0.173,-5.615,-25.330,-5.371
0.920,-0.592,0.160,-7.324,-25.635,-7.019
0.954,-0.608,0.177,-9.460,-24.231,-7.935
1.001,-0.625,0.170,-11.230,-23.499,-8.789
1.047,-0.667,0.165,-12.878,-22.888,-9.521
1.080,-0.665,0.173,-15.991,-22.278,-10.681
1.081,-0.654,0.165,-18.494,-21.790,-10.376
1.068,-0.643,0.151,-19.531,-20.081,-8.362
1.027,-0.614,0.136,-19.287,-16.418,-5.676
0.980,-0.585,0.118,-17.639,-11.047,-2.686
0.932,-0.564,0.106,-15.137,-4.944,1.160
0.895,-0.543,0.094,-12.451,1.892,4.883
0.855,-0.521,0.083,-9.644,8.179,8.179
0.826,-0.497,0.083,-6.531,13.428,10.986
0.802,-0.471,0.088,-4.211,17.029,13.062
0.784,-0.468,0.088,-1.770,18.250,14.709
0.765,-0.471,0.088,0.427,17.273,15.564
0.749,-0.467,0.093,1.709,15.076,15.503
0.746,-0.468,0.096,2.930,11.658,14.771
0.738,-0.469,0.098,4.456,7.629,13.245
0.733,-0.471,0.104,5.432,3.845,11.414
0.742,-0.489,0.107,6.348,0.488,9.644
0.750,-0.504,0.107,6.958,-2.258,7.935
0.754,-0.507,0.110,6.836,-4.395,6.470
0.756,-0.515,0.109,6.470,-5.737,5.005
0.758,-0.521,0.113,6.470,-6.531,3.479

1.577,-1.579,0.172,9.766,61.523,-11.475
1.834,-1.739,0.216,3.357,69.519,-6.531
2.049,-1.875,0.243,-6.042,63.904,-3.479
2.186,-1.952,0.241,-17.456,46.448,-5.554
2.240,-1.953,0.210,-30.090,23.132,-12.634
2.220,-1.879,0.165,-41.138,0.977,-22.278
2.153,-1.772,0.105,-48.889,-14.771,-30.579
2.060,-1.632,0.045,-53.467,-22.278,-36.011
1.954,-1.452,0.001,-55.359,-20.935,-38.208
1.853,-1.254,-0.021,-53.955,-13.062,-36.499
1.759,-1.062,-0.025,-49.500,-2.625,-31.128
1.663,-0.891,-0.022,-42.175,7.141,-24.414
1.558,-0.736,-0.018,-33.386,14.038,-17.212
1.449,-0.608,-0.010,-24.780,16.479,-10.315
1.339,-0.515,0.000,-17.639,15.259,-4.395
1.231,-0.451,0.016,-13.000,11.536,-0.244
1.123,-0.390,0.032,-11.047,6.348,2.136
1.014,-0.334,0.039,-11.353,0.610,2.258
0.899,-0.275,0.037,-13.245,-4.333,0.916
0.775,-0.210,0.029,-16.235,-7.019,-0.183
0.655,-0.142,0.030,-18.860,-6.897,-0.061
0.540,-0.071,0.023,-20.386,-5.066,1.770
0.419,0.004,0.002,-20.386,-2.441,4.395
0.310,0.076,-0.019,-18.555,0.916,8.423
0.221,0.152,-0.038,-14.893,4.517,14.038
0.146,0.233,-0.061,-9.583,7.507,19.897
0.083,0.293,-0.077,-1.831,9.033,26.184
0.021,0.329,-0.077,7.263,9.583,33.142
-0.031,0.333,-0.074,17.090,8.362,40.649
-0.079,0.291,-0.075,27.100,5.493,48.218
-0.133,0.224,-0.070,34.546,1.587,54.260
-0.191,0.168,-0.061,38.391,-1.831,57.800
-0.232,0.128,-0.048,38.940,-4.578,60.303
-0.255,0.105,-0.034,36.255,-6.287,60.852
-0.259,0.081,-0.031,32.593,-7.019,58.838
-0.245,0.056,-0.034,28.931,-7.141,53.772
-0.220,0.012,-0.038,25.146,-6.409,46.570
-0.177,-0.025,-0.049,21.545,-5.371,38.330
-0.126,-0.048,-0.052,18.188,-4.028,29.236
-0.065,-0.062,-0.056,15.076,-2.625,20.935
0.006,-0.087,-0.057,13.489,-1.770,14.099
0.097,-0.119,-0.053,12.512,-1.831,7.935
0.188,-0.161,-0.055,12.878,-3.052,2.075
0.267,-0.197,-0.054,13.794,-5.554,-2.380
0.347,-0.236,-0.048,15.137,-9.033,-4.089
0.435,-0.301,-0.046,16.479,-13.672,-3.296
0.510,-0.392,-0.055,17.700,-19.409,0.793
0.565,-0.474,-0.073,16.846,-24.780,9.766
0.616,-0.545,-0.074,13.184,-28.564,25.024
0.675,-0.621,-0.068,8.972,-30.945,43.274
0.703,-0.647,-0.051,6.958,-32.532,58.044
0.704,-0.636,-0.035,7.751,-33.020,66.833
0.690,-0.624,-0.019,12.329,-32.898,69.702
0.694,-0.664,-0.001,20.325,-30.701,67.017
0.789,-0.787,0.037,28.564,-25.635,58.289
0.984,-0.982,0.073,34.546,-20.569,40.039
1.166,-1.133,0.090,35.889,-17.517,9.155
1.296,-1.145,0.131,29.114,-16.174,-25.330
1.443,-1.119,0.190,14.832,-17.578,-45.959
1.557,-1.082,0.224,-3.784,-24.475,-47.180
1.552,-0.998,0.236,-22.888,-36.255,-35.645
1.445,-0.900,0.234,-38.574,-49.744,-17.639
1.312,-0.883,0.200,-48.767,-59.875,0.061
1.242,-0.926,0.155,-53.406,-62.195,8.362
1.116,-0.912,0.086,-52.917,-53.284,-1.099
1.041,-0.891,0.077,-48.096,-27.710,-23.804
1.002,-0.816,0.051,-40.283,9.094,-54.504
1.006,-0.760,0.042,-30.273,53.162,-80.139
1.095,-0.723,0.038,-22.156,97.534,-95.642
1.199,-0.672,0.046,-16.235,134.277,-101.379
1.391,-0.638,0.077,-13.062,157.959,-96.252
1.518,-0.558,0.128,-12.024,162.476,-83.923
1.581,-0.468,0.181,-11.780,146.484,-65.796
1.560,-0.405,0.200,-9.827,113.831,-44.983
1.450,-0.394,0.192,-5.554,72.021,-25.635
1.309,-0.391,0.168,-0.244,28.870,-10.132
1.158,-0.403,0.128,5.859,-8.423,-0.854
0.996,-0.404,0.091,10.742,-36.621,3.906
0.852,-0.403,0.069,14.282,-54.626,5.676
0.721,-0.393,0.061,17.151,-63.049,6.653
0.665,-0.406,0.065,18.921,-63.171,8.057
0.583,-0.421,0.055,19.409,-58.289,9.338
0.577,-0.469,0.024,18.188,-49.622,10.437
0.515,-0.481,0.057,14.709,-37.964,9.094
0.550,-0.506,0.079,12.512,-26.001,8.118
0.569,-0.561,0.074,12.695,-15.686,5.676
0.635,-0.628,0.092,10.864,-6.287,1.892
0.715,-0.668,0.128,7.751,0.000,-2.991
0.798,-0.711,0.148,4.333,1.892,-6.348
0.858,-0.751,0.161,0.427,0.549,-7.996
0.938,-0.779,0.151,-3.479,-2.441,-9.277
0.978,-0.791,0.130,-6.470,-6.348,-11.902
1.019,-0.792,0.124,-9.277,-8.789,-14.343
1.029,-0.756,0.092,-10.254,-10.864,-17.883
1.021,-0.712,0.079,-10.620,-11.108,-20.142
1.026,-0.653,0.066,-10.437,-9.888,-20.691
0.997,-0.603,0.053,-8.423,-7.751,-19.409
0.963,-0.569,0.039,-5.737,-5.127,-16.174
0.929,-0.539,0.031,-2.686,-1.709,-12.146
0.871,-0.511,0.021,1.038,1.404,-9.033
0.824,-0.501,0.020,4.822,4.333,-6.226
0.785,-0.493,0.022,7.690,6.531,-4.395
0.751,-0.490,0.024,9.644,7.629,-3.235
0.723,-0.484,0.023,10.132,7.202,-2.258
0.711,-0.496,0.020,9.827,6.104,-0.732
0.712,-0.512,0.017,8.362,4.578,0.427
0.721,-0.516,0.021,6.348,2.747,1.160
0.722,-0.517,0.026,5.005,0.244,1.831
0.729,-0.527,0.033,4.761,-2.563,1.587
0.742,-0.548,0.037,5.310,-5.737,0.732
0.761,-0.580,0.041,6.042,-8.484,-1.038
0.786,-0.609,0.046,6.531,-10.864,-2.930
0.804,-0.629,0.047,6.897,-12.817,-5.005
0.820,-0.654,0.050,7.568,-13.977,-7.202
0.835,-0.673,0.053,7.996,-13.977,-8.911
0.856,-0.687,0.060,7.751,-13.184,-10.376
0.875,-0.696,0.066,7.202,-12.329,-11.475
0.886,-0.698,0.067,6.470,-11.597,-12.268
0.894,-0.694,0.067,5.127,-10.559,-12.512

1.401,-1.348,0.216,9.216,4.517,6.653
1.501,-1.496,0.239,9.338,-1.770,10.437
1.565,-1.609,0.238,8.850,-9.644,11.353
1.588,-1.721,0.217,7.690,-17.639,8.423
1.599,-1.821,0.191,4.883,-22.949,2.136
1.603,-1.878,0.166,0.061,-24.475,-6.104
1.609,-1.875,0.139,-6.714,-21.118,-16.541
1.612,-1.824,0.115,-13.245,-13.306,-27.039
1.635,-1.769,0.098,-19.165,-2.441,-35.583
1.642,-1.696,0.083,-23.315,10.315,-42.358
1.651,-1.599,0.081,-25.757,24.597,-46.570
1.640,-1.483,0.082,-27.344,38.208,-47.852
1.601,-1.371,0.080,-27.771,50.598,-46.387
1.526,-1.291,0.057,-28.320,62.073,-43.640
1.417,-1.221,0.014,-30.823,74.036,-41.626
1.287,-1.129,-0.034,-35.400,88.745,-41.504
1.143,-1.017,-0.095,-41.382,107.544,-43.640
0.992,-0.902,-0.166,-47.791,131.714,-47.791
0.866,-0.771,-0.225,-53.711,162.415,-52.917
0.791,-0.621,-0.254,-59.021,197.021,-57.312
0.752,-0.469,-0.256,-62.561,229.004,-59.021
0.731,-0.326,-0.246,-63.293,252.197,-57.495
0.739,-0.192,-0.226,-60.852,265.137,-52.368
0.761,-0.075,-0.179,-55.542,266.479,-44.922
0.778,0.041,-0.111,-48.462,254.944,-36.560
0.776,0.158,-0.048,-39.795,230.469,-26.978
0.764,0.245,0.007,-28.992,194.519,-14.832
0.751,0.302,0.059,-17.090,149.780,-0.732
0.726,0.320,0.103,-4.883,98.633,14.221
0.670,0.301,0.133,7.019,43.701,29.053
0.578,0.272,0.142,17.212,-10.925,42.725
0.468,0.224,0.127,25.024,-61.890,55.176
0.365,0.160,0.094,29.846,-106.201,65.796
0.272,0.094,0.056,31.006,-142.273,74.158
0.186,0.063,0.019,29.297,-171.509,79.773
0.122,0.052,-0.005,25.696,-194.275,82.581
0.081,0.038,-0.037,21.667,-211.731,83.374
0.032,0.017,-0.076,17.578,-223.999,81.543
-0.022,-0.001,-0.110,13.794,-230.835,77.820
-0.064,-0.016,-0.145,11.108,-231.445,72.632
-0.099,-0.035,-0.175,9.583,-225.159,66.467
-0.127,-0.055,-0.198,9.216,-212.097,59.204
-0.147,-0.079,-0.216,10.498,-192.627,51.453
-0.149,-0.092,-0.226,13.245,-168.213,43.945
-0.129,-0.096,-0.220,17.822,-140.137,37.292
-0.073,-0.122,-0.194,24.048,-111.511,32.898
-0.001,-0.170,-0.172,31.250,-85.449,31.128
0.064,-0.230,-0.145,38.086,-63.660,30.701
0.128,-0.317,-0.119,43.457,-46.143,31.982
0.185,-0.424,-0.104,46.082,-32.166,35.522
0.228,-0.519,-0.094,45.654,-20.752,40.527
0.264,-0.600,-0.084,42.053,-10.803,46.082
0.286,-0.644,-0.091,37.048,-1.221,51.392
0.307,-0.630,-0.092,31.616,9.766,55.298
0.362,-0.603,-0.071,29.419,23.193,56.213
0.438,-0.615,-0.044,32.959,37.537,54.443
0.508,-0.698,-0.018,40.222,49.194,50.903
0.614,-0.886,0.013,48.462,57.739,46.021
0.804,-1.172,0.017,53.589,63.171,35.767
1.040,-1.419,0.001,50.964,64.575,11.902
1.228,-1.450,0.022,38.086,62.744,-24.780
1.389,-1.385,0.075,18.250,57.434,-58.167
1.558,-1.357,0.097,-4.028,46.021,-74.280
1.646,-1.287,0.100,-27.466,28.137,-75.623
1.620,-1.139,0.108,-48.218,7.019,-67.322
1.535,-0.993,0.117,-61.768,-13.733,-53.040
1.441,-0.922,0.117,-65.857,-32.593,-37.781
1.338,-0.871,0.109,-64.026,-47.974,-25.391
1.227,-0.806,0.115,-58.899,-59.631,-17.517
1.093,-0.750,0.110,-51.208,-66.284,-15.137
0.931,-0.705,0.073,-41.626,-65.674,-17.761
0.791,-0.674,0.032,-32.898,-55.481,-24.536
0.698,-0.648,0.004,-26.733,-35.767,-33.875
0.649,-0.619,-0.018,-22.400,-9.644,-44.617
0.624,-0.576,-0.015,-20.874,20.447,-53.650
0.643,-0.529,-0.008,-20.935,50.171,-58.350
0.709,-0.535,0.008,-21.484,75.256,-58.289
0.754,-0.557,0.020,-22.766,93.567,-54.810
0.791,-0.557,0.026,-27.344,105.530,-47.180
0.792,-0.534,0.024,-32.959,111.816,-38.086
0.760,-0.515,0.009,-36.743,114.990,-31.128
0.758,-0.525,-0.008,-37.964,117.615,-27.405
0.732,-0.489,-0.020,-36.743,120.422,-26.978
0.782,-0.519,-0.030,-33.081,123.047,-26.367
0.792,-0.502,-0.044,-29.175,124.146,-26.428
0.879,-0.552,-0.079,-25.513,122.864,-26.367
0.868,-0.542,-0.034,-23.315,118.652,-27.893
0.937,-0.546,-0.022,-18.982,110.107,-26.062
0.937,-0.567,-0.029,-13.000,96.924,-24.292
0.929,-0.581,-0.021,-7.446,81.604,-22.278
0.919,-0.593,-0.006,-2.075,64.636,-20.020
0.918,-0.647,-0.003,3.784,46.570,-17.212
0.893,-0.681,-0.002,7.568,29.358,-14.404
0.900,-0.746,-0.004,9.460,13.916,-10.803
0.880,-0.784,-0.009,9.399,0.366,-8.057
0.868,-0.821,-0.003,8.179,-9.460,-5.615
0.868,-0.855,-0.006,5.981,-16.907,-3.601
0.871,-0.891,-0.014,4.150,-22.217,-2.258
0.861,-0.906,-0.026,1.221,-25.085,-1.709
0.861,-0.934,-0.030,-1.099,-25.146,-2.502
0.847,-0.955,-0.029,-2.625,-23.193,-3.845
0.851,-0.978,-0.037,-3.296,-19.653,-5.859
0.858,-0.983,-0.036,-4.089,-14.587,-8.301
0.872,-0.966,-0.040,-4.333,-9.705,-11.108
0.891,-0.937,-0.043,-4.395,-5.249,-13.733
0.916,-0.899,-0.047,-4.700,-1.343,-16.174
0.952,-0.872,-0.055,-4.761,1.038,-18.066
0.974,-0.832,-0.061,-5.371,2.136,-19.226
0.986,-0.767,-0.060,-7.019,2.136,-18.616
0.979,-0.702,-0.065,-7.812,0.977,-15.686
0.953,-0.645,-0.069,-7.202,-0.916,-10.986
0.915,-0.599,-0.072,-5.310,-2.869,-5.249
0.864,-0.560,-0.069,-1.709,-5.249,0.305
0.811,-0.532,-0.066,3.052,-7.263,6.836
0.756,-0.524,-0.059,8.484,-9.094,13.062
0.702,-0.523,-0.048,13.977,-10.803,17.822
0.652,-0.533,-0.040,18.982,-12.817,20.874
0.614,-0.555,-0.034,22.644,-14.404,22.217
0.585,-0.582,-0.029,24.414,-15.625,21.973

1.593,-1.864,0.020,13.428,-5.188,-21.423
1.776,-2.046,0.006,3.784,-35.278,-31.494
1.879,-2.191,-0.044,-4.761,-68.848,-40.283
1.884,-2.286,-0.122,-12.390,-98.206,-48.584
1.821,-2.315,-0.191,-19.653,-116.394,-55.298
1.719,-2.275,-0.230,-25.330,-120.728,-59.814
1.584,-2.178,-0.255,-27.222,-112.366,-62.317
1.458,-2.062,-0.267,-26.489,-93.567,-62.561
1.345,-1.946,-0.270,-22.888,-67.444,-61.584
1.262,-1.831,-0.257,-18.311,-38.879,-60.791
1.196,-1.722,-0.240,-14.343,-12.146,-61.218
1.154,-1.595,-0.221,-12.390,10.132,-62.561
1.135,-1.461,-0.197,-12.024,27.100,-64.575
1.119,-1.323,-0.174,-12.939,36.987,-66.956
1.096,-1.182,-0.151,-14.648,40.466,-69.092
1.066,-1.042,-0.134,-17.029,37.964,-70.984
1.032,-0.904,-0.118,-19.409,31.677,-72.571
0.999,-0.765,-0.103,-21.179,22.522,-73.486
0.960,-0.638,-0.087,-23.010,11.475,-73.669
0.911,-0.511,-0.070,-24.597,0.183,-72.571
0.854,-0.395,-0.059,-24.902,-10.620,-69.458
0.791,-0.296,-0.053,-24.292,-20.325,-63.110
0.728,-0.209,-0.049,-22.827,-27.771,-53.162
0.662,-0.131,-0.049,-20.813,-32.898,-39.917
0.587,-0.063,-0.052,-18.005,-35.522,-24.597
0.506,0.002,-0.061,-14.954,-35.278,-8.972
0.422,0.061,-0.071,-11.169,-32.532,5.859
0.342,0.103,-0.074,-5.981,-27.588,19.958
0.273,0.122,-0.073,0.305,-21.362,31.921
0.222,0.127,-0.066,7.202,-14.893,41.077
0.183,0.133,-0.047,13.550,-9.399,47.607
0.150,0.139,-0.031,19.775,-5.798,51.575
0.127,0.130,-0.012,26.001,-4.700,53.772
0.113,0.119,0.003,31.738,-5.615,54.504
0.109,0.106,0.022,36.743,-8.301,53.650
0.109,0.092,0.042,41.443,-13.428,51.575
0.113,0.083,0.058,45.471,-20.447,48.645
0.116,0.080,0.073,48.828,-28.992,45.166
0.113,0.081,0.085,51.392,-38.025,41.809
0.109,0.083,0.092,53.772,-47.180,39.246
0.104,0.081,0.095,55.481,-55.786,37.537
0.096,0.072,0.094,56.885,-63.721,36.133
0.085,0.055,0.095,57.007,-70.129,35.278
0.078,0.020,0.092,56.519,-75.378,34.180
0.069,-0.021,0.083,54.932,-79.346,33.203
0.054,-0.065,0.068,52.673,-81.604,31.311
0.044,-0.127,0.045,49.622,-81.238,28.564
0.054,-0.212,0.020,45.776,-78.003,25.024
0.092,-0.313,0.004,40.710,-71.960,21.240
0.153,-0.447,0.011,35.095,-65.063,18.311
0.232,-0.637,0.015,29.053,-59.692,17.700
0.307,-0.885,0.021,23.376,-55.786,19.958
0.357,-1.139,0.028,16.113,-52.490,25.696
0.376,-1.363,0.022,5.371,-49.500,33.752
0.399,-1.458,0.000,-8.606,-44.495,41.565
0.417,-1.459,-0.040,-24.048,-37.292,46.021
0.405,-1.572,-0.090,-36.560,-27.161,46.997
0.430,-1.812,-0.136,-45.959,-13.672,43.884
0.558,-1.987,-0.161,-54.077,2.258,30.762
0.772,-1.962,-0.190,-61.707,18.860,4.333
0.963,-1.783,-0.186,-68.604,33.813,-29.907
1.163,-1.650,-0.157,-71.533,45.593,-59.692
1.346,-1.503,-0.098,-70.129,51.941,-73.853
1.468,-1.376,-0.025,-65.002,50.232,-69.519
1.427,-1.254,0.023,-55.908,41.748,-54.932
1.299,-1.244,0.026,-43.518,31.860,-37.598
1.158,-1.244,0.025,-33.325,25.635,-24.597
1.038,-1.198,0.038,-27.649,23.376,-18.250
0.946,-1.130,0.049,-25.940,22.827,-17.883
0.869,-1.048,0.048,-26.123,22.888,-21.973
0.824,-0.967,0.036,-27.161,22.705,-28.687
0.796,-0.855,0.028,-29.175,22.522,-36.499
0.780,-0.749,0.015,-30.212,21.240,-43.457
0.753,-0.646,0.009,-30.029,18.677,-48.523
0.733,-0.577,-0.001,-27.344,16.479,-50.903
0.719,-0.538,-0.000,-23.560,14.099,-50.842
0.694,-0.500,0.005,-19.348,11.841,-47.791
0.660,-0.466,0.007,-15.564,9.766,-41.565
0.609,-0.448,0.007,-10.742,8.545,-32.959
0.564,-0.458,0.015,-5.432,8.728,-23.560
0.531,-0.490,0.026,-0.122,10.620,-14.587
0.510,-0.529,0.037,4.517,13.733,-6.592
0.501,-0.568,0.054,8.362,17.761,-0.977
0.508,-0.621,0.076,11.475,21.606,2.747
0.540,-0.676,0.102,14.404,24.780,4.028
0.583,-0.732,0.122,16.296,26.123,3.906
0.634,-0.789,0.143,17.517,25.146,2.197
0.687,-0.841,0.161,17.639,21.973,-0.244
0.740,-0.865,0.180,16.907,16.907,-2.625
0.793,-0.893,0.188,15.747,10.193,-3.357
0.830,-0.925,0.191,14.343,2.319,-3.601
0.856,-0.956,0.195,12.756,-5.981,-3.723
0.869,-0.978,0.199,11.292,-13.855,-4.089
0.860,-0.981,0.196,10.254,-21.362,-4.517
0.842,-0.977,0.185,9.583,-26.672,-4.272
0.814,-0.959,0.172,8.362,-28.625,-3.235
0.810,-0.953,0.150,6.897,-27.649,-1.282
0.758,-0.884,0.145,4.517,-24.353,1.404
0.748,-0.877,0.115,2.991,-19.226,5.798
0.734,-0.856,0.094,1.038,-12.756,9.094
0.681,-0.769,0.098,-0.977,-6.226,12.024
0.667,-0.758,0.081,-1.160,-0.671,16.541
0.631,-0.740,0.064,-1.282,4.272,19.470
0.610,-0.748,0.060,-1.160,8.667,21.912
0.580,-0.742,0.059,-1.099,11.902,22.766
0.552,-0.739,0.057,-0.183,14.282,23.010
0.533,-0.743,0.057,0.977,16.052,23.254
0.524,-0.750,0.056,1.709,17.456,23.193
0.511,-0.754,0.061,2.136,18.372,22.949
0.517,-0.767,0.061,2.625,18.433,23.010
0.521,-0.780,0.062,2.625,17.578,22.034
0.527,-0.797,0.062,2.075,15.869,20.142
0.534,-0.813,0.066,1.038,13.306,17.578
0.541,-0.811,0.071,-0.488,10.254,14.221
0.555,-0.808,0.075,-1.465,6.653,10.620
0.574,-0.804,0.073,-1.831,2.380,7.751
0.582,-0.793,0.071,-2.441,-1.770,5.798
0.580,-0.784,0.060,-2.808,-5.798,4.211
0.572,-0.776,0.049,-2.380,-8.301,2.319

0.997,-1.656,0.180,-15.198,1.160,3.540
1.040,-1.776,0.186,-20.020,1.831,1.770
1.092,-1.875,0.199,-23.132,0.610,-1.282
1.152,-1.956,0.210,-24.536,-2.869,-5.554
1.208,-1.985,0.216,-23.926,-8.728,-12.329
1.258,-1.955,0.217,-21.973,-15.991,-20.325
1.293,-1.907,0.210,-19.104,-24.475,-27.893
1.313,-1.872,0.192,-16.724,-32.898,-33.569
1.303,-1.822,0.166,-15.198,-39.734,-37.231
1.226,-1.716,0.140,-15.442,-42.908,-39.368
1.086,-1.599,0.117,-15.137,-40.039,-39.429
0.927,-1.560,0.084,-14.099,-28.992,-37.354
0.763,-1.484,0.038,-14.160,-10.010,-35.645
0.631,-1.391,0.002,-17.029,15.869,-36.133
0.557,-1.301,-0.017,-21.179,46.448,-38.879
0.534,-1.218,-0.039,-26.917,77.454,-44.006
0.545,-1.110,-0.062,-32.043,105.530,-51.697
0.582,-0.991,-0.078,-36.621,128.967,-59.082
0.637,-0.876,-0.081,-40.588,146.362,-64.819
0.708,-0.746,-0.072,-43.457,156.799,-69.275
0.781,-0.596,-0.046,-44.739,158.997,-71.655
0.834,-0.445,-0.014,-43.701,152.283,-71.167
0.853,-0.297,0.010,-40.588,137.329,-67.322
0.836,-0.150,0.021,-35.583,116.638,-59.998
0.787,-0.019,0.015,-29.236,91.980,-49.377
0.717,0.089,-0.000,-22.522,66.162,-36.133
0.644,0.161,-0.019,-15.991,40.649,-21.484
0.561,0.196,-0.042,-9.888,17.334,-7.507
0.466,0.201,-0.061,-3.418,-2.869,4.944
0.362,0.196,-0.076,2.869,-19.836,16.357
0.266,0.180,-0.087,9.155,-32.959,25.635
0.187,0.155,-0.097,15.381,-42.419,32.532
0.128,0.118,-0.104,20.996,-48.706,37.109
0.087,0.078,-0.106,25.452,-52.917,39.124
0.057,0.049,-0.105,28.931,-55.786,39.063
0.044,0.027,-0.100,31.311,-57.922,38.086
0.050,0.008,-0.096,33.325,-60.242,36.499
0.058,-0.002,-0.089,35.522,-63.232,34.729
0.066,-0.020,-0.081,37.720,-66.895,33.447
0.078,-0.053,-0.078,40.283,-70.801,32.654
0.088,-0.090,-0.078,42.419,-74.707,31.799
0.096,-0.125,-0.075,44.067,-78.613,31.128
0.107,-0.162,-0.072,44.922,-82.031,30.884
0.122,-0.212,-0.072,45.410,-85.693,30.884
0.143,-0.262,-0.071,44.983,-88.989,31.128
0.163,-0.301,-0.066,44.373,-91.797,31.250
0.180,-0.359,-0.057,43.823,-94.421,31.433
0.184,-0.466,-0.055,43.335,-96.252,32.410
0.181,-0.598,-0.063,42.114,-96.741,33.569
0.182,-0.759,-0.060,39.490,-94.910,34.485
0.197,-0.951,-0.059,33.936,-90.088,35.278
0.235,-1.133,-0.047,26.428,-82.825,36.011
0.296,-1.264,-0.021,17.090,-73.914,36.743
0.363,-1.343,-0.008,7.996,-65.735,37.964
0.415,-1.404,0.000,0.732,-59.082,39.856
0.435,-1.513,0.001,-4.578,-53.467,42.419
0.428,-1.668,-0.003,-8.911,-48.035,44.434
0.419,-1.784,0.002,-12.451,-42.114,42.114
0.426,-1.816,0.017,-14.832,-35.156,33.447
0.448,-1.831,0.033,-14.771,-26.184,19.958
0.502,-1.850,0.045,-13.672,-15.198,3.174
0.597,-1.833,0.069,-13.062,-3.540,-15.869
0.717,-1.755,0.102,-14.099,6.958,-35.095
0.828,-1.632,0.134,-16.174,13.977,-50.049
0.917,-1.487,0.162,-18.860,16.785,-57.068
0.971,-1.337,0.181,-21.179,15.259,-55.786
0.977,-1.214,0.185,-22.644,10.498,-49.438
0.953,-1.120,0.176,-22.766,4.700,-42.053
0.909,-1.034,0.158,-21.973,-0.671,-36.621
0.851,-0.955,0.133,-19.897,-4.333,-34.546
0.799,-0.880,0.111,-16.846,-5.920,-34.241
0.763,-0.809,0.108,-13.672,-5.493,-33.997
0.728,-0.737,0.104,-10.376,-4.578,-32.837
0.695,-0.678,0.099,-6.409,-3.418,-30.701
0.669,-0.640,0.101,-1.709,-2.625,-27.832
0.650,-0.612,0.110,3.967,-2.991,-24.902
0.624,-0.584,0.115,10.315,-4.761,-22.888
0.596,-0.561,0.121,17.273,-7.629,-21.790
0.571,-0.548,0.126,24.841,-11.414,-21.240
0.549,-0.549,0.129,31.616,-15.442,-20.508
0.527,-0.569,0.130,37.170,-19.653,-19.714
0.506,-0.601,0.135,41.077,-24.048,-18.982
0.498,-0.642,0.143,43.213,-27.954,-17.944
0.497,-0.683,0.156,44.250,-31.433,-16.296
0.500,-0.718,0.172,44.495,-34.973,-14.465
0.500,-0.753,0.193,43.823,-38.513,-13.062
0.506,-0.793,0.212,43.518,-41.870,-11.963
0.517,-0.836,0.233,43.335,-45.166,-10.803
0.521,-0.873,0.244,41.748,-47.974,-8.911
0.520,-0.916,0.254,39.307,-50.293,-7.019
0.520,-0.952,0.261,35.889,-50.842,-6.042
0.531,-0.979,0.271,30.762,-49.744,-5.737
0.553,-1.002,0.271,24.902,-47.852,-5.615
0.556,-1.001,0.272,18.433,-45.288,-5.310
0.571,-1.021,0.267,12.146,-42.419,-4.272
0.575,-1.018,0.263,5.798,-38.879,-3.967
0.581,-1.011,0.259,0.793,-34.668,-3.967
0.587,-1.001,0.252,-3.235,-29.602,-3.662
0.591,-0.987,0.242,-6.348,-24.109,-3.052
0.585,-0.969,0.228,-9.033,-18.127,-1.526
0.572,-0.948,0.211,-11.353,-11.475,0.916
0.556,-0.928,0.195,-13.000,-3.967,3.174
0.543,-0.905,0.179,-15.198,4.761,5.188
0.531,-0.880,0.166,-17.456,14.465,7.263
0.525,-0.857,0.151,-19.104,23.926,9.460
0.526,-0.839,0.142,-20.569,32.776,11.841
0.527,-0.821,0.134,-21.301,40.100,14.038
0.526,-0.812,0.129,-21.423,45.532,16.113
0.523,-0.819,0.124,-20.752,48.706,18.066
0.522,-0.827,0.124,-19.775,50.171,19.226
0.524,-0.831,0.128,-18.311,49.988,20.203
0.522,-0.835,0.131,-16.724,47.852,21.240
0.516,-0.842,0.132,-14.954,44.250,22.095
0.502,-0.846,0.129,-13.550,39.368,22.095
0.487,-0.851,0.123,-12.512,33.997,21.667
0.471,-0.850,0.115,-11.780,29.053,20.447
0.457,-0.846,0.109,-11.047,24.536,19.043
0.440,-0.835,0.101,-10.071,20.996,17.273
0.428,-0.826,0.092,-8.911,18.066,14.954

0.880,-1.801,0.128,8.972,-46.570,30.518
0.908,-1.938,0.117,7.751,-52.795,27.100
0.952,-2.079,0.122,7.568,-59.265,21.790
0.985,-2.168,0.132,8.606,-65.735,14.221
1.008,-2.211,0.148,11.658,-71.106,6.226
1.044,-2.269,0.161,16.602,-74.463,-0.122
1.065,-2.313,0.172,21.301,-75.989,-5.066
1.057,-2.272,0.180,22.522,-75.134,-9.399
1.038,-2.184,0.172,19.104,-70.862,-11.719
1.003,-2.092,0.153,12.756,-63.232,-11.414
0.962,-1.968,0.131,4.333,-52.673,-9.521
0.906,-1.799,0.121,-4.578,-38.879,-8.423
0.832,-1.651,0.097,-11.414,-22.949,-8.179
0.748,-1.511,0.080,-16.052,-5.371,-9.399
0.688,-1.341,0.084,-20.508,14.404,-11.902
0.653,-1.202,0.074,-23.376,34.058,-15.259
0.629,-1.064,0.077,-27.039,52.185,-19.043
0.632,-0.926,0.077,-31.433,67.810,-22.217
0.651,-0.796,0.076,-36.011,79.590,-24.170
0.678,-0.677,0.073,-41.199,87.097,-25.085
0.701,-0.558,0.077,-46.936,89.905,-24.780
0.701,-0.453,0.078,-51.453,88.379,-23.499
0.662,-0.341,0.064,-54.443,83.679,-20.508
0.588,-0.234,0.047,-55.847,77.148,-15.198
0.500,-0.131,0.019,-55.481,70.862,-7.935
0.407,-0.045,-0.003,-53.223,66.101,-0.183
0.318,0.039,-0.026,-48.767,62.927,7.812
0.236,0.126,-0.041,-42.358,60.730,14.954
0.175,0.196,-0.047,-33.569,59.448,20.874
0.132,0.240,-0.053,-23.010,57.983,26.184
0.112,0.255,-0.047,-11.658,55.115,30.212
0.105,0.266,-0.029,-2.136,49.255,32.837
0.103,0.260,-0.009,6.653,39.795,33.813
0.115,0.227,0.016,14.709,27.649,33.020
0.124,0.191,0.034,21.423,12.878,30.518
0.132,0.185,0.045,26.855,-2.869,26.367
0.143,0.188,0.055,31.372,-19.043,21.973
0.150,0.184,0.057,34.607,-35.156,19.043
0.156,0.181,0.063,37.781,-50.476,17.212
0.159,0.176,0.069,40.833,-64.514,16.479
0.165,0.168,0.079,44.250,-76.904,17.700
0.166,0.150,0.087,47.791,-88.074,20.569
0.160,0.117,0.089,51.392,-98.022,24.414
0.152,0.072,0.094,53.589,-106.262,28.687
0.139,0.014,0.100,53.955,-112.793,32.593
0.134,-0.060,0.098,52.429,-117.554,36.316
0.135,-0.131,0.095,48.401,-120.483,38.513
0.143,-0.198,0.095,41.931,-121.033,39.246
0.170,-0.289,0.083,34.180,-120.728,39.551
0.206,-0.412,0.072,24.841,-119.507,40.100
0.252,-0.557,0.071,14.160,-117.981,41.687
0.316,-0.731,0.079,2.991,-116.516,45.715
0.376,-0.940,0.104,-7.263,-115.356,52.124
0.401,-1.194,0.122,-16.663,-115.295,60.608
0.408,-1.440,0.124,-25.696,-115.906,68.237
0.382,-1.590,0.133,-34.180,-114.929,71.289
0.323,-1.687,0.141,-39.185,-110.474,68.237
0.265,-1.861,0.148,-37.720,-100.708,59.692
0.291,-2.143,0.176,-29.419,-84.412,45.288
0.436,-2.329,0.219,-18.860,-64.941,20.752
0.626,-2.269,0.254,-12.573,-47.546,-16.724
0.808,-2.098,0.285,-10.254,-30.762,-60.547
0.988,-1.936,0.321,-13.367,-14.099,-94.055
1.105,-1.712,0.330,-23.743,-0.671,-105.469
1.133,-1.455,0.328,-36.133,9.827,-98.145
1.079,-1.238,0.307,-44.617,19.958,-80.139
0.967,-1.100,0.255,-47.607,32.776,-59.814
0.818,-1.009,0.202,-48.096,50.049,-43.762
0.699,-0.946,0.153,-46.936,71.960,-33.936
0.621,-0.907,0.119,-45.410,96.680,-29.175
0.581,-0.873,0.098,-44.861,120.911,-27.954
0.586,-0.822,0.093,-45.959,141.541,-28.381
0.607,-0.755,0.096,-47.668,155.396,-29.541
0.570,-0.604,0.119,-48.218,161.316,-30.579
0.677,-0.679,0.044,-44.678,160.828,-27.832
0.663,-0.612,0.106,-43.640,156.189,-30.945
0.729,-0.583,0.133,-40.161,143.555,-32.776
0.724,-0.509,0.164,-33.203,123.047,-34.912
0.757,-0.536,0.160,-22.583,99.609,-33.447
0.737,-0.512,0.156,-13.000,75.378,-34.790
0.693,-0.463,0.172,-4.211,51.941,-35.828
0.679,-0.466,0.169,5.737,30.579,-33.752
0.643,-0.469,0.179,14.465,12.756,-31.433
0.622,-0.473,0.196,21.851,-1.709,-27.771
0.618,-0.501,0.206,27.405,-13.184,-22.034
0.598,-0.536,0.213,31.372,-22.766,-16.602
0.575,-0.563,0.224,33.264,-29.541,-12.024
0.567,-0.600,0.236,33.875,-33.508,-8.362
0.561,-0.641,0.248,33.508,-35.889,-5.859
0.560,-0.683,0.260,32.166,-36.926,-3.784
0.563,-0.731,0.276,29.480,-37.598,-1.953
0.562,-0.779,0.284,26.733,-38.086,-0.610
0.554,-0.835,0.298,24.475,-38.147,-0.427
0.558,-0.902,0.316,23.010,-38.330,-0.854
0.568,-0.964,0.329,21.790,-38.574,-2.136
0.579,-1.005,0.336,21.118,-39.124,-3.601
0.590,-1.028,0.335,19.897,-39.368,-5.737
0.600,-1.035,0.334,17.883,-39.307,-9.033
0.613,-1.028,0.333,15.320,-38.696,-12.695
0.628,-1.013,0.334,12.573,-37.476,-16.479
0.647,-1.001,0.331,10.376,-36.072,-18.860
0.664,-0.986,0.326,8.423,-34.180,-18.982
0.676,-0.979,0.325,6.348,-32.043,-17.395
0.685,-0.977,0.328,5.249,-29.846,-15.442
0.693,-0.993,0.340,4.944,-28.320,-13.123
0.687,-1.004,0.347,4.822,-27.588,-10.742
0.667,-1.000,0.348,5.005,-27.344,-8.362
0.635,-0.990,0.334,5.188,-27.222,-5.615
0.595,-0.976,0.312,3.845,-26.184,-2.991
0.553,-0.958,0.283,0.610,-23.193,0.244
0.510,-0.926,0.252,-4.395,-18.066,4.578
0.474,-0.893,0.220,-9.888,-10.925,8.911
0.441,-0.858,0.191,-15.015,-2.441,12.512
0.412,-0.817,0.172,-19.531,6.653,15.015
0.393,-0.784,0.155,-22.278,16.174,16.418
0.379,-0.768,0.143,-23.254,24.597,17.395
0.365,-0.766,0.133,-22.522,31.250,18.311
0.355,-0.767,0.127,-20.996,36.438,18.860
0.346,-0.770,0.126,-18.188,39.917,18.616

0.863,-1.506,0.336,25.757,-10.132,15.259
0.891,-1.630,0.352,24.902,-13.794,17.273
0.904,-1.758,0.353,22.156,-17.395,18.250
0.915,-1.881,0.350,17.761,-20.447,17.578
0.936,-1.981,0.350,12.207,-22.278,15.198
0.962,-2.054,0.358,7.385,-24.048,11.108
0.984,-2.107,0.367,3.174,-25.085,6.470
1.000,-2.161,0.374,0.366,-26.001,2.014
1.005,-2.217,0.368,-1.221,-26.489,-2.380
1.000,-2.227,0.358,-2.502,-25.940,-7.080
0.986,-2.186,0.343,-4.456,-24.170,-12.207
0.964,-2.124,0.320,-7.080,-21.057,-16.968
0.938,-2.029,0.283,-10.498,-16.235,-21.240
0.926,-1.903,0.250,-14.587,-10.132,-25.513
0.927,-1.762,0.228,-18.921,-3.906,-28.992
0.940,-1.597,0.222,-21.912,1.343,-31.494
0.969,-1.427,0.226,-22.644,4.211,-33.447
0.989,-1.269,0.231,-20.935,3.418,-34.180
0.994,-1.117,0.236,-17.456,-0.610,-33.508
0.997,-0.964,0.248,-13.184,-7.324,-31.189
0.985,-0.810,0.255,-8.057,-16.235,-27.832
0.953,-0.669,0.257,-2.563,-26.428,-23.376
0.915,-0.549,0.264,3.479,-36.072,-17.700
0.879,-0.448,0.269,9.033,-44.373,-11.536
0.832,-0.348,0.271,14.099,-51.208,-5.127
0.765,-0.253,0.266,18.311,-57.068,0.977
0.680,-0.167,0.252,21.912,-60.608,8.240
0.581,-0.106,0.240,24.658,-61.707,16.235
0.470,-0.077,0.221,26.733,-60.059,24.963
0.355,-0.058,0.190,26.733,-55.359,33.875
0.243,-0.040,0.161,25.024,-47.485,41.748
0.133,-0.021,0.138,21.729,-37.231,48.279
0.041,0.003,0.113,17.456,-24.841,53.162
-0.025,0.014,0.093,13.489,-11.292,55.725
-0.068,0.017,0.074,9.644,1.648,56.519
-0.080,0.043,0.077,5.249,13.550,56.213
-0.054,0.072,0.088,2.563,21.790,55.420
-0.026,0.094,0.089,1.892,24.597,53.711
0.000,0.100,0.081,2.380,22.400,51.208
0.022,0.103,0.067,3.052,16.296,48.340
0.037,0.114,0.059,3.906,7.629,45.166
0.044,0.123,0.046,4.944,-1.892,42.236
0.044,0.128,0.024,6.653,-11.414,40.161
0.040,0.129,0.003,8.362,-20.752,38.696
0.036,0.127,-0.019,11.414,-28.625,37.842
0.032,0.112,-0.049,14.465,-34.729,37.170
0.032,0.085,-0.076,17.822,-39.185,36.621
0.038,0.052,-0.095,20.691,-41.992,36.438
0.055,0.014,-0.107,23.315,-44.128,35.950
0.078,-0.051,-0.117,26.001,-46.143,35.156
0.103,-0.147,-0.126,28.442,-47.852,33.875
0.131,-0.276,-0.125,30.151,-49.255,31.555
0.158,-0.433,-0.124,31.067,-49.927,28.625
0.174,-0.595,-0.143,30.212,-49.316,26.855
0.173,-0.718,-0.161,26.062,-46.448,26.611
0.159,-0.828,-0.172,18.066,-40.222,29.236
0.166,-0.896,-0.181,7.874,-29.846,34.912
0.200,-0.915,-0.171,-2.625,-16.541,41.443
0.211,-1.016,-0.182,-11.230,-1.587,47.791
0.222,-1.238,-0.203,-18.005,16.113,54.138
0.311,-1.512,-0.178,-23.926,37.170,57.251
0.462,-1.750,-0.132,-26.978,57.983,52.185
0.597,-1.859,-0.092,-29.358,73.059,36.133
0.695,-1.882,-0.051,-31.738,81.116,14.709
0.879,-1.852,0.020,-33.264,84.167,-8.057
0.995,-1.804,0.082,-33.081,80.261,-30.640
1.061,-1.758,0.106,-32.349,71.289,-47.852
1.072,-1.641,0.108,-33.691,60.303,-60.730
1.016,-1.497,0.098,-35.522,52.002,-68.420
1.010,-1.351,0.102,-35.461,47.424,-72.205
0.967,-1.210,0.079,-34.302,44.373,-74.890
0.924,-1.089,0.060,-32.654,42.969,-75.012
0.881,-0.978,0.046,-30.701,42.542,-73.486
0.841,-0.854,0.042,-28.198,42.297,-70.496
0.812,-0.753,0.035,-24.353,41.992,-66.345
0.777,-0.667,0.037,-19.043,40.466,-61.462
0.740,-0.581,0.054,-13.062,37.781,-55.969
0.706,-0.516,0.074,-5.676,33.325,-49.988
0.674,-0.499,0.093,3.296,26.917,-43.518
0.643,-0.500,0.117,12.146,19.836,-36.621
0.625,-0.504,0.150,20.569,11.353,-30.579
0.591,-0.515,0.181,28.381,1.709,-24.475
0.565,-0.537,0.193,33.813,-7.996,-18.250
0.530,-0.585,0.227,37.415,-17.090,-12.512
0.530,-0.626,0.242,39.307,-26.062,-7.385
0.469,-0.644,0.234,39.551,-33.813,-3.967
0.475,-0.757,0.234,38.452,-38.818,-1.526
0.415,-0.779,0.255,34.912,-40.588,-1.648
0.425,-0.874,0.257,30.884,-39.856,-0.061
0.412,-0.958,0.252,26.001,-37.842,0.244
0.409,-1.036,0.248,19.287,-34.302,0.732
0.420,-1.105,0.245,12.451,-30.273,0.183
0.420,-1.149,0.250,6.836,-25.635,-3.113
0.443,-1.194,0.262,3.479,-20.996,-8.301
0.488,-1.229,0.272,2.136,-16.479,-14.526
0.542,-1.263,0.276,2.441,-14.160,-21.851
0.578,-1.248,0.284,2.808,-13.367,-30.273
0.626,-1.207,0.291,4.028,-13.733,-37.415
0.678,-1.152,0.295,5.737,-15.381,-43.579
0.709,-1.080,0.289,6.836,-18.250,-47.607
0.731,-1.008,0.272,7.202,-20.508,-48.340
0.713,-0.938,0.250,7.019,-21.667,-46.265
0.688,-0.880,0.225,6.042,-19.958,-41.809
0.654,-0.822,0.208,4.211,-15.198,-36.255
0.620,-0.784,0.188,2.441,-8.240,-30.579
0.596,-0.758,0.173,1.099,0.000,-24.475
0.583,-0.748,0.161,-0.427,8.423,-18.860
0.574,-0.745,0.155,-1.404,15.320,-13.794
0.567,-0.744,0.151,-2.197,19.714,-9.216
0.559,-0.757,0.149,-2.808,21.179,-5.798
0.554,-0.786,0.147,-2.197,19.653,-3.662
0.548,-0.830,0.152,-0.977,15.320,-3.174
0.543,-0.867,0.161,1.160,9.094,-3.235
0.536,-0.894,0.167,4.578,1.099,-3.845
0.521,-0.927,0.168,9.155,-7.446,-5.615
0.502,-0.960,0.168,13.367,-15.991,-7.446
0.481,-0.984,0.169,16.602,-23.865,-9.338
0.464,-1.003,0.172,18.433,-29.480,-10.315
0.447,-1.025,0.170,18.066,-32.959,-10.010

0.800,-1.680,0.271,-7.141,-30.640,5.371
0.837,-1.813,0.275,-7.629,-38.147,5.615
0.834,-1.968,0.262,-7.812,-44.800,7.690
0.810,-2.111,0.244,-7.690,-48.767,11.047
0.774,-2.209,0.229,-8.606,-49.072,13.550
0.733,-2.276,0.214,-9.216,-46.082,13.550
0.697,-2.340,0.203,-9.277,-39.795,11.414
0.675,-2.381,0.210,-8.972,-30.579,8.301
0.664,-2.404,0.222,-8.118,-20.203,4.272
0.656,-2.422,0.235,-7.874,-9.766,-0.305
0.644,-2.425,0.239,-8.850,-0.122,-4.395
0.628,-2.396,0.234,-11.353,8.972,-9.338
0.620,-2.328,0.216,-16.113,18.311,-15.198
0.615,-2.234,0.186,-23.621,27.527,-21.606
0.619,-2.100,0.156,-31.616,36.743,-28.198
0.637,-1.950,0.133,-39.612,45.288,-34.912
0.649,-1.802,0.108,-46.387,52.551,-41.077
0.665,-1.621,0.093,-51.147,58.350,-46.570
0.697,-1.417,0.084,-53.894,62.683,-50.781
0.733,-1.196,0.089,-54.199,64.453,-52.795
0.770,-0.972,0.102,-52.307,62.744,-52.612
0.799,-0.754,0.120,-47.180,57.617,-49.988
0.821,-0.556,0.134,-39.612,49.072,-44.739
0.825,-0.378,0.144,-29.907,37.720,-37.292
0.810,-0.233,0.149,-19.165,24.719,-27.405
0.779,-0.125,0.146,-7.751,10.681,-15.808
0.733,-0.063,0.140,4.150,-2.747,-3.784
0.671,-0.038,0.136,15.564,-14.832,8.728
0.601,-0.033,0.137,25.940,-25.513,21.423
0.525,-0.018,0.136,34.302,-34.363,33.386
0.423,0.002,0.126,41.199,-40.894,45.593
0.297,0.042,0.119,45.837,-44.006,58.533
0.184,0.074,0.113,49.316,-44.128,71.960
0.069,0.089,0.096,50.903,-40.405,84.045
-0.045,0.079,0.070,50.232,-32.532,93.567
-0.152,0.068,0.044,46.875,-20.813,100.647
-0.219,0.063,0.028,39.673,-6.165,105.408
-0.239,0.066,0.025,30.884,9.583,106.934
-0.216,0.076,0.038,21.118,23.743,105.225
-0.170,0.086,0.067,13.000,32.959,100.281
-0.112,0.119,0.096,7.751,34.912,92.957
-0.056,0.158,0.115,6.226,29.541,84.045
-0.007,0.182,0.116,6.592,18.188,74.524
0.026,0.199,0.098,8.484,2.686,64.819
0.042,0.228,0.079,11.719,-14.526,55.420
0.050,0.249,0.055,16.052,-32.410,48.279
0.048,0.253,0.031,21.240,-49.072,43.030
0.039,0.238,0.008,26.733,-63.232,39.673
0.030,0.218,-0.014,31.494,-74.585,38.269
0.014,0.197,-0.039,36.194,-82.825,38.147
0.000,0.145,-0.064,39.551,-87.585,38.330
-0.016,0.082,-0.085,41.931,-89.417,38.696
-0.018,0.020,-0.089,43.152,-88.074,38.208
-0.001,-0.055,-0.075,43.762,-84.229,36.865
0.025,-0.160,-0.062,44.189,-79.163,35.583
0.063,-0.289,-0.050,44.189,-74.219,33.691
0.114,-0.435,-0.044,43.030,-68.604,30.945
0.167,-0.609,-0.036,39.917,-63.171,27.771
0.209,-0.809,-0.019,34.607,-57.312,25.208
0.261,-0.988,-0.009,24.902,-49.744,24.109
0.320,-1.153,0.003,11.108,-41.443,26.001
0.370,-1.285,-0.017,-6.226,-33.264,30.701
0.405,-1.418,-0.087,-25.574,-24.170,35.400
0.475,-1.681,-0.153,-45.837,-12.390,34.912
0.603,-1.966,-0.190,-63.782,3.296,25.085
0.774,-2.054,-0.182,-79.712,20.874,6.348
0.944,-1.952,-0.111,-90.271,35.339,-14.343
1.158,-1.817,-0.016,-91.187,44.861,-30.823
1.243,-1.683,0.021,-82.214,47.668,-40.710
1.295,-1.632,0.089,-67.200,46.936,-41.199
1.259,-1.554,0.145,-50.171,43.640,-39.001
1.166,-1.490,0.192,-33.630,41.565,-36.865
1.014,-1.433,0.202,-20.081,42.175,-36.011
0.930,-1.415,0.196,-11.536,48.157,-35.767
0.849,-1.362,0.200,-9.399,57.800,-39.307
0.821,-1.285,0.210,-12.268,67.871,-43.579
0.807,-1.181,0.197,-17.456,75.012,-46.997
0.789,-1.081,0.197,-23.926,78.674,-47.424
0.775,-0.976,0.189,-29.846,78.796,-46.021
0.723,-0.869,0.173,-33.752,75.317,-43.335
0.707,-0.808,0.147,-35.645,70.068,-39.429
0.671,-0.740,0.141,-36.743,63.477,-37.598
0.625,-0.681,0.133,-35.522,54.749,-36.987
0.586,-0.650,0.129,-32.593,45.837,-36.133
0.535,-0.619,0.133,-26.917,36.926,-35.339
0.489,-0.589,0.139,-18.188,28.442,-34.485
0.459,-0.578,0.143,-7.690,20.874,-33.142
0.438,-0.584,0.150,4.028,13.916,-31.006
0.441,-0.616,0.170,16.113,7.690,-28.198
0.383,-0.545,0.167,27.344,1.038,-24.963
0.451,-0.730,0.180,39.429,-4.395,-19.714
0.343,-0.668,0.216,46.509,-9.216,-20.569
0.364,-0.731,0.279,52.917,-11.292,-15.320
0.444,-0.842,0.252,59.448,-18.066,-13.733
0.387,-0.919,0.252,60.120,-23.376,-14.343
0.373,-0.965,0.281,56.458,-26.611,-15.320
0.368,-0.985,0.301,52.734,-29.724,-17.151
0.357,-1.017,0.308,50.293,-32.043,-20.020
0.374,-1.057,0.321,48.340,-33.264,-23.193
0.398,-1.080,0.341,46.875,-34.424,-26.001
0.407,-1.059,0.323,45.288,-36.255,-27.893
0.448,-1.105,0.335,44.250,-37.354,-27.710
0.470,-1.119,0.318,41.687,-39.307,-29.358
0.468,-1.086,0.336,37.170,-39.673,-30.151
0.495,-1.078,0.332,31.738,-39.917,-28.809
0.490,-1.093,0.317,26.123,-39.795,-26.550
0.468,-1.089,0.320,19.653,-38.330,-23.743
0.485,-1.109,0.318,14.221,-36.072,-20.813
0.459,-1.082,0.315,10.071,-32.410,-20.081
0.452,-1.076,0.305,7.629,-27.161,-19.348
0.443,-1.059,0.293,5.188,-21.362,-19.226
0.435,-1.030,0.280,2.808,-15.320,-18.616
0.435,-1.007,0.266,-0.793,-9.338,-17.456
0.432,-0.979,0.252,-4.517,-4.150,-16.052
0.426,-0.951,0.227,-8.118,0.549,-14.343
0.420,-0.937,0.199,-10.803,5.371,-12.695
0.412,-0.913,0.177,-13.733,10.681,-11.475
0.404,-0.896,0.158,-15.808,16.174,-10.254
0.392,-0.884,0.143,-17.944,22.034,-8.911

0.620,-2.455,0.097,33.936,-42.358,5.798
0.672,-2.682,0.124,32.837,-45.288,-3.235
0.710,-2.832,0.156,30.273,-48.950,-12.756
0.751,-2.927,0.178,26.489,-53.955,-21.240
0.793,-2.967,0.186,21.240,-59.875,-27.283
0.816,-2.947,0.186,14.832,-66.284,-30.823
0.829,-2.897,0.193,8.179,-72.998,-32.898
0.844,-2.844,0.220,2.747,-79.773,-33.997
0.847,-2.779,0.249,-1.221,-87.402,-34.424
0.834,-2.656,0.249,-3.418,-95.581,-34.363
0.821,-2.482,0.257,-3.601,-103.271,-33.752
0.789,-2.334,0.274,-1.282,-108.704,-30.945
0.728,-2.211,0.289,3.784,-112.122,-25.452
0.643,-2.062,0.298,7.507,-112.671,-18.738
0.565,-1.887,0.281,9.338,-109.680,-12.573
0.499,-1.724,0.261,8.728,-103.210,-7.812
0.432,-1.545,0.228,5.005,-93.384,-5.493
0.391,-1.318,0.203,-2.014,-80.444,-5.981
0.374,-1.071,0.195,-9.827,-65.613,-8.850
0.374,-0.830,0.187,-16.418,-50.476,-11.719
0.369,-0.625,0.218,-20.691,-37.964,-13.367
0.371,-0.394,0.305,-25.574,-28.259,-13.550
0.386,-0.104,0.360,-29.236,-25.391,-11.963
0.403,0.153,0.362,-25.513,-30.457,-6.226
0.374,0.232,0.315,-12.695,-42.358,4.639
0.300,0.184,0.288,-0.671,-57.007,20.020
0.219,0.208,0.278,3.479,-70.129,30.579
0.145,0.276,0.247,4.089,-81.238,33.997
0.080,0.344,0.207,3.174,-88.379,32.959
0.027,0.403,0.158,1.587,-91.431,29.602
-0.035,0.446,0.110,-1.526,-89.844,24.963
-0.104,0.457,0.062,-6.042,-82.520,20.752
-0.092,0.430,-0.068,-10.254,-74.890,20.874
0.004,0.419,-0.123,-14.160,-68.054,22.217
0.048,0.461,-0.082,-13.306,-62.012,23.560
0.035,0.458,-0.095,-6.287,-61.462,25.330
0.024,0.401,-0.105,2.930,-64.819,25.146
0.040,0.385,-0.098,11.353,-69.153,23.743
0.061,0.412,-0.097,21.545,-74.951,23.132
0.069,0.413,-0.100,34.180,-82.458,24.902
0.059,0.377,-0.100,46.143,-89.661,29.724
0.049,0.334,-0.098,55.603,-96.130,36.377
0.025,0.303,-0.095,60.730,-102.417,42.847
0.009,0.263,-0.083,62.500,-107.239,47.729
0.028,0.222,-0.059,63.416,-109.131,52.612
0.053,0.191,-0.045,63.293,-109.924,57.251
0.037,0.116,-0.027,62.439,-110.840,61.890
0.002,0.043,-0.031,58.960,-111.511,65.186
-0.009,-0.017,-0.044,53.833,-109.497,67.078
-0.011,-0.064,-0.044,47.607,-104.004,67.749
-0.033,-0.092,-0.047,39.734,-96.252,66.650
-0.052,-0.129,-0.064,31.799,-86.304,64.697
-0.063,-0.139,-0.079,23.010,-73.486,62.195
-0.064,-0.123,-0.067,15.137,-58.655,59.387
-0.057,-0.124,-0.047,9.399,-43.213,56.702
-0.051,-0.156,-0.023,6.958,-27.771,54.626
-0.055,-0.230,0.008,7.629,-12.817,53.772
-0.041,-0.375,0.039,10.681,1.831,53.833
0.083,-0.604,0.093,13.550,17.090,52.917
0.262,-0.877,0.156,14.832,33.447,47.424
0.392,-1.158,0.174,12.024,49.255,36.438
0.505,-1.478,0.190,-0.183,62.317,26.672
0.666,-1.699,0.212,-25.635,71.167,21.484
0.905,-1.803,0.285,-59.814,73.730,20.142
1.100,-1.844,0.386,-92.285,66.895,20.996
1.145,-1.823,0.463,-114.502,48.279,21.851
1.134,-1.861,0.540,-126.526,25.879,23.315
1.156,-1.945,0.601,-134.338,8.179,22.766
1.118,-1.951,0.574,-143.127,-2.930,16.052
1.053,-1.938,0.528,-156.372,-2.380,6.104
0.888,-1.797,0.436,-171.509,9.583,-4.272
0.875,-1.682,0.410,-182.129,32.898,-10.742
0.798,-1.434,0.352,-187.622,58.167,-15.625
0.792,-1.258,0.308,-180.786,83.862,-10.925
0.883,-1.200,0.365,-169.006,107.239,-4.578
0.977,-1.122,0.366,-152.405,118.103,-7.141
1.004,-0.988,0.426,-132.874,121.582,-14.343
1.006,-0.830,0.573,-108.765,116.150,-18.005
1.037,-0.751,0.569,-78.003,94.360,-20.142
0.947,-0.762,0.503,-47.058,65.979,-20.264
0.878,-0.831,0.480,-23.437,42.419,-16.846
0.791,-0.777,0.473,-9.521,20.935,-19.104
0.639,-0.698,0.456,3.235,1.648,-20.081
0.572,-0.735,0.433,16.479,-12.085,-16.968
0.509,-0.771,0.408,26.367,-20.996,-16.296
0.416,-0.763,0.387,32.410,-25.269,-16.663
0.338,-0.767,0.388,36.560,-24.109,-13.123
0.312,-0.800,0.385,39.124,-20.325,-7.996
0.291,-0.843,0.359,40.161,-14.832,-4.150
0.273,-0.897,0.339,38.025,-8.301,-1.404
0.262,-0.915,0.329,32.288,-2.319,0.366
0.264,-0.895,0.339,26.184,2.686,1.526
0.275,-0.875,0.351,22.217,5.310,2.136
0.270,-0.873,0.344,20.630,5.371,1.343
0.261,-0.884,0.349,21.973,4.883,0.061
0.275,-0.886,0.382,24.109,4.944,-1.648
0.286,-0.860,0.399,27.039,2.686,-3.296
0.282,-0.828,0.400,30.945,-0.977,-4.211
0.280,-0.815,0.400,34.973,-4.150,-4.822
0.270,-0.806,0.389,37.781,-6.958,-5.920
0.247,-0.783,0.371,39.673,-8.850,-7.507
0.245,-0.779,0.361,39.612,-8.850,-9.216
0.257,-0.839,0.364,37.659,-7.507,-10.681
0.273,-0.930,0.393,34.546,-5.066,-9.888
0.292,-0.932,0.409,29.541,-3.418,-8.972
0.279,-0.917,0.433,23.132,-1.892,-6.531
0.280,-0.913,0.444,17.334,-0.732,-3.540
0.263,-0.898,0.429,12.634,0.244,-2.869
0.237,-0.885,0.427,8.728,2.625,-3.296
0.224,-0.875,0.407,5.554,5.615,-6.409
0.213,-0.860,0.382,2.319,9.277,-12.573
0.225,-0.863,0.364,-1.282,14.404,-19.531
0.268,-0.890,0.359,-4.578,19.165,-27.100
0.334,-0.946,0.381,-7.019,21.912,-32.959
0.416,-1.006,0.420,-8.972,20.447,-36.804
0.490,-1.044,0.467,-9.094,15.015,-39.673
0.541,-1.046,0.497,-8.423,6.226,-40.955
0.564,-1.035,0.508,-6.897,-4.028,-41.199
0.565,-1.028,0.508,-4.517,-14.343,-41.260

0.610,-1.693,0.433,28.748,-75.195,48.340
0.626,-1.883,0.455,39.246,-81.787,50.781
0.629,-2.041,0.483,48.767,-88.745,55.542
0.638,-2.189,0.510,56.580,-96.558,63.049
0.653,-2.328,0.537,61.890,-105.164,72.266
0.637,-2.441,0.540,63.721,-115.112,80.933
0.574,-2.520,0.518,61.035,-124.756,87.036
0.502,-2.556,0.486,53.223,-131.042,87.952
0.444,-2.547,0.448,41.260,-131.775,83.496
0.400,-2.499,0.418,26.855,-125.977,74.097
0.364,-2.438,0.401,12.390,-113.892,60.913
0.336,-2.347,0.385,0.366,-97.412,44.250
0.355,-2.198,0.383,-9.583,-77.759,25.269
0.412,-2.019,0.407,-16.663,-55.664,5.859
0.426,-1.799,0.377,-19.043,-34.912,-10.681
0.512,-1.782,0.431,-16.052,-12.512,-21.667
0.574,-1.661,0.438,-16.296,1.770,-36.194
0.637,-1.543,0.433,-17.883,12.268,-44.678
0.650,-1.368,0.429,-19.226,19.958,-47.974
0.646,-1.182,0.422,-19.653,24.475,-47.546
0.618,-0.963,0.413,-18.799,26.733,-44.495
0.599,-0.722,0.359,-15.442,28.625,-39.063
0.566,-0.485,0.344,-9.094,32.959,-33.020
0.557,-0.333,0.346,-0.549,36.987,-25.879
0.545,-0.215,0.332,8.667,39.124,-18.738
0.501,-0.121,0.323,15.991,39.978,-11.597
0.420,0.002,0.309,21.729,39.368,-3.723
0.366,0.038,0.256,26.306,37.964,5.798
0.343,0.011,0.229,26.123,38.330,11.902
0.313,0.055,0.254,19.836,37.354,11.780
0.291,0.140,0.234,11.719,30.212,11.963
0.275,0.214,0.188,2.319,19.287,15.198
0.266,0.245,0.171,-7.690,6.409,19.897
0.250,0.249,0.157,-18.616,-10.437,24.353
0.216,0.245,0.110,-29.907,-32.166,27.832
0.161,0.281,0.026,-39.856,-54.443,29.358
0.075,0.351,-0.063,-47.791,-74.097,30.396
-0.018,0.405,-0.154,-52.246,-87.646,32.227
-0.098,0.464,-0.202,-51.697,-94.543,32.837
-0.156,0.506,-0.229,-45.593,-95.886,32.349
-0.204,0.525,-0.251,-33.203,-93.506,31.189
-0.237,0.521,-0.250,-17.456,-88.379,30.579
-0.252,0.490,-0.234,-1.465,-82.336,30.579
-0.247,0.452,-0.212,12.756,-76.843,30.823
-0.231,0.399,-0.189,24.597,-72.571,31.189
-0.204,0.335,-0.176,33.264,-69.153,31.799
-0.186,0.284,-0.171,39.368,-65.979,31.677
-0.172,0.227,-0.169,42.786,-62.439,31.067
-0.160,0.167,-0.168,43.884,-57.678,29.541
-0.132,0.124,-0.140,42.603,-51.270,27.405
-0.088,0.087,-0.096,40.100,-45.166,25.574
-0.046,-0.006,-0.090,37.781,-40.955,26.062
0.023,-0.127,-0.062,33.081,-36.804,27.283
0.103,-0.198,-0.007,26.550,-32.776,28.503
0.167,-0.291,0.009,19.531,-31.006,33.386
0.219,-0.374,0.033,11.963,-29.602,39.063
0.261,-0.454,0.051,4.700,-28.870,44.617
0.275,-0.510,0.082,-1.770,-27.832,49.927
0.245,-0.561,0.070,-7.935,-25.513,54.504
0.183,-0.578,0.064,-13.916,-18.738,55.603
0.224,-0.635,0.114,-15.869,-3.967,53.528
0.405,-0.787,0.212,-10.193,15.625,48.584
0.493,-1.028,0.292,0.183,33.203,42.908
0.500,-1.308,0.371,5.981,46.082,41.870
0.641,-1.535,0.456,6.409,54.565,44.678
0.893,-1.669,0.608,5.310,58.167,45.227
1.040,-1.734,0.751,3.235,53.467,41.687
1.006,-1.751,0.833,-1.465,40.344,34.851
0.888,-1.753,0.841,-7.751,27.588,25.024
0.799,-1.780,0.819,-15.442,23.254,12.085
0.743,-1.813,0.754,-29.114,30.457,-4.456
0.669,-1.754,0.653,-50.415,47.485,-24.902
0.625,-1.633,0.569,-75.256,71.777,-45.105
0.619,-1.570,0.491,-96.802,98.572,-60.242
0.631,-1.588,0.389,-111.450,123.352,-71.228
0.804,-1.622,0.361,-121.094,144.836,-80.017
0.792,-1.322,0.352,-128.174,157.410,-90.515
0.962,-1.326,0.447,-125.000,161.194,-91.797
0.941,-1.104,0.399,-116.394,153.198,-99.609
0.883,-0.972,0.441,-103.577,145.752,-101.135
0.946,-0.850,0.531,-89.539,136.597,-95.825
0.879,-0.697,0.535,-72.327,118.164,-85.083
0.842,-0.711,0.427,-54.382,93.628,-68.909
0.752,-0.683,0.400,-42.847,75.684,-53.772
0.694,-0.680,0.337,-34.058,61.462,-41.138
0.578,-0.671,0.283,-24.353,52.612,-31.677
0.511,-0.729,0.274,-15.442,49.316,-26.123
0.478,-0.759,0.250,-7.935,48.340,-25.513
0.391,-0.714,0.234,-2.991,49.988,-27.649
0.363,-0.740,0.209,0.732,54.565,-30.396
0.349,-0.704,0.246,2.441,61.707,-36.194
0.376,-0.667,0.289,6.775,66.223,-41.077
0.311,-0.642,0.249,13.672,65.308,-43.762
0.309,-0.712,0.239,21.362,66.772,-41.748
0.308,-0.767,0.218,25.452,67.749,-43.396
0.287,-0.831,0.225,29.297,69.885,-44.373
0.283,-0.925,0.269,34.485,72.388,-42.542
0.298,-1.026,0.297,41.382,73.547,-39.246
0.302,-1.085,0.337,47.852,73.669,-35.645
0.318,-1.140,0.394,53.711,72.693,-32.593
0.323,-1.162,0.394,57.861,68.359,-32.837
0.319,-1.196,0.396,60.303,64.819,-34.302
0.320,-1.210,0.399,61.157,61.096,-39.001
0.330,-1.209,0.376,60.547,56.091,-45.776
0.339,-1.185,0.356,57.617,51.819,-53.894
0.350,-1.143,0.356,52.612,48.828,-62.195
0.337,-1.046,0.332,47.791,46.143,-69.275
0.380,-1.071,0.312,44.128,44.312,-72.327
0.367,-0.970,0.258,38.757,40.894,-78.369
0.341,-0.944,0.230,35.645,41.870,-78.247
0.344,-0.930,0.235,32.654,42.847,-77.271
0.358,-0.884,0.210,29.175,41.138,-76.416
0.353,-0.898,0.207,27.771,40.649,-71.045
0.369,-0.934,0.209,28.015,40.100,-63.293
0.373,-0.946,0.214,28.320,37.537,-57.617
0.365,-0.954,0.234,29.236,34.241,-51.697
0.368,-0.992,0.235,30.518,29.175,-46.814
0.363,-1.019,0.224,31.067,22.827,-44.434
0.345,-1.041,0.217,30.518,17.273,-43.091

0.394,-2.286,0.237,3.418,34.790,-9.033
0.433,-2.406,0.259,0.122,23.254,-12.207
0.458,-2.475,0.252,-6.165,9.888,-17.395
0.481,-2.488,0.225,-13.916,-2.747,-24.475
0.491,-2.500,0.191,-20.691,-12.146,-31.677
0.485,-2.519,0.164,-25.269,-17.700,-38.574
0.465,-2.536,0.147,-28.870,-19.165,-45.044
0.444,-2.549,0.124,-31.921,-16.296,-50.110
0.425,-2.531,0.095,-34.851,-9.460,-53.406
0.407,-2.455,0.092,-38.269,0.244,-54.504
0.401,-2.312,0.124,-41.626,12.329,-53.711
0.402,-2.107,0.170,-45.288,24.414,-51.514
0.397,-1.865,0.192,-48.218,34.729,-48.462
0.397,-1.608,0.204,-49.438,44.373,-44.495
0.398,-1.349,0.210,-47.729,53.345,-39.917
0.397,-1.087,0.204,-42.908,61.340,-34.912
0.401,-0.835,0.199,-35.583,68.542,-29.419
0.413,-0.584,0.203,-26.733,74.463,-23.071
0.431,-0.368,0.204,-16.418,78.735,-15.930
0.445,-0.215,0.202,-5.554,81.116,-7.629
0.447,-0.128,0.200,5.859,81.604,0.977
0.443,-0.077,0.175,15.686,80.200,10.437
0.447,-0.076,0.158,24.353,78.003,20.203
0.442,-0.129,0.164,29.907,74.341,30.273
0.424,-0.189,0.188,29.907,69.092,39.978
0.396,-0.199,0.196,24.414,62.195,49.072
0.364,-0.182,0.197,17.151,53.833,57.983
0.312,-0.167,0.194,9.155,44.861,66.833
0.251,-0.142,0.187,0.427,36.438,75.500
0.202,-0.104,0.175,-8.972,29.114,82.886
0.158,-0.082,0.158,-16.541,22.766,88.745
0.118,-0.062,0.135,-23.193,17.761,93.140
0.094,-0.037,0.115,-27.832,13.550,95.886
0.090,-0.014,0.093,-30.701,9.766,96.985
0.096,0.002,0.070,-31.677,5.310,96.436
0.095,0.010,0.050,-30.884,0.610,94.055
0.089,0.019,0.034,-29.907,-4.333,90.393
0.088,0.041,0.017,-28.687,-9.338,86.121
0.080,0.071,0.005,-25.879,-14.282,81.299
0.051,0.112,-0.013,-22.400,-18.677,77.271
0.025,0.142,-0.026,-18.188,-21.545,74.646
0.020,0.144,-0.038,-13.123,-23.254,72.693
0.025,0.124,-0.051,-7.690,-23.743,70.679
0.027,0.097,-0.059,-2.563,-23.560,68.481
0.029,0.056,-0.074,1.770,-23.010,65.918
0.033,0.017,-0.088,5.066,-22.339,62.805
0.038,-0.023,-0.104,6.775,-21.667,59.448
0.038,-0.059,-0.120,8.240,-20.813,55.908
0.032,-0.078,-0.131,9.094,-19.470,53.406
0.023,-0.131,-0.127,11.292,-18.250,52.063
-0.002,-0.244,-0.129,15.564,-17.151,52.124
-0.052,-0.413,-0.127,21.179,-15.137,53.406
-0.106,-0.654,-0.125,26.428,-9.766,54.443
-0.131,-0.963,-0.128,29.846,-0.549,52.795
-0.080,-1.236,-0.103,28.992,13.794,47.913
0.060,-1.301,-0.025,22.461,31.067,41.382
0.213,-1.208,0.057,14.099,44.922,34.363
0.305,-1.318,0.089,12.024,52.856,27.588
0.417,-1.694,0.116,17.822,58.105,19.287
0.589,-2.153,0.150,26.733,62.134,7.629
0.756,-2.536,0.154,27.039,63.599,-6.897
0.888,-2.725,0.136,10.132,62.744,-25.146
0.993,-2.627,0.091,-23.254,60.913,-44.189
1.068,-2.346,0.043,-60.730,57.983,-58.167
1.090,-2.068,0.002,-87.585,53.406,-63.477
1.055,-1.804,-0.028,-100.586,48.767,-61.584
1.017,-1.552,-0.011,-102.417,47.058,-55.359
0.990,-1.357,0.024,-95.886,47.607,-46.448
0.939,-1.231,0.059,-83.862,51.270,-36.621
0.871,-1.154,0.074,-69.763,56.458,-28.076
0.807,-1.084,0.075,-55.969,61.890,-21.667
0.756,-1.001,0.068,-44.861,66.772,-17.334
0.719,-0.894,0.051,-36.621,70.068,-14.221
0.689,-0.783,0.034,-30.457,70.679,-11.841
0.671,-0.681,0.027,-25.574,68.848,-10.254
0.662,-0.585,0.026,-20.996,64.026,-9.094
0.660,-0.514,0.021,-14.832,55.725,-8.301
0.645,-0.471,0.021,-8.362,44.983,-7.446
0.624,-0.453,0.026,-1.404,32.837,-6.409
0.599,-0.457,0.046,5.554,19.592,-5.310
0.573,-0.482,0.063,13.855,5.615,-4.395
0.537,-0.505,0.074,21.912,-7.996,-4.578
0.497,-0.509,0.091,29.236,-20.264,-5.310
0.468,-0.522,0.104,36.255,-30.579,-6.042
0.438,-0.534,0.114,42.847,-39.612,-7.324
0.413,-0.549,0.125,49.622,-47.119,-9.521
0.399,-0.569,0.130,56.335,-53.650,-12.451
0.383,-0.609,0.139,63.171,-59.326,-15.686
0.369,-0.665,0.155,69.214,-64.453,-19.592
0.357,-0.727,0.169,74.158,-69.336,-23.926
0.360,-0.799,0.187,78.308,-74.280,-28.442
0.370,-0.880,0.210,80.688,-78.613,-32.349
0.376,-0.951,0.229,80.078,-83.008,-34.424
0.379,-1.003,0.238,76.843,-87.708,-35.156
0.380,-1.035,0.244,71.960,-91.492,-33.997
0.372,-1.055,0.243,65.125,-93.384,-31.677
0.362,-1.063,0.234,57.983,-93.018,-29.358
0.355,-1.075,0.232,49.561,-89.111,-27.344
0.350,-1.077,0.219,40.588,-82.031,-26.489
0.343,-1.100,0.213,31.067,-72.327,-26.550
0.316,-1.106,0.203,22.400,-61.401,-28.259
0.341,-1.146,0.187,14.343,-48.828,-30.212
0.352,-1.129,0.168,5.127,-36.072,-35.400
0.316,-1.007,0.227,-2.380,-23.499,-37.659
0.382,-1.156,0.113,-4.944,-14.648,-35.034
0.318,-0.999,0.159,-13.550,-2.563,-39.490
0.329,-1.003,0.157,-14.954,10.681,-34.790
0.354,-0.966,0.157,-16.663,19.470,-33.875
0.373,-0.953,0.129,-16.724,25.879,-30.457
0.382,-0.947,0.116,-16.052,31.433,-26.978
0.384,-0.945,0.108,-15.503,34.973,-24.353
0.383,-0.941,0.092,-14.160,36.255,-22.766
0.378,-0.955,0.065,-12.878,37.415,-22.827
0.373,-0.967,0.065,-11.902,39.124,-23.987
0.392,-0.962,0.077,-9.705,39.917,-25.574
0.414,-0.949,0.093,-5.859,37.964,-26.733
0.434,-0.964,0.113,-0.916,34.424,-26.672
0.454,-0.982,0.130,4.272,28.748,-26.489
0.468,-0.985,0.142,9.460,21.484,-26.367

0.422,-2.293,-0.067,-20.691,13.428,24.292
0.413,-2.441,-0.084,-27.771,19.287,22.278
0.402,-2.528,-0.091,-34.119,26.184,18.372
0.401,-2.543,-0.084,-42.236,33.936,13.000
0.410,-2.505,-0.074,-50.293,41.199,6.165
0.418,-2.449,-0.066,-56.335,48.096,-1.526
0.415,-2.379,-0.063,-60.669,54.565,-9.338
0.401,-2.284,-0.071,-64.880,60.730,-17.456
0.392,-2.170,-0.077,-68.115,66.833,-25.757
0.391,-2.062,-0.084,-69.458,72.632,-33.997
0.392,-1.932,-0.096,-69.641,77.759,-42.542
0.398,-1.794,-0.090,-68.176,82.275,-51.086
0.408,-1.647,-0.069,-66.345,85.693,-58.716
0.428,-1.487,-0.039,-65.430,86.975,-64.392
0.454,-1.333,0.001,-65.308,86.182,-67.261
0.471,-1.183,0.032,-66.284,83.740,-66.711
0.474,-1.014,0.038,-69.397,80.322,-63.660
0.472,-0.827,0.033,-75.073,77.271,-58.960
0.467,-0.620,0.020,-82.092,74.951,-52.917
0.451,-0.393,0.015,-88.989,73.364,-47.119
0.410,-0.165,0.025,-92.834,74.280,-41.565
0.362,0.011,0.020,-91.248,75.806,-33.142
0.329,0.161,0.014,-83.862,75.745,-21.240
0.310,0.271,0.045,-69.702,75.256,-7.446
0.275,0.369,0.112,-51.086,72.388,5.920
0.232,0.424,0.198,-29.663,67.017,19.287
0.192,0.449,0.299,-7.446,57.678,31.799
0.158,0.442,0.376,13.672,42.786,42.236
0.117,0.427,0.391,34.546,24.048,49.072
0.085,0.379,0.378,53.833,4.639,52.063
0.071,0.313,0.366,69.580,-13.611,50.659
0.094,0.292,0.341,80.444,-30.396,45.410
0.124,0.276,0.301,86.426,-44.189,38.757
0.133,0.232,0.264,89.600,-55.115,30.823
0.135,0.192,0.237,90.027,-63.538,20.813
0.144,0.199,0.211,87.708,-70.129,10.071
0.160,0.212,0.205,83.679,-74.585,0.305
0.186,0.180,0.193,79.773,-78.674,-6.714
0.215,0.144,0.183,74.341,-83.984,-11.353
0.222,0.125,0.181,68.665,-89.966,-13.855
0.211,0.091,0.163,63.782,-94.910,-14.832
0.194,0.066,0.134,60.181,-97.961,-13.550
0.180,0.047,0.110,57.678,-98.083,-9.094
0.172,0.009,0.092,55.420,-95.581,-3.540
0.169,-0.039,0.069,52.124,-91.187,2.258
0.168,-0.098,0.045,47.729,-84.961,8.667
0.174,-0.184,0.018,42.236,-78.186,14.648
0.174,-0.307,-0.007,35.339,-71.350,19.958
0.172,-0.453,-0.040,26.611,-65.002,24.414
0.165,-0.599,-0.056,16.785,-59.082,27.405
0.153,-0.763,-0.060,6.897,-52.673,29.602
0.143,-0.946,-0.048,-1.770,-45.715,31.006
0.146,-1.119,-0.030,-9.521,-37.903,31.372
0.154,-1.325,0.005,-14.465,-28.931,31.616
0.152,-1.580,0.034,-17.212,-20.508,30.151
0.127,-1.866,0.022,-21.118,-13.000,26.733
0.092,-2.193,-0.001,-27.832,-4.089,23.193
0.056,-2.603,-0.025,-34.973,7.629,19.470
0.026,-3.050,-0.073,-45.288,20.935,14.404
0.081,-3.314,-0.106,-66.284,34.973,6.226
0.225,-3.180,-0.126,-101.013,48.706,-7.324
0.360,-2.766,-0.161,-136.597,61.279,-25.635
0.445,-2.396,-0.204,-160.950,72.876,-44.861
0.498,-2.088,-0.244,-172.607,81.543,-61.951
0.529,-1.810,-0.261,-175.903,90.271,-73.608
0.528,-1.563,-0.256,-171.143,100.830,-79.590
0.527,-1.370,-0.234,-157.227,112.000,-80.750
0.538,-1.207,-0.195,-135.132,122.253,-76.538
0.560,-1.057,-0.142,-108.704,130.493,-68.787
0.595,-0.977,-0.077,-78.674,135.559,-59.875
0.629,-0.972,-0.025,-47.363,135.681,-52.307
0.656,-0.983,0.005,-18.433,130.493,-47.058
0.680,-0.945,0.013,5.432,120.544,-42.114
0.707,-0.871,0.017,24.780,106.262,-36.804
0.738,-0.806,0.025,40.100,87.097,-31.128
0.762,-0.759,0.039,52.673,63.354,-24.353
0.775,-0.705,0.046,62.073,35.889,-16.663
0.769,-0.667,0.062,69.763,6.287,-7.935
0.751,-0.642,0.088,77.148,-25.146,0.732
0.707,-0.617,0.105,83.740,-57.617,10.376
0.650,-0.627,0.135,90.393,-88.257,22.339
0.598,-0.648,0.157,96.558,-116.577,33.630
0.535,-0.642,0.186,100.769,-140.686,43.030
0.458,-0.616,0.232,105.957,-161.438,53.345
0.408,-0.689,0.185,111.511,-179.626,62.378
0.300,-0.659,0.164,112.305,-190.491,66.956
0.208,-0.742,0.146,113.770,-192.932,73.181
0.138,-0.803,0.144,111.755,-189.209,72.083
0.084,-0.839,0.145,107.483,-179.932,68.176
0.052,-0.905,0.154,104.370,-166.443,64.941
0.029,-0.981,0.163,101.074,-151.794,59.570
0.011,-1.064,0.160,96.130,-137.146,52.979
-0.011,-1.128,0.152,89.172,-122.437,45.715
-0.024,-1.185,0.155,79.956,-106.934,37.842
-0.028,-1.197,0.157,67.749,-92.712,28.809
-0.032,-1.186,0.145,53.467,-80.017,19.470
-0.032,-1.166,0.131,38.879,-67.078,9.949
-0.019,-1.143,0.120,24.170,-54.016,1.404
0.006,-1.120,0.109,10.986,-41.931,-5.310
0.040,-1.100,0.109,0.183,-31.250,-11.047
0.065,-1.061,0.118,-8.301,-22.644,-16.357
0.116,-1.048,0.112,-15.015,-16.479,-20.935
0.142,-1.004,0.109,-20.935,-12.146,-25.330
0.161,-0.984,0.102,-24.841,-9.338,-28.625
0.158,-0.954,0.079,-27.649,-7.324,-31.799
0.163,-0.916,0.072,-28.687,-3.662,-32.715
0.189,-0.889,0.087,-27.649,-0.732,-31.677
0.207,-0.882,0.052,-24.597,0.061,-29.053
0.202,-0.911,0.025,-20.691,3.113,-25.513
0.176,-0.914,0.032,-17.944,8.240,-22.888
0.177,-0.932,0.026,-13.977,13.123,-20.447
0.182,-0.943,0.016,-9.766,18.982,-19.348
0.197,-0.958,0.021,-5.310,25.879,-18.921
0.229,-0.974,0.032,-0.610,31.860,-19.653
0.256,-0.980,0.049,4.028,36.011,-19.775
0.282,-0.980,0.066,8.789,37.903,-18.494
0.319,-1.000,0.088,14.221,36.743,-15.991
0.344,-1.016,0.108,19.226,32.715,-13.123
0.340,-1.023,0.118,23.315,26.550,-10.254

0.407,-2.371,0.009,3.418,64.453,15.259
0.420,-2.480,0.028,2.930,56.580,9.705
0.433,-2.537,0.040,-0.549,47.058,3.723
0.441,-2.546,0.031,-7.446,36.133,-2.136
0.426,-2.520,0.000,-16.418,25.330,-7.141
0.397,-2.455,-0.038,-26.733,16.113,-11.414
0.369,-2.355,-0.075,-36.133,9.399,-14.404
0.350,-2.264,-0.107,-42.664,5.981,-16.418
0.333,-2.172,-0.121,-46.387,5.127,-17.944
0.314,-2.049,-0.117,-48.279,6.470,-19.470
0.305,-1.907,-0.098,-47.302,8.728,-21.545
0.312,-1.753,-0.073,-45.105,11.292,-24.170
0.330,-1.600,-0.047,-41.992,13.123,-28.198
0.348,-1.447,-0.027,-38.757,13.855,-33.691
0.367,-1.277,-0.014,-36.255,12.695,-39.612
0.390,-1.099,-0.010,-34.119,9.338,-45.349
0.414,-0.929,-0.011,-33.142,4.028,-49.683
0.436,-0.757,-0.018,-33.936,-2.319,-51.941
0.455,-0.581,-0.029,-35.828,-10.010,-52.246
0.462,-0.413,-0.032,-37.476,-18.005,-50.232
0.463,-0.276,-0.032,-37.231,-25.574,-46.448
0.470,-0.158,-0.022,-34.668,-32.471,-41.199
0.478,-0.059,-0.005,-29.968,-38.940,-34.790
0.484,0.006,0.013,-22.461,-45.410,-27.344
0.486,0.049,0.039,-13.672,-52.185,-19.165
0.462,0.078,0.064,-5.127,-59.509,-10.742
0.410,0.097,0.079,3.296,-66.406,-2.502
0.342,0.098,0.086,10.559,-71.716,6.836
0.287,0.069,0.084,16.907,-74.097,17.273
0.242,0.042,0.085,20.813,-73.669,26.917
0.189,0.040,0.089,22.461,-70.679,35.095
0.138,0.044,0.094,23.743,-65.796,41.870
0.099,0.042,0.097,24.414,-59.631,47.424
0.069,0.037,0.096,24.231,-52.612,51.514
0.036,0.046,0.095,22.583,-45.044,54.199
0.007,0.064,0.100,20.630,-37.476,55.786
-0.004,0.072,0.104,18.799,-30.823,56.885
-0.008,0.073,0.107,16.418,-25.208,56.702
-0.016,0.077,0.098,13.428,-21.667,55.664
-0.023,0.085,0.087,10.559,-19.043,53.955
-0.026,0.078,0.075,7.446,-17.090,51.575
-0.016,0.054,0.053,5.249,-16.541,48.279
0.003,0.040,0.030,2.686,-17.212,44.312
0.034,0.016,0.005,0.366,-19.104,39.612
0.073,-0.012,-0.020,-0.427,-22.705,34.485
0.114,-0.057,-0.029,0.427,-28.137,30.029
0.163,-0.139,-0.032,2.441,-35.583,27.283
0.205,-0.232,-0.031,5.249,-45.837,25.574
0.221,-0.324,-0.019,8.423,-57.190,25.391
0.196,-0.461,-0.015,12.512,-68.420,26.672
0.136,-0.662,-0.037,16.663,-76.965,28.870
0.062,-0.889,-0.067,18.982,-79.102,31.616
0.007,-1.128,-0.081,19.043,-73.975,34.302
-0.019,-1.384,-0.058,19.043,-63.293,35.156
-0.053,-1.648,-0.037,18.982,-49.377,33.447
-0.105,-1.914,-0.065,15.564,-33.447,28.931
-0.142,-2.180,-0.111,5.432,-14.282,21.729
-0.137,-2.430,-0.135,-5.981,8.850,12.878
-0.086,-2.638,-0.157,-15.686,34.607,2.563
0.061,-2.762,-0.136,-26.306,60.852,-9.949
0.281,-2.691,-0.094,-41.016,82.764,-27.954
