aX,aY,aZ,gX,gY,gZ
1.272,-0.371,-1.061,77.148,76.111,-30.396
1.406,-0.392,-1.103,101.563,84.229,-34.973
1.496,-0.374,-1.090,132.507,87.585,-36.987
1.511,-0.334,-0.983,166.199,86.609,-34.851
1.492,-0.320,-0.850,202.209,79.407,-27.954
1.484,-0.348,-0.752,238.525,66.772,-19.226
1.445,-0.380,-0.664,272.156,51.025,-11.597
1.400,-0.443,-0.633,303.284,34.668,-5.005
1.314,-0.523,-0.593,332.092,22.522,-1.160
1.222,-0.526,-0.523,354.248,18.372,1.953
1.178,-0.519,-0.444,372.803,18.921,4.944
1.189,-0.509,-0.376,390.503,19.531,7.568
1.164,-0.518,-0.294,407.288,19.348,9.521
1.149,-0.528,-0.203,421.753,16.785,11.169
1.081,-0.525,-0.121,433.777,10.193,12.451
1.041,-0.555,-0.080,441.650,1.831,14.404
0.977,-0.601,-0.007,445.679,-5.371,14.893
0.955,-0.634,0.041,444.092,-12.390,12.451
0.966,-0.664,0.038,436.829,-19.958,8.545
0.785,-0.697,0.155,425.598,-24.719,2.441
0.712,-0.689,0.192,408.875,-30.396,-3.906
0.737,-0.671,0.229,388.733,-30.396,-8.545
0.713,-0.613,0.279,367.004,-26.367,-13.245
0.652,-0.555,0.297,344.299,-23.804,-16.418
0.670,-0.505,0.302,322.388,-22.522,-16.663
0.741,-0.514,0.277,301.270,-22.705,-16.296
0.760,-0.483,0.305,279.968,-23.010,-17.822
0.756,-0.443,0.343,259.399,-25.757,-17.395
0.764,-0.408,0.336,240.295,-34.241,-15.625
0.774,-0.387,0.340,221.252,-44.189,-15.747
0.772,-0.422,0.405,201.477,-51.819,-17.944
0.846,-0.438,0.513,179.565,-60.791,-23.132
0.970,-0.473,0.721,155.579,-78.674,-27.039
0.990,-0.454,0.847,124.023,-110.718,-27.039
0.797,-0.440,0.782,84.961,-138.733,-25.208
0.479,-0.482,0.676,45.532,-137.268,-21.912
0.295,-0.430,0.612,9.583,-99.243,-18.738
0.482,-0.258,0.566,-19.287,-39.368,-16.235
0.790,-0.152,0.401,-33.447,2.747,-11.902
0.931,-0.082,0.258,-34.729,16.418,-7.874
0.964,-0.001,0.213,-26.428,16.235,-5.676
0.969,0.037,0.153,-13.794,7.629,-3.479
0.908,0.055,0.075,-2.258,-0.916,-2.930
0.912,0.072,0.032,6.958,-2.136,-3.601
0.919,0.077,0.015,13.794,0.610,-3.967
0.911,0.060,0.013,18.921,3.540,-3.540
0.937,0.051,0.021,21.423,8.362,-4.211
0.940,0.049,0.033,21.545,12.512,-5.493
0.948,0.038,0.061,19.958,15.930,-6.775
0.969,0.040,0.077,17.151,18.127,-7.935
0.973,0.033,0.091,12.695,19.836,-7.507
0.984,0.029,0.107,7.507,21.423,-6.042
1.010,0.017,0.130,2.197,21.240,-3.662
1.020,0.002,0.119,-3.906,18.799,-1.160
1.033,-0.010,0.118,-9.460,15.869,2.197
1.034,-0.020,0.133,-13.794,11.963,4.456
1.031,-0.027,0.131,-17.883,7.141,5.249
1.025,-0.046,0.129,-21.606,2.991,5.005
1.024,-0.047,0.138,-24.780,0.122,3.113
1.032,-0.039,0.148,-26.672,-2.380,0.916
1.032,-0.035,0.151,-28.320,-5.127,-0.244
1.026,-0.038,0.143,-30.090,-8.118,-0.061
1.020,-0.042,0.126,-32.532,-10.071,0.305
1.001,-0.033,0.104,-35.583,-10.925,0.488
0.985,-0.028,0.093,-39.124,-10.010,1.831
0.969,-0.027,0.089,-42.908,-7.141,3.540
0.955,-0.023,0.077,-46.936,-3.235,4.883
0.963,-0.037,0.073,-50.354,1.709,5.676
1.004,-0.041,0.086,-53.955,7.568,5.859
1.042,-0.043,0.111,-57.068,11.047,5.066
1.084,-0.063,0.148,-59.814,10.254,4.272
1.086,-0.079,0.144,-63.293,4.822,2.258
1.079,-0.076,0.135,-67.383,-2.197,0.000
1.070,-0.074,0.129,-71.045,-8.484,-0.610
1.049,-0.066,0.113,-74.890,-14.099,-0.122
1.023,-0.054,0.105,-78.247,-18.250,1.038
0.997,-0.047,0.101,-80.688,-19.592,3.357
0.981,-0.050,0.095,-82.642,-18.250,5.554
0.956,-0.051,0.101,-86.060,-15.015,7.080
0.934,-0.053,0.122,-90.637,-10.132,7.812
0.928,-0.054,0.141,-95.581,-4.944,7.263
0.941,-0.050,0.149,-100.037,-0.610,5.798
0.944,-0.041,0.157,-103.394,1.831,4.578
0.957,-0.019,0.146,-104.553,2.319,5.981
0.946,-0.018,0.120,-104.065,1.526,9.155
0.921,-0.019,0.096,-105.225,2.075,12.634
0.943,-0.023,0.109,-108.154,4.700,14.709
0.988,-0.015,0.117,-112.915,6.836,15.625
1.013,-0.002,0.107,-117.493,6.531,16.052
1.012,-0.000,0.107,-120.667,4.578,16.418
1.014,0.003,0.107,-122.559,0.061,16.846
1.026,0.001,0.069,-123.169,-5.737,17.090
1.024,0.005,0.052,-123.230,-8.850,14.893
1.021,0.023,0.061,-122.681,-9.277,13.123
1.038,0.037,0.080,-121.460,-7.874,12.512
1.048,0.066,0.093,-120.483,-6.348,12.573
1.037,0.075,0.107,-118.896,-4.822,14.038
1.033,0.063,0.111,-117.432,-3.296,16.418
1.023,0.041,0.113,-119.019,-1.892,19.043
1.022,0.035,0.130,-123.108,0.061,20.996
1.010,0.053,0.139,-128.845,2.380,22.339
0.985,0.082,0.104,-133.545,4.272,23.071
0.960,0.083,0.077,-135.071,6.592,23.132
0.951,0.087,0.043,-135.254,9.277,22.827
0.967,0.107,0.023,-133.362,11.597,22.095
0.986,0.108,0.023,-129.150,12.390,22.705
0.992,0.085,0.000,-123.901,10.315,24.963
0.999,0.072,0.013,-121.338,6.958,28.076
1.030,0.112,0.047,-121.155,3.479,31.006
1.032,0.127,0.036,-120.728,-1.831,34.485
1.018,0.137,0.019,-118.469,-7.324,35.950
1.001,0.144,0.001,-115.295,-11.536,35.461
0.973,0.149,-0.008,-111.755,-13.672,33.386
0.957,0.153,-0.024,-108.032,-14.221,30.640
0.953,0.152,-0.033,-104.187,-12.939,27.588
0.947,0.151,-0.037,-100.952,-10.254,24.414
0.940,0.157,-0.049,-98.450,-7.629,22.034
0.935,0.172,-0.062,-94.788,-4.944,20.630
0.962,0.163,-0.052,-89.111,-2.502,20.447

1.205,-0.273,-1.085,224.060,47.363,-36.560
1.189,-0.315,-1.087,251.099,46.570,-34.058
1.177,-0.345,-1.045,276.978,50.415,-32.227
1.163,-0.380,-0.995,302.795,57.007,-31.677
1.153,-0.400,-0.920,326.904,65.186,-32.288
1.146,-0.421,-0.816,348.572,73.120,-32.837
1.158,-0.423,-0.726,368.164,79.407,-34.058
1.136,-0.427,-0.624,386.475,85.266,-36.560
1.134,-0.443,-0.523,404.236,90.820,-38.940
1.160,-0.471,-0.431,419.983,93.384,-40.710
1.181,-0.505,-0.356,431.885,91.187,-41.504
1.235,-0.501,-0.284,439.880,84.412,-42.053
1.266,-0.496,-0.180,446.350,73.120,-40.833
1.281,-0.494,-0.082,450.989,54.504,-37.781
1.257,-0.503,-0.017,452.820,29.602,-34.973
1.203,-0.495,0.035,449.890,2.136,-32.898
1.103,-0.501,0.040,441.589,-23.193,-29.541
0.998,-0.529,0.071,429.565,-44.312,-27.954
0.923,-0.513,0.146,413.513,-58.716,-28.442
0.845,-0.471,0.196,396.362,-68.481,-28.992
0.785,-0.446,0.241,381.226,-71.167,-29.175
0.764,-0.431,0.272,367.920,-67.932,-28.992
0.689,-0.426,0.298,354.065,-61.890,-29.114
0.701,-0.413,0.301,340.576,-53.406,-28.870
0.658,-0.391,0.322,328.491,-41.687,-29.907
0.670,-0.403,0.337,317.078,-30.884,-30.945
0.715,-0.402,0.400,306.580,-22.583,-32.593
0.773,-0.397,0.416,295.227,-20.508,-34.607
0.650,-0.431,0.455,280.762,-19.165,-36.377
0.776,-0.458,0.531,262.268,-14.404,-39.063
0.960,-0.649,0.922,241.089,-12.939,-38.879
1.169,-0.781,1.510,201.477,-32.959,-38.513
1.044,-0.945,1.680,127.808,-73.608,-27.405
0.678,-0.561,1.138,36.072,-78.064,-17.029
0.550,-0.296,0.930,-23.804,-31.311,-9.216
0.668,-0.183,0.572,-53.345,-0.061,-8.789
0.871,-0.090,0.309,-57.312,13.916,-4.822
0.975,-0.009,0.217,-45.044,20.691,1.465
0.974,0.045,0.150,-28.992,15.320,6.287
0.925,0.082,0.065,-13.672,6.958,8.606
0.949,0.101,0.061,-0.854,6.287,8.179
1.002,0.134,0.040,8.179,5.859,6.165
0.977,0.138,-0.005,14.954,2.197,4.639
0.920,0.135,-0.045,19.592,1.892,3.052
0.923,0.139,-0.069,22.217,4.761,0.061
0.967,0.156,-0.051,24.231,9.460,-2.930
1.014,0.163,-0.006,24.963,12.085,-4.028
1.002,0.174,0.016,24.353,10.010,-3.418
0.964,0.140,0.027,22.278,5.432,-0.610
0.936,0.178,0.021,19.714,1.648,0.549
1.015,0.115,0.049,16.846,-0.671,1.892
1.038,0.148,0.045,12.146,-3.540,1.343
0.963,0.146,0.042,8.301,-5.859,2.869
0.888,0.116,0.023,5.188,-7.263,5.615
0.909,0.124,0.004,1.953,-4.822,4.761
0.952,0.140,0.037,0.427,1.709,3.662
0.937,0.117,0.053,0.549,7.141,3.845
0.962,0.121,0.062,0.000,9.949,3.662
0.992,0.118,0.085,0.427,12.207,3.540
0.999,0.108,0.110,1.648,12.512,4.272
0.980,0.124,0.124,2.502,10.986,5.981
1.083,0.048,0.132,2.991,10.071,9.033
1.002,0.047,0.193,1.465,8.972,5.859
1.035,0.084,0.160,-2.747,4.700,4.150
0.966,0.051,0.169,-4.883,3.174,5.859
0.980,0.069,0.172,-7.263,5.066,5.493
1.027,0.069,0.164,-10.620,5.920,5.371
1.007,0.074,0.164,-13.733,6.104,6.592
0.996,0.079,0.129,-17.212,4.822,9.216
0.960,0.074,0.098,-20.203,4.944,11.902
0.934,0.076,0.090,-21.973,8.057,13.611
0.944,0.084,0.099,-23.560,12.817,14.099
0.947,0.074,0.111,-24.353,16.418,14.893
0.944,0.066,0.121,-24.841,18.433,15.198
0.967,0.058,0.133,-25.024,18.982,14.343
0.999,0.056,0.140,-25.391,17.822,13.245
0.996,0.052,0.131,-25.269,13.733,12.451
0.979,0.057,0.118,-24.902,8.789,10.986
0.968,0.070,0.111,-25.208,5.554,9.399
0.918,0.080,0.099,-25.940,3.784,7.629
0.991,0.093,0.113,-27.283,3.845,5.920
1.018,0.102,0.126,-29.480,2.563,4.944
1.000,0.114,0.108,-31.616,-1.709,4.700
1.007,0.113,0.092,-33.508,-4.333,5.188
1.014,0.113,0.086,-34.668,-5.981,5.676
1.011,0.107,0.074,-35.034,-8.118,5.981
0.996,0.112,0.079,-35.034,-8.789,5.554
0.996,0.115,0.081,-34.729,-8.362,5.249
0.984,0.109,0.082,-33.752,-6.897,4.944
0.974,0.106,0.077,-32.776,-4.517,4.456
0.984,0.104,0.072,-32.715,-1.221,4.150
0.990,0.098,0.078,-33.203,2.197,4.395
0.933,0.080,0.076,-34.973,5.676,5.188
1.000,0.083,0.094,-38.452,10.254,6.226
0.992,0.048,0.099,-42.969,14.343,7.812
0.968,0.031,0.083,-49.438,16.174,7.812
0.994,0.025,0.084,-56.519,18.127,7.202
1.021,0.045,0.094,-62.317,19.165,7.263
1.016,0.036,0.071,-66.711,17.090,9.033
1.028,0.051,0.058,-69.763,13.550,10.437
1.073,0.062,0.077,-70.129,9.583,11.719
1.081,0.067,0.086,-69.275,4.211,12.817
1.059,0.086,0.078,-68.970,-1.526,12.817
1.047,0.092,0.071,-68.604,-5.249,12.878
1.046,0.102,0.068,-67.993,-6.897,12.634
1.037,0.109,0.067,-67.200,-7.751,12.878
1.020,0.103,0.065,-67.871,-7.202,13.123
1.027,0.104,0.068,-70.557,-5.798,12.817
1.034,0.103,0.076,-73.975,-4.272,12.390
1.027,0.102,0.079,-78.430,-3.723,11.169
1.020,0.094,0.086,-84.167,-3.357,9.766
1.032,0.104,0.090,-90.271,-3.662,8.667
1.038,0.102,0.089,-95.459,-5.310,7.629
1.041,0.091,0.087,-100.159,-7.812,6.775
1.047,0.091,0.086,-104.492,-11.658,6.470
1.053,0.099,0.098,-108.887,-15.991,6.897
1.059,0.108,0.112,-114.136,-20.569,8.362
1.061,0.106,0.111,-118.530,-26.245,10.254
1.051,0.099,0.097,-121.765,-32.043,12.390

1.210,-0.185,-1.439,50.049,-0.671,-11.597
1.277,-0.161,-1.587,66.650,-0.916,-10.681
1.344,-0.115,-1.640,92.896,-1.892,-8.545
1.344,-0.098,-1.615,126.892,-3.235,-5.554
1.321,-0.110,-1.576,167.480,-3.906,-2.075
1.291,-0.122,-1.505,212.463,-1.892,0.610
1.269,-0.201,-1.451,259.949,2.441,2.625
1.218,-0.333,-1.359,308.289,10.071,2.869
1.133,-0.440,-1.237,350.464,24.048,1.587
1.100,-0.516,-1.089,388.062,45.105,-0.610
1.093,-0.632,-0.963,422.852,69.031,-2.441
1.086,-0.700,-0.842,454.712,92.041,-3.845
1.102,-0.772,-0.700,484.741,112.549,-5.249
1.151,-0.822,-0.475,514.404,127.380,-6.165
1.226,-0.855,-0.255,544.800,133.118,-5.859
1.248,-0.952,-0.106,577.515,126.465,-5.310
1.454,-0.999,0.104,607.666,109.253,-6.897
1.401,-1.136,0.156,633.850,79.651,-6.348
1.217,-1.358,0.145,647.705,47.424,-8.850
1.129,-1.401,0.101,640.503,19.775,-16.113
1.099,-1.408,0.221,620.239,4.944,-18.372
1.055,-1.362,0.384,586.853,-5.310,-16.418
0.952,-1.278,0.451,544.434,-12.878,-13.794
0.813,-1.201,0.523,501.465,-11.414,-12.390
0.754,-1.115,0.629,455.750,-3.296,-13.855
0.726,-1.019,0.672,407.471,6.348,-13.672
0.744,-0.970,0.784,358.643,22.461,-14.282
0.875,-0.934,0.869,307.861,35.339,-14.771
0.869,-0.884,0.918,258.057,38.391,-13.062
1.158,-1.068,1.375,213.074,33.630,-12.817
1.421,-1.035,1.970,151.306,-5.371,-14.771
0.865,-1.396,1.880,63.904,-67.627,-0.793
0.215,-0.753,1.084,-33.020,-75.195,3.906
0.274,-0.420,0.814,-80.444,-12.085,-2.869
0.701,-0.367,0.592,-94.116,33.142,-4.883
0.933,-0.262,0.357,-97.961,48.096,-1.892
0.933,-0.118,0.217,-93.811,47.791,2.258
0.937,-0.039,0.119,-82.947,41.565,4.333
1.054,0.072,0.058,-71.289,35.278,4.883
1.045,0.084,-0.024,-58.960,26.855,8.179
1.062,0.125,-0.020,-48.035,20.996,7.568
1.055,0.201,-0.058,-40.466,14.587,5.615
1.079,0.204,-0.116,-32.715,9.216,5.188
1.087,0.192,-0.151,-24.292,7.324,2.625
1.098,0.198,-0.126,-15.869,7.507,-1.709
1.105,0.227,-0.108,-9.155,6.042,-5.920
1.063,0.233,-0.109,-3.662,2.136,-8.911
0.987,0.230,-0.119,0.000,-0.549,-10.498
0.907,0.236,-0.128,2.014,0.305,-10.864
0.993,0.254,-0.078,2.869,4.395,-9.521
0.963,0.244,-0.073,3.235,4.822,-5.981
0.937,0.208,-0.053,2.441,2.258,-2.319
0.911,0.173,-0.018,1.282,-1.282,1.038
0.958,0.227,-0.040,-0.549,-5.127,4.578
0.989,0.139,-0.031,0.549,-4.578,9.094
0.947,0.156,-0.010,0.427,-2.808,8.667
0.922,0.130,-0.007,1.465,-2.258,9.583
0.932,0.139,0.001,1.770,-0.916,8.484
0.956,0.144,0.031,2.991,3.052,6.958
0.991,0.137,0.047,4.578,5.737,5.432
0.996,0.134,0.047,5.981,6.042,4.211
1.001,0.129,0.056,7.507,6.042,4.028
1.019,0.135,0.075,8.728,5.554,4.272
1.002,0.133,0.065,7.629,3.418,4.822
0.966,0.124,0.052,6.226,3.052,5.615
0.955,0.117,0.057,4.517,5.676,6.165
0.960,0.115,0.068,2.319,8.850,5.981
0.954,0.104,0.067,0.366,10.681,6.104
0.968,0.085,0.073,-0.732,12.390,6.104
1.018,0.099,0.099,-2.197,13.062,5.493
1.044,0.089,0.096,-2.869,10.315,6.409
1.047,0.086,0.077,-2.563,5.737,8.667
1.056,0.074,0.091,-2.686,1.831,9.827
1.056,0.087,0.079,-3.052,-1.892,9.338
1.022,0.078,0.075,-3.906,-4.333,9.155
1.012,0.082,0.068,-4.944,-5.432,8.179
1.008,0.088,0.073,-5.798,-5.798,7.385
0.998,0.088,0.078,-6.226,-6.165,6.836
0.998,0.091,0.079,-7.019,-6.653,6.042
0.973,0.095,0.070,-7.874,-6.348,5.371
0.986,0.101,0.068,-9.216,-5.127,4.883
0.988,0.087,0.077,-10.986,-4.944,4.028
0.957,0.112,0.054,-13.428,-5.920,2.747
0.967,0.116,0.050,-16.052,-5.981,3.113
0.972,0.110,0.033,-18.799,-5.798,3.906
0.958,0.127,0.030,-21.606,-5.554,4.089
0.960,0.129,0.026,-23.865,-5.310,4.883
0.956,0.119,0.006,-25.085,-4.211,6.226
0.946,0.126,0.005,-25.391,-1.587,6.653
1.027,0.126,0.023,-24.841,1.221,7.141
1.006,0.115,0.025,-23.499,0.671,7.385
0.994,0.109,0.030,-21.851,-1.709,7.263
1.009,0.109,0.061,-20.508,-2.380,6.897
1.002,0.093,0.060,-18.921,-3.723,6.348
0.999,0.077,0.088,-17.456,-4.395,4.639
1.003,0.071,0.114,-17.517,-5.066,2.930
1.007,0.073,0.132,-19.287,-5.798,1.831
0.975,0.064,0.147,-22.400,-6.042,1.160
1.001,0.041,0.161,-27.649,-5.371,0.488
1.017,0.078,0.176,-33.752,-4.700,-0.366
1.026,0.064,0.187,-38.940,-5.615,1.648
1.027,0.045,0.181,-44.556,-9.216,3.784
1.028,0.054,0.183,-50.903,-11.902,4.822
1.013,0.046,0.176,-57.190,-13.733,6.470
1.000,0.044,0.169,-64.026,-13.977,7.385
1.007,0.047,0.176,-70.129,-12.451,7.690
1.030,0.053,0.180,-75.623,-11.414,8.362
1.028,0.055,0.183,-80.750,-11.475,10.132
1.014,0.063,0.180,-86.121,-11.353,13.245
1.002,0.050,0.168,-91.125,-10.132,17.395
1.002,0.046,0.168,-96.313,-7.263,20.142
1.020,0.050,0.177,-101.929,-3.845,22.766
1.012,0.037,0.176,-109.375,-1.160,26.611
1.005,0.018,0.179,-118.591,1.038,30.334
1.008,0.018,0.191,-129.639,2.502,33.447
0.994,0.020,0.189,-141.602,3.052,36.011
0.985,0.025,0.193,-154.236,3.601,37.659
0.983,0.023,0.193,-165.039,3.662,39.856
0.968,0.024,0.183,-173.828,2.747,41.748

1.294,0.105,-1.192,100.403,16.968,18.616
1.347,0.088,-1.185,114.380,25.818,20.813
1.375,0.061,-1.161,133.850,30.762,24.719
1.367,0.014,-1.108,158.203,33.081,29.968
1.356,-0.071,-1.056,184.814,33.569,35.889
1.318,-0.180,-0.996,211.304,32.593,42.053
1.260,-0.261,-0.912,235.413,31.189,47.607
1.228,-0.312,-0.831,258.240,30.029,51.514
1.167,-0.375,-0.745,281.799,30.151,54.565
1.105,-0.442,-0.639,304.993,32.776,56.213
1.061,-0.512,-0.551,327.148,36.133,56.519
1.018,-0.537,-0.466,348.877,41.809,54.749
0.945,-0.595,-0.420,370.483,50.720,51.819
0.862,-0.656,-0.425,391.663,61.462,46.936
0.805,-0.674,-0.384,412.659,80.322,40.894
0.771,-0.726,-0.316,435.608,106.934,35.278
0.858,-0.757,-0.208,457.520,134.583,28.259
0.936,-0.792,-0.073,477.722,157.715,23.010
1.019,-0.822,0.091,494.385,172.058,18.494
1.115,-0.856,0.212,506.348,170.654,14.587
1.153,-0.926,0.266,513.306,153.687,12.146
1.218,-0.964,0.360,513.489,126.770,9.399
1.258,-0.961,0.495,505.798,87.219,7.141
1.235,-0.945,0.592,491.577,34.424,3.845
1.114,-0.878,0.630,472.046,-19.836,-2.136
0.981,-0.810,0.661,451.843,-66.833,-9.766
0.794,-0.805,0.675,430.481,-101.868,-19.165
0.645,-0.790,0.685,405.640,-122.314,-29.297
0.576,-0.725,0.712,379.456,-127.625,-39.673
0.512,-0.680,0.743,354.492,-124.878,-48.706
0.424,-0.664,0.761,327.820,-115.845,-54.993
0.308,-0.691,0.805,297.668,-94.482,-59.570
0.225,-0.673,0.895,262.817,-58.167,-62.561
0.274,-0.696,0.935,225.281,-10.803,-63.232
0.477,-0.691,0.949,184.570,35.706,-58.350
0.682,-0.652,0.956,145.630,69.580,-47.791
0.834,-0.599,0.969,112.305,83.801,-34.180
0.884,-0.567,0.905,83.435,80.505,-19.409
1.034,-0.537,0.937,56.335,74.707,-4.700
1.090,-0.481,0.892,31.555,63.232,8.423
1.118,-0.469,0.844,9.033,51.208,18.127
1.173,-0.434,0.789,-11.108,40.161,23.193
1.187,-0.382,0.723,-28.381,27.344,23.071
1.178,-0.329,0.641,-41.016,13.977,18.921
1.163,-0.273,0.573,-49.805,1.282,11.780
1.136,-0.210,0.506,-54.382,-9.399,2.991
1.085,-0.137,0.442,-55.115,-18.860,-4.822
1.027,-0.062,0.382,-53.284,-25.146,-10.559
0.949,-0.008,0.324,-48.523,-26.367,-13.184
0.952,0.045,0.321,-41.870,-21.790,-13.367
1.018,0.046,0.336,-33.691,-18.188,-10.864
0.989,0.033,0.311,-26.306,-20.142,-9.399
1.018,0.052,0.346,-20.569,-23.132,-9.949
0.997,0.071,0.339,-15.930,-28.748,-8.240
0.948,0.038,0.328,-11.719,-33.020,-5.249
0.946,0.058,0.321,-8.362,-35.461,-3.967
0.916,0.037,0.317,-4.944,-35.400,-1.953
0.914,0.004,0.306,-3.113,-33.386,-0.488
0.890,-0.017,0.289,-4.028,-31.128,-3.601
0.872,0.022,0.310,-7.141,-26.123,-8.301
0.887,0.033,0.319,-9.460,-21.240,-8.179
0.886,0.037,0.318,-11.719,-18.555,-5.859
0.883,0.006,0.308,-13.245,-15.564,-3.052
0.877,-0.001,0.346,-15.259,-11.169,-3.296
0.923,0.048,0.340,-17.273,-8.728,-3.540
0.874,-0.026,0.331,-16.235,-6.287,-0.122
0.890,0.006,0.350,-16.724,-2.747,-0.793
0.925,0.010,0.353,-17.090,1.343,0.061
0.954,-0.005,0.368,-17.639,4.211,2.075
0.746,-0.017,0.258,-19.409,5.310,3.479
0.901,0.010,0.334,-21.301,17.029,3.845
0.950,0.025,0.361,-23.499,26.917,4.761
0.977,0.009,0.336,-25.085,24.658,7.202
0.949,0.004,0.353,-27.100,20.447,8.911
1.011,0.032,0.350,-29.846,17.090,10.681
0.997,0.000,0.322,-31.860,10.071,12.634
0.965,0.001,0.320,-33.997,4.333,13.000
0.950,0.021,0.311,-36.011,0.854,11.963
0.927,0.019,0.306,-36.499,-0.610,10.376
0.923,0.021,0.315,-35.645,-0.854,7.935
0.935,0.032,0.333,-34.424,-0.610,5.005
0.941,0.034,0.345,-32.104,-1.892,2.686
0.934,0.025,0.353,-29.053,-4.089,1.099
0.930,0.021,0.364,-26.367,-5.249,-0.305
0.938,0.014,0.381,-24.353,-6.470,-2.014
0.905,0.017,0.383,-23.254,-8.057,-3.235
0.898,0.019,0.395,-22.461,-8.118,-3.662
0.899,0.012,0.403,-22.705,-6.897,-3.479
0.901,0.003,0.414,-24.597,-4.517,-3.235
0.920,-0.003,0.424,-28.564,-2.197,-3.174
0.938,-0.008,0.436,-33.875,-0.793,-2.930
0.950,-0.011,0.447,-40.405,0.000,-1.953
0.964,-0.017,0.452,-47.974,-0.671,-0.854
0.961,-0.021,0.448,-55.542,-2.625,-0.061
0.953,-0.020,0.440,-64.087,-4.700,0.488
0.938,-0.016,0.428,-71.777,-6.165,0.305
0.926,-0.017,0.411,-77.576,-5.859,0.427
0.926,-0.023,0.395,-81.665,-3.357,1.587
0.920,-0.029,0.388,-87.097,1.099,3.723
0.902,-0.034,0.396,-93.811,8.057,6.592
0.888,-0.025,0.401,-101.990,16.968,9.399
0.889,-0.020,0.417,-111.267,27.222,11.780
0.889,-0.013,0.424,-121.643,37.415,13.977
0.887,0.003,0.406,-130.859,45.471,16.052
0.896,0.008,0.376,-137.146,51.819,18.982
0.920,0.005,0.336,-140.869,56.458,22.278
0.938,0.004,0.327,-144.653,60.730,25.391
0.957,0.015,0.336,-148.315,64.941,27.954
0.971,0.027,0.346,-151.855,68.298,30.396
0.979,0.034,0.337,-155.151,69.763,33.691
0.980,0.042,0.317,-157.715,69.153,36.499
0.971,0.046,0.293,-160.095,67.383,39.124
0.964,0.044,0.268,-162.109,65.796,40.771
0.947,0.053,0.247,-164.124,65.186,40.710
0.931,0.054,0.242,-166.382,65.308,38.574
0.915,0.074,0.219,-169.373,65.674,35.522
0.905,0.086,0.206,-172.119,66.223,32.715
0.907,0.099,0.183,-174.805,65.674,30.396
0.906,0.110,0.163,-176.758,63.660,28.442

1.356,0.209,-1.041,21.790,-5.615,19.836
1.349,0.208,-1.083,35.706,-6.165,26.489
1.365,0.215,-1.101,52.979,-8.057,34.729
1.452,0.189,-1.074,73.059,-12.085,45.837
1.439,0.129,-1.084,95.642,-21.729,59.448
1.384,0.088,-1.058,118.164,-31.128,72.449
1.340,0.025,-1.016,140.442,-38.452,84.961
1.287,-0.036,-1.004,161.865,-44.861,96.313
1.211,-0.078,-0.959,182.922,-46.570,107.178
1.161,-0.123,-0.881,202.759,-44.189,117.371
1.170,-0.184,-0.807,221.375,-42.297,126.404
1.147,-0.197,-0.730,238.892,-42.908,135.010
1.055,-0.216,-0.644,258.606,-43.335,142.334
1.010,-0.206,-0.558,279.785,-44.250,147.949
1.025,-0.182,-0.440,304.993,-44.739,154.114
1.031,-0.205,-0.305,333.130,-48.035,162.720
1.039,-0.242,-0.198,362.610,-60.303,172.607
1.036,-0.310,-0.114,393.066,-78.430,182.983
0.998,-0.340,-0.044,423.401,-99.182,192.688
0.972,-0.381,0.059,457.092,-121.338,202.698
1.011,-0.472,0.148,490.967,-150.513,217.224
0.932,-0.583,0.191,519.531,-190.674,233.215
0.724,-0.765,0.134,541.077,-229.309,242.432
0.513,-0.989,0.176,545.654,-253.967,243.225
0.382,-1.084,0.382,529.907,-260.925,238.220
0.289,-1.061,0.476,499.817,-264.893,232.178
0.104,-0.979,0.461,464.233,-264.587,223.572
-0.109,-0.986,0.491,430.908,-246.399,206.787
-0.211,-0.976,0.550,395.325,-217.041,183.533
-0.303,-0.951,0.552,356.873,-180.298,160.645
-0.348,-0.950,0.587,320.923,-130.188,139.099
-0.303,-0.900,0.690,287.415,-74.036,118.469
-0.219,-0.824,0.774,256.958,-24.597,101.379
-0.126,-0.760,0.840,231.201,17.090,90.820
0.026,-0.706,0.904,210.815,51.758,84.961
0.258,-0.687,1.003,196.594,74.463,80.994
0.357,-0.620,1.005,187.073,77.820,75.073
0.500,-0.724,1.025,182.434,72.510,72.388
0.514,-0.610,1.076,179.626,62.927,64.575
0.458,-0.583,1.088,178.894,48.157,62.439
0.311,-0.611,1.098,180.115,36.987,62.195
0.178,-0.628,1.141,178.162,39.063,54.749
0.067,-0.619,1.177,173.096,52.307,45.532
-0.004,-0.656,1.213,167.786,75.195,40.710
-0.060,-0.687,1.218,159.485,102.234,35.767
-0.034,-0.709,1.228,148.376,129.517,30.823
0.188,-0.742,1.249,134.705,148.193,27.466
0.441,-0.764,1.234,117.920,149.841,21.118
0.569,-0.751,1.251,100.464,139.099,14.587
0.629,-0.715,1.255,82.092,118.896,9.277
0.629,-0.678,1.202,61.768,94.666,4.211
0.668,-0.645,1.155,40.405,74.707,-1.099
0.760,-0.567,1.150,18.005,55.115,-6.409
0.855,-0.540,1.079,-2.136,28.198,-12.085
0.864,-0.498,1.012,-20.142,-1.160,-18.494
0.770,-0.426,0.890,-35.034,-25.574,-23.621
0.545,-0.384,0.694,-45.471,-36.621,-25.452
0.604,-0.344,0.764,-50.293,-22.644,-27.527
0.654,-0.339,0.610,-54.260,-10.559,-28.564
0.691,-0.218,0.722,-54.810,-2.808,-28.076
0.879,-0.223,0.743,-53.284,-6.348,-22.034
0.913,-0.262,0.698,-49.377,-20.386,-14.404
0.813,-0.208,0.680,-46.082,-32.227,-11.902
0.754,-0.191,0.683,-41.504,-38.879,-7.385
0.765,-0.193,0.655,-37.354,-41.077,-3.967
0.755,-0.204,0.642,-33.264,-40.649,-3.113
0.725,-0.195,0.650,-29.968,-40.161,-2.563
0.670,-0.189,0.609,-28.015,-39.978,-1.953
0.643,-0.187,0.605,-26.306,-35.461,-1.587
0.635,-0.192,0.599,-24.719,-28.992,-0.977
0.614,-0.187,0.601,-22.705,-22.339,-0.366
0.598,-0.183,0.610,-20.325,-15.564,0.671
0.578,-0.182,0.622,-17.700,-9.949,2.441
0.568,-0.190,0.631,-14.832,-4.944,5.249
0.578,-0.204,0.642,-12.146,-0.549,7.202
0.575,-0.202,0.662,-9.521,2.563,8.362
0.559,-0.223,0.661,-6.226,3.784,10.132
0.543,-0.228,0.670,-3.540,6.104,10.681
0.570,-0.233,0.703,-1.099,9.094,10.437
0.566,-0.259,0.695,0.183,9.216,9.216
0.514,-0.271,0.677,0.732,10.071,6.287
0.519,-0.272,0.701,1.099,13.672,3.174
0.551,-0.254,0.714,0.793,15.930,0.671
0.555,-0.264,0.735,0.549,17.212,-0.977
0.585,-0.238,0.702,0.854,17.273,-0.916
0.633,-0.249,0.824,1.038,18.921,-0.366
0.662,-0.274,0.764,-0.732,14.465,-2.197
0.587,-0.247,0.738,-1.831,9.399,-2.869
0.685,-0.281,0.817,-1.831,10.376,-1.465
0.614,-0.303,0.744,-4.395,0.854,-1.709
0.509,-0.271,0.729,-5.554,2.441,-0.854
0.508,-0.278,0.754,-6.897,10.803,0.427
0.446,-0.282,0.697,-7.874,21.790,1.221
0.516,-0.280,0.781,-8.362,37.781,1.526
0.579,-0.294,0.784,-9.949,45.837,2.075
0.629,-0.297,0.819,-12.268,48.340,1.587
0.639,-0.302,0.808,-14.648,46.509,1.587
0.638,-0.327,0.801,-18.005,43.884,2.014
0.660,-0.307,0.814,-22.461,42.053,0.305
0.674,-0.308,0.805,-26.794,37.903,-1.160
0.647,-0.303,0.791,-31.128,33.691,-2.075
0.647,-0.306,0.791,-35.767,32.715,-2.991
0.647,-0.287,0.784,-40.527,32.654,-4.028
0.647,-0.286,0.782,-44.983,34.180,-4.395
0.635,-0.280,0.766,-48.889,36.072,-4.822
0.634,-0.279,0.760,-52.124,40.710,-4.700
0.630,-0.270,0.744,-55.115,46.387,-4.028
0.625,-0.264,0.732,-57.495,53.162,-3.235
0.632,-0.259,0.721,-59.509,60.852,-2.075
0.651,-0.258,0.712,-61.462,68.298,-0.427
0.675,-0.269,0.706,-62.744,75.317,1.160
0.714,-0.280,0.704,-63.110,82.214,2.075
0.751,-0.285,0.704,-62.805,87.219,2.075
0.783,-0.273,0.704,-62.134,89.966,2.014
0.802,-0.258,0.695,-62.012,90.454,1.892
0.808,-0.252,0.681,-62.073,89.172,2.136
0.813,-0.244,0.670,-62.927,86.548,2.991
0.812,-0.243,0.651,-65.247,83.130,3.784
0.809,-0.245,0.631,-68.726,80.200,3.845

1.398,-0.170,-1.271,59.387,66.650,-28.748
1.499,-0.208,-1.400,79.285,75.562,-30.762
1.547,-0.206,-1.480,102.661,82.703,-29.968
1.594,-0.188,-1.492,132.996,88.562,-25.269
1.613,-0.114,-1.435,170.959,91.309,-16.296
1.645,-0.114,-1.319,218.140,92.163,-3.235
1.615,-0.171,-1.204,267.273,88.867,10.803
1.509,-0.218,-1.065,315.735,85.327,24.902
1.400,-0.285,-0.943,361.267,82.642,38.330
1.301,-0.403,-0.857,402.466,82.397,50.171
1.163,-0.412,-0.746,437.927,84.106,55.420
1.069,-0.438,-0.785,473.755,86.975,61.157
0.819,-0.858,-0.737,509.460,103.088,56.458
0.765,-0.729,-0.281,526.611,121.765,27.527
1.129,-0.339,-0.479,557.068,118.774,13.855
1.313,-0.635,-0.276,616.882,129.089,26.794
1.148,-1.070,-0.097,652.466,110.779,38.879
1.047,-1.191,-0.129,665.161,59.387,34.363
1.073,-1.096,-0.136,672.607,21.973,31.555
0.934,-1.320,-0.131,678.528,7.202,33.752
0.814,-1.314,0.018,661.255,3.052,18.677
0.614,-1.213,0.095,632.446,1.465,6.775
0.747,-1.147,0.160,595.337,9.583,0.916
0.647,-1.091,0.161,554.749,15.076,-6.958
0.557,-1.062,0.295,514.893,25.085,-17.395
0.606,-0.961,0.435,469.177,33.203,-23.804
0.609,-0.898,0.491,421.143,36.682,-26.672
0.551,-1.004,0.503,371.399,41.321,-28.931
0.507,-1.085,0.726,311.523,60.669,-26.611
0.390,-0.868,0.849,242.187,96.069,-28.564
0.349,-0.857,0.897,182.983,120.728,-33.325
0.680,-0.845,0.960,126.587,159.668,-26.306
1.047,-0.720,0.920,72.571,175.598,-13.977
1.277,-0.546,0.854,26.062,156.250,-0.732
1.327,-0.432,0.786,-8.606,114.868,13.184
1.286,-0.363,0.676,-35.767,68.359,26.367
1.179,-0.326,0.497,-56.580,27.832,35.706
1.079,-0.261,0.341,-70.435,-0.061,39.368
1.016,-0.184,0.213,-78.857,-14.282,36.499
1.009,-0.115,0.110,-82.520,-18.433,29.419
1.054,-0.009,0.023,-82.214,-16.663,19.775
1.155,-0.068,0.032,-78.491,-12.634,6.714
1.174,0.092,-0.011,-75.134,-16.663,-13.977
1.124,0.135,0.000,-65.796,-22.461,-24.841
1.124,0.141,0.005,-56.519,-32.349,-33.752
1.175,0.174,-0.001,-48.096,-45.410,-43.335
1.146,0.209,-0.007,-38.147,-59.814,-49.866
0.973,0.204,-0.043,-27.100,-73.181,-52.368
1.057,0.220,-0.067,-16.296,-79.163,-52.795
1.140,0.278,0.005,-4.456,-78.613,-51.270
0.961,0.141,-0.078,5.615,-81.238,-47.852
0.895,0.226,0.037,12.268,-70.984,-51.147
0.944,0.236,0.035,16.235,-64.575,-45.715
0.974,0.194,0.068,20.813,-54.688,-38.391
1.034,0.205,0.126,23.010,-45.227,-32.837
1.025,0.140,0.126,24.292,-41.809,-25.330
1.028,0.151,0.146,23.560,-40.894,-18.433
1.020,0.111,0.150,20.935,-40.649,-12.268
0.989,0.135,0.138,17.517,-38.696,-8.972
0.970,0.117,0.164,14.832,-32.227,-3.784
0.964,0.107,0.165,11.230,-26.855,-0.549
0.970,0.118,0.181,7.935,-20.752,1.038
0.980,0.118,0.190,4.700,-14.343,2.869
0.991,0.116,0.191,1.953,-10.071,4.761
0.994,0.105,0.188,-0.488,-7.751,6.104
0.991,0.106,0.190,-2.686,-5.981,6.409
0.994,0.102,0.195,-4.333,-5.127,6.897
0.988,0.106,0.197,-5.188,-6.104,7.080
0.981,0.108,0.195,-5.920,-7.629,7.629
0.955,0.104,0.183,-5.676,-9.033,8.179
0.890,0.094,0.161,-4.578,-8.606,7.202
0.884,0.090,0.148,-3.296,-4.150,5.066
0.989,0.109,0.185,-1.709,2.258,2.502
1.033,0.101,0.198,-0.122,2.625,1.343
1.020,0.096,0.191,1.221,-2.319,1.831
1.046,0.094,0.187,2.747,-7.690,2.991
1.027,0.092,0.180,3.418,-12.268,3.601
0.987,0.087,0.181,3.479,-13.672,4.211
0.969,0.089,0.184,3.174,-12.695,4.089
0.954,0.094,0.190,2.808,-9.827,3.967
0.952,0.098,0.201,2.136,-6.165,4.395
0.965,0.099,0.211,1.648,-3.662,5.432
0.962,0.092,0.215,1.587,-2.625,7.141
0.945,0.087,0.216,1.343,-2.380,9.094
0.920,0.076,0.214,0.916,-1.526,10.620
0.907,0.070,0.216,0.000,0.366,12.207
0.899,0.060,0.213,-1.282,2.808,12.878
0.896,0.064,0.219,-2.502,5.432,12.695
0.943,0.069,0.230,-3.601,7.690,12.268
0.948,0.061,0.235,-4.395,6.592,11.597
0.948,0.060,0.233,-4.944,3.113,10.559
0.933,0.059,0.221,-5.493,0.244,9.644
0.927,0.062,0.220,-6.592,-1.221,8.606
0.934,0.059,0.220,-7.324,-1.953,7.324
0.928,0.061,0.206,-8.362,-2.747,5.676
0.930,0.061,0.208,-9.644,-2.380,4.089
0.942,0.069,0.198,-10.559,-2.136,2.502
0.952,0.069,0.192,-11.292,-1.282,1.160
0.965,0.075,0.187,-11.658,-0.732,0.183
0.980,0.081,0.188,-11.353,-0.244,-0.488
0.989,0.093,0.188,-10.803,-0.305,-1.038
0.978,0.098,0.185,-9.460,-0.854,-0.977
0.963,0.092,0.181,-7.812,-1.343,-0.549
0.962,0.097,0.181,-6.775,-1.160,-0.366
0.959,0.096,0.182,-5.432,-0.488,-0.061
0.958,0.096,0.184,-4.272,0.488,0.366
0.961,0.097,0.185,-3.479,1.770,0.427
0.967,0.097,0.190,-2.808,3.174,0.122
0.983,0.086,0.193,-2.686,3.845,-0.366
0.998,0.083,0.198,-3.845,4.150,-1.404
1.001,0.088,0.204,-4.883,3.174,-2.625
1.011,0.097,0.213,-6.348,1.404,-3.052
1.017,0.103,0.219,-7.996,-1.343,-2.808
1.010,0.106,0.215,-9.460,-4.761,-1.587
1.000,0.112,0.208,-10.864,-7.446,-0.427
0.982,0.120,0.204,-12.268,-8.423,0.732
0.964,0.125,0.201,-13.062,-8.240,1.831
0.951,0.126,0.197,-13.611,-6.897,2.380
0.945,0.126,0.197,-13.672,-4.822,2.563

1.392,-0.172,-1.490,73.730,86.792,-35.950
1.405,-0.182,-1.657,96.863,83.069,-34.302
1.484,-0.124,-1.701,123.230,82.214,-29.297
1.657,-0.099,-1.692,155.884,73.425,-16.052
1.751,-0.094,-1.714,196.533,47.485,4.883
1.710,-0.093,-1.688,240.723,11.902,28.076
1.631,-0.136,-1.635,285.706,-23.193,50.232
1.559,-0.176,-1.536,330.078,-55.847,70.801
1.464,-0.209,-1.389,372.314,-84.229,88.379
1.321,-0.277,-1.245,413.452,-107.178,102.905
1.122,-0.393,-1.141,452.087,-124.023,114.563
0.901,-0.508,-1.036,486.450,-130.432,120.300
0.713,-0.576,-0.913,515.747,-125.366,117.310
0.602,-0.618,-0.757,545.105,-115.662,108.643
0.504,-0.677,-0.563,578.186,-105.347,98.877
0.386,-0.767,-0.383,614.075,-94.727,90.027
0.281,-0.912,-0.254,647.400,-82.886,82.275
0.180,-1.113,-0.212,670.898,-68.420,73.059
0.105,-1.311,-0.060,676.941,-48.218,61.584
0.057,-1.360,0.098,665.039,-22.095,48.584
0.056,-1.333,0.200,641.052,3.540,35.706
0.087,-1.262,0.322,607.727,30.884,21.912
0.167,-1.210,0.478,566.101,57.007,7.141
0.273,-1.145,0.588,516.785,73.364,-5.432
0.388,-1.069,0.673,463.684,80.872,-14.587
0.463,-0.973,0.735,408.264,81.055,-19.409
0.501,-0.880,0.774,352.722,74.097,-20.996
0.529,-0.828,0.781,297.791,63.110,-19.287
0.431,-0.783,0.804,244.080,56.030,-14.465
0.401,-0.792,0.861,192.261,69.397,-7.202
0.558,-0.762,0.858,139.465,95.703,4.883
0.737,-0.695,0.829,88.623,119.263,18.066
0.922,-0.620,0.776,44.861,131.226,27.893
1.079,-0.554,0.685,10.010,130.676,34.119
1.211,-0.470,0.603,-15.930,122.864,36.438
1.294,-0.372,0.539,-33.447,111.084,35.461
1.346,-0.280,0.495,-42.297,95.520,31.250
1.368,-0.198,0.453,-44.556,77.820,25.513
1.372,-0.139,0.406,-41.443,59.509,19.165
1.378,-0.070,0.353,-35.217,42.725,12.390
1.376,-0.023,0.312,-26.428,28.564,5.615
1.341,0.013,0.281,-15.808,17.212,0.183
1.279,0.052,0.257,-5.127,8.911,-2.747
1.217,0.077,0.234,4.761,5.615,-3.235
1.173,0.092,0.218,13.245,6.531,-2.197
1.137,0.097,0.207,19.104,10.498,1.160
1.107,0.093,0.202,23.560,15.381,5.920
1.080,0.079,0.193,25.696,18.799,11.414
1.065,0.067,0.198,25.818,20.813,16.296
1.042,0.058,0.210,24.048,20.874,20.203
1.021,0.048,0.219,21.240,19.470,23.010
1.005,0.042,0.226,17.151,17.151,24.780
0.981,0.046,0.225,12.451,14.038,25.635
0.948,0.052,0.221,8.240,11.169,25.452
0.926,0.064,0.217,4.150,8.789,24.597
0.906,0.077,0.207,1.282,6.409,22.827
0.888,0.084,0.196,-1.404,5.005,20.508
0.886,0.096,0.179,-3.479,4.517,18.066
0.897,0.104,0.163,-4.822,4.761,15.747
0.904,0.116,0.148,-5.493,5.127,13.550
0.922,0.120,0.135,-5.310,5.127,11.719
0.944,0.122,0.123,-4.456,4.700,10.010
0.956,0.132,0.114,-3.601,3.540,8.484
0.961,0.136,0.110,-1.831,1.587,7.202
0.967,0.141,0.105,0.549,-0.244,5.920
0.971,0.148,0.098,2.747,-1.160,4.517
0.975,0.152,0.096,4.700,-1.709,3.235
0.970,0.148,0.095,7.019,-2.075,2.502
0.969,0.143,0.096,8.728,-1.770,1.892
0.973,0.133,0.096,10.498,-1.282,1.526
0.984,0.122,0.097,11.658,-0.854,1.099
0.987,0.124,0.105,12.390,0.000,0.793
0.985,0.118,0.113,13.367,0.610,0.916
0.977,0.109,0.110,14.526,1.099,1.160
0.974,0.100,0.120,15.076,2.319,1.526
0.980,0.091,0.130,15.991,4.150,1.892
0.982,0.086,0.140,16.174,5.920,2.014
0.981,0.082,0.148,16.052,6.836,1.892
0.982,0.077,0.155,15.564,7.629,1.526
0.983,0.072,0.163,15.076,7.812,1.099
0.982,0.070,0.169,13.672,7.690,0.854
0.986,0.068,0.170,11.963,6.714,0.366
0.992,0.067,0.173,10.010,5.310,0.061
0.996,0.069,0.173,8.179,3.662,-0.122
1.001,0.067,0.169,6.104,1.892,0.000
1.001,0.073,0.168,4.089,0.305,0.427
0.998,0.079,0.165,2.258,-0.793,1.221
0.987,0.084,0.155,0.793,-1.648,1.526
0.977,0.090,0.151,-0.549,-1.709,2.136
0.969,0.099,0.150,-1.526,-1.038,2.686
0.966,0.104,0.149,-2.075,-0.244,3.113
0.966,0.103,0.148,-2.502,0.610,3.418
0.967,0.102,0.146,-3.540,1.282,3.601
0.969,0.103,0.149,-4.333,1.343,3.357
0.970,0.102,0.153,-5.127,0.732,3.174
0.968,0.103,0.152,-6.042,-0.244,2.930
0.969,0.102,0.153,-6.836,-1.404,2.686
0.971,0.101,0.158,-7.629,-2.625,2.258
0.970,0.099,0.161,-9.033,-4.028,2.075
0.963,0.100,0.161,-9.888,-5.249,2.075
0.953,0.102,0.165,-10.620,-6.165,2.136
0.949,0.102,0.169,-11.047,-6.592,1.953
0.951,0.100,0.177,-11.780,-6.714,1.648
0.958,0.091,0.187,-12.634,-6.836,1.465
0.968,0.086,0.202,-13.733,-7.080,1.160
0.974,0.085,0.223,-16.418,-7.202,0.793
0.983,0.081,0.238,-20.508,-7.324,0.427
0.993,0.072,0.254,-26.306,-7.446,0.122
1.006,0.064,0.265,-33.936,-7.996,-0.122
1.016,0.059,0.266,-43.762,-8.606,0.122
1.022,0.055,0.262,-53.711,-9.521,1.465
1.029,0.064,0.268,-62.561,-10.315,4.333
1.037,0.062,0.269,-69.519,-11.047,7.751
1.038,0.060,0.268,-75.867,-11.353,11.230
1.034,0.066,0.268,-81.299,-10.498,14.404
1.034,0.060,0.274,-86.975,-8.972,16.907
1.038,0.056,0.269,-93.140,-7.690,18.555
1.040,0.055,0.262,-101.074,-5.737,19.165
1.043,0.055,0.269,-111.328,-2.686,18.921

1.011,-0.228,-1.578,242.310,-8.606,5.249
0.988,-0.336,-1.734,272.400,-10.010,2.014
1.006,-0.432,-1.753,305.725,-2.869,-5.310
1.077,-0.551,-1.665,342.468,12.268,-16.296
1.127,-0.649,-1.549,379.761,29.053,-26.428
1.116,-0.742,-1.440,417.542,45.044,-34.302
1.110,-0.823,-1.290,455.261,63.232,-39.734
1.212,-0.913,-1.062,489.929,82.947,-41.748
1.332,-1.022,-0.801,521.057,93.445,-40.405
1.381,-1.099,-0.626,548.035,89.661,-39.063
1.363,-1.191,-0.422,571.411,75.623,-38.269
1.287,-1.262,-0.224,589.539,54.443,-36.499
1.176,-1.339,-0.094,602.356,28.503,-32.349
1.015,-1.450,-0.020,607.117,2.808,-28.076
0.899,-1.535,0.148,598.816,-15.320,-25.696
0.770,-1.512,0.345,575.989,-28.015,-21.179
0.588,-1.478,0.404,543.884,-34.729,-15.991
0.406,-1.477,0.484,505.432,-27.161,-16.418
0.341,-1.442,0.606,459.839,-8.789,-21.545
0.373,-1.377,0.695,408.569,11.780,-27.954
0.477,-1.317,0.770,356.018,29.724,-33.508
0.610,-1.271,0.892,304.138,40.039,-38.025
0.720,-1.212,0.967,252.686,38.025,-41.382
0.899,-1.441,1.234,201.965,28.320,-43.335
1.345,-1.486,1.715,143.616,1.282,-42.297
1.339,-0.975,1.626,72.327,-53.406,-34.180
0.933,-0.828,1.245,5.432,-85.632,-17.639
0.595,-0.740,0.856,-36.865,-64.209,-11.475
0.648,-0.584,0.542,-56.213,-25.391,-11.414
0.912,-0.484,0.408,-54.871,18.250,-12.024
1.138,-0.382,0.343,-45.471,46.143,-12.024
1.247,-0.295,0.281,-33.813,49.744,-8.728
1.285,-0.267,0.200,-24.109,35.461,-5.066
1.288,-0.217,0.142,-19.470,15.259,-5.127
1.259,-0.171,0.087,-19.775,-4.883,-6.958
1.219,-0.116,0.016,-23.132,-24.231,-8.911
1.137,-0.072,-0.056,-28.137,-40.161,-10.254
1.062,-0.041,-0.121,-33.875,-49.438,-11.047
1.006,-0.005,-0.169,-40.527,-51.025,-11.353
0.974,0.029,-0.206,-47.119,-47.302,-10.925
0.950,0.059,-0.218,-51.880,-40.405,-9.705
0.941,0.080,-0.223,-54.443,-32.837,-7.690
0.940,0.089,-0.237,-55.176,-25.330,-5.066
0.944,0.095,-0.237,-53.345,-16.235,-2.930
0.946,0.103,-0.224,-48.462,-7.324,-0.122
0.950,0.105,-0.193,-41.870,1.038,3.357
0.956,0.112,-0.163,-33.264,7.935,6.409
0.957,0.115,-0.149,-23.804,11.902,8.484
0.953,0.102,-0.146,-14.343,14.709,9.338
0.957,0.076,-0.139,-5.554,17.151,9.399
0.964,0.058,-0.109,2.136,18.677,8.240
0.973,0.042,-0.074,7.385,18.799,6.470
0.991,0.028,-0.053,10.254,16.846,4.272
0.999,0.025,-0.030,11.108,13.794,2.075
0.993,0.020,-0.008,11.230,9.521,-0.305
0.990,0.012,0.007,10.498,5.005,-2.563
0.989,0.005,0.013,9.399,0.916,-4.456
0.988,0.005,0.028,8.484,-1.282,-5.676
0.988,0.006,0.040,8.179,-2.563,-6.348
0.990,-0.000,0.043,7.751,-2.625,-6.531
0.996,-0.004,0.048,7.080,-1.526,-6.287
1.000,-0.008,0.052,6.653,-0.305,-5.859
1.007,-0.013,0.058,6.287,1.160,-4.639
1.016,-0.017,0.064,5.493,2.563,-3.479
1.015,-0.021,0.072,4.578,3.967,-2.991
1.009,-0.025,0.079,3.357,5.127,-2.197
1.009,-0.028,0.084,2.563,5.737,-1.526
1.005,-0.034,0.086,1.770,5.371,-0.977
0.998,-0.035,0.090,0.610,4.517,-0.732
0.991,-0.038,0.093,-0.427,3.723,-0.549
0.990,-0.041,0.094,-1.709,2.502,-0.916
0.993,-0.045,0.089,-3.296,1.282,-1.343
0.996,-0.045,0.086,-5.493,0.427,-1.953
0.996,-0.046,0.078,-7.080,0.000,-2.075
1.001,-0.043,0.073,-8.911,-0.122,-1.465
1.007,-0.039,0.068,-10.864,0.427,-0.671
1.007,-0.031,0.064,-12.512,0.916,0.610
1.000,-0.025,0.061,-14.038,1.221,2.258
0.989,-0.019,0.056,-15.625,1.343,3.906
0.977,-0.017,0.049,-16.846,1.953,4.944
0.968,-0.011,0.043,-18.494,3.296,5.432
0.963,-0.005,0.035,-19.287,4.700,5.554
0.966,0.003,0.031,-19.592,5.920,5.615
0.973,0.011,0.029,-19.714,6.592,5.127
0.980,0.015,0.025,-19.653,6.836,4.517
0.989,0.017,0.025,-19.226,6.348,3.540
1.000,0.022,0.033,-18.982,5.798,2.869
1.001,0.020,0.028,-18.616,4.822,2.258
1.010,0.018,0.030,-18.372,3.906,1.526
1.025,0.020,0.029,-18.311,3.052,1.099
1.034,0.023,0.035,-17.578,1.221,1.709
1.031,0.027,0.045,-16.113,-0.305,2.319
1.028,0.025,0.047,-15.259,-0.793,2.747
1.026,0.022,0.042,-15.137,-0.854,3.174
1.023,0.022,0.043,-15.137,-0.183,3.296
1.017,0.023,0.046,-14.893,0.671,3.479
1.014,0.022,0.045,-14.832,1.465,3.601
1.017,0.021,0.042,-14.893,2.075,3.540
1.026,0.016,0.039,-15.259,2.625,3.357
1.032,0.017,0.031,-15.442,2.014,3.174
1.034,0.022,0.028,-15.259,1.099,2.869
1.032,0.028,0.025,-14.832,-0.305,2.502
1.024,0.029,0.019,-13.916,-1.831,2.319
1.014,0.028,0.017,-12.878,-3.540,2.075
1.003,0.026,0.014,-12.207,-4.883,1.526
0.995,0.022,0.015,-11.414,-5.981,0.793
0.989,0.019,0.013,-10.437,-7.324,0.000
0.982,0.013,0.008,-10.071,-8.667,-0.977
0.976,0.014,0.007,-9.460,-9.949,-1.892
0.971,0.014,0.009,-9.094,-10.559,-2.197
0.968,0.009,0.008,-8.911,-10.315,-2.441
0.975,0.002,0.011,-8.850,-9.644,-2.258
0.987,-0.004,0.017,-9.216,-8.972,-1.953
0.999,-0.009,0.025,-9.766,-8.179,-1.770
1.001,-0.015,0.033,-10.864,-8.301,-1.404
1.008,-0.020,0.047,-12.451,-8.667,-0.854
1.010,-0.029,0.053,-14.221,-8.972,-0.671
1.004,-0.038,0.074,-16.052,-9.583,-0.305
1.003,-0.021,0.072,-18.799,-9.949,-0.183

1.345,-0.284,-1.380,60.120,5.066,-3.906
1.392,-0.328,-1.547,82.397,4.883,-5.432
1.410,-0.312,-1.655,111.938,5.676,-6.836
1.395,-0.291,-1.688,149.109,6.897,-5.859
1.403,-0.319,-1.792,194.031,4.883,-1.038
1.391,-0.357,-1.851,244.568,1.831,6.531
1.353,-0.389,-1.820,297.852,2.075,14.343
1.306,-0.463,-1.778,354.919,5.249,20.935
1.239,-0.537,-1.733,412.781,12.390,24.658
1.175,-0.604,-1.683,471.191,24.109,24.658
1.149,-0.734,-1.609,528.748,37.598,24.353
1.159,-0.946,-1.465,583.618,50.110,24.658
1.202,-1.163,-1.276,628.479,57.922,22.644
1.256,-1.407,-1.063,659.912,56.702,19.531
1.277,-1.604,-0.876,675.903,44.556,15.137
1.253,-1.715,-0.670,678.223,26.611,8.240
1.150,-1.805,-0.528,670.105,5.554,3.174
1.016,-1.878,-0.366,651.978,-15.198,0.427
0.924,-1.818,-0.135,620.361,-28.809,-1.465
0.780,-1.671,0.035,583.313,-35.278,-1.282
0.609,-1.571,0.131,547.607,-32.776,-0.183
0.496,-1.512,0.208,510.681,-20.081,-0.488
0.463,-1.455,0.275,472.168,-1.282,-1.160
0.497,-1.403,0.327,434.326,18.738,-2.441
0.559,-1.355,0.389,399.658,35.767,-3.113
0.606,-1.275,0.449,368.469,47.485,-3.723
0.645,-1.187,0.495,338.440,54.749,-5.554
0.694,-1.094,0.525,307.983,59.143,-7.385
0.721,-0.987,0.546,277.832,60.486,-8.484
0.741,-0.893,0.557,249.451,58.533,-8.484
0.776,-0.811,0.556,221.375,54.504,-8.118
0.791,-0.719,0.537,193.481,49.622,-8.972
0.806,-0.653,0.513,166.931,44.739,-10.071
0.840,-0.590,0.464,142.334,39.795,-11.719
0.872,-0.518,0.424,120.239,36.011,-13.245
0.918,-0.435,0.386,101.318,33.813,-14.648
0.956,-0.374,0.353,85.938,31.555,-15.137
0.922,-0.311,0.373,73.669,31.006,-14.282
0.953,-0.356,0.302,62.622,34.668,-13.855
1.059,-0.282,0.516,49.988,46.631,-17.517
1.302,-0.305,0.682,39.551,40.955,-14.648
1.415,-0.345,0.688,27.466,13.184,-7.751
1.281,-0.320,0.545,12.390,-12.756,-3.052
1.108,-0.260,0.431,-1.770,-19.836,2.686
1.027,-0.189,0.321,-11.047,-14.099,7.751
1.027,-0.100,0.239,-16.296,-3.052,8.850
1.041,-0.045,0.167,-18.677,6.042,8.301
1.059,0.011,0.084,-18.738,7.874,7.019
1.058,0.054,0.002,-16.418,4.517,6.348
1.039,0.086,-0.063,-12.878,-0.183,5.920
1.031,0.122,-0.086,-9.033,-3.845,5.310
1.025,0.151,-0.110,-5.188,-7.080,4.944
1.004,0.163,-0.137,-0.916,-10.071,4.944
0.993,0.162,-0.150,3.052,-11.597,4.761
0.988,0.171,-0.154,5.676,-11.902,3.601
0.974,0.176,-0.151,6.897,-11.047,3.052
0.958,0.170,-0.148,7.019,-9.949,3.174
0.953,0.160,-0.139,6.592,-8.850,3.235
0.952,0.150,-0.125,5.981,-7.507,3.174
0.945,0.138,-0.109,5.127,-6.714,3.235
0.945,0.122,-0.095,4.517,-6.714,3.296
0.940,0.114,-0.086,4.150,-7.019,2.808
0.929,0.101,-0.085,4.883,-6.836,2.747
0.922,0.091,-0.082,6.409,-5.066,2.869
0.923,0.090,-0.065,8.545,-1.709,3.052
0.929,0.083,-0.058,11.230,2.502,3.235
0.948,0.070,-0.053,13.550,6.470,3.723
0.981,0.061,-0.058,15.381,9.399,4.272
1.003,0.058,-0.055,15.991,10.803,4.944
1.024,0.055,-0.045,16.113,10.803,5.005
1.036,0.041,-0.034,16.052,8.606,4.517
1.040,0.028,-0.016,15.442,5.310,3.174
1.037,0.017,0.004,14.404,1.160,1.099
1.027,0.008,0.029,13.000,-2.747,-1.404
1.019,-0.000,0.041,10.681,-5.798,-3.235
1.015,0.000,0.036,7.690,-7.996,-4.333
1.003,0.013,0.037,5.310,-8.545,-4.150
0.997,0.021,0.034,3.601,-7.629,-3.174
0.995,0.019,0.025,2.319,-5.737,-2.014
0.995,0.025,0.017,1.709,-3.418,-0.916
0.995,0.032,0.012,1.221,-1.709,-0.183
0.994,0.041,0.008,1.282,-1.160,-0.122
0.989,0.048,0.004,1.831,-1.465,-0.305
0.983,0.051,0.001,1.709,-1.648,-0.610
0.986,0.055,0.001,1.099,-1.953,-1.343
1.000,0.057,0.001,0.305,-2.197,-2.136
1.010,0.060,-0.006,-1.648,-2.563,-2.991
1.018,0.067,-0.016,-3.418,-3.967,-3.296
1.023,0.078,-0.020,-4.578,-5.676,-3.479
1.021,0.088,-0.025,-5.127,-7.263,-3.723
1.008,0.094,-0.030,-5.066,-8.850,-3.906
1.000,0.099,-0.039,-4.517,-9.460,-3.906
0.996,0.102,-0.040,-4.517,-8.789,-3.662
0.994,0.101,-0.039,-3.967,-7.507,-3.418
0.994,0.099,-0.032,-3.479,-6.042,-3.052
0.987,0.093,-0.023,-3.174,-5.249,-2.380
0.978,0.083,-0.020,-3.357,-4.883,-1.892
0.974,0.075,-0.012,-3.906,-4.822,-1.709
0.974,0.071,-0.015,-4.822,-4.761,-1.709
0.978,0.067,-0.022,-5.310,-5.005,-2.014
0.981,0.070,-0.022,-5.432,-5.249,-2.136
0.985,0.067,-0.026,-5.249,-5.310,-2.380
0.985,0.067,-0.026,-4.517,-5.249,-2.258
0.984,0.066,-0.017,-3.906,-4.517,-1.892
0.981,0.060,-0.009,-3.540,-3.540,-1.221
0.990,0.052,-0.002,-3.601,-2.502,-0.854
1.000,0.044,-0.002,-4.822,-2.380,-0.305
0.998,0.043,-0.002,-6.104,-3.113,0.305
0.988,0.040,0.001,-7.019,-4.028,0.793
0.985,0.034,0.000,-7.996,-4.517,1.099
0.986,0.033,0.000,-9.155,-4.883,0.977
0.986,0.032,0.003,-9.949,-4.761,0.732
0.994,0.030,0.006,-10.620,-4.639,0.671
1.000,0.032,0.007,-11.597,-4.883,0.305
1.001,0.033,0.013,-12.207,-5.005,0.061
1.003,0.036,0.018,-13.184,-5.371,0.122
1.001,0.037,0.023,-14.282,-5.676,0.305
1.000,0.036,0.033,-14.954,-6.226,0.305
1.001,0.032,0.043,-15.808,-7.019,0.122

0.599,-0.317,-1.989,38.696,270.142,-47.729
0.563,-0.390,-2.162,70.190,307.678,-71.350
0.681,-0.551,-2.216,106.689,338.501,-101.501
0.949,-0.720,-2.251,144.531,346.130,-127.808
1.085,-0.863,-2.233,181.091,318.909,-148.193
1.085,-0.922,-2.167,213.928,265.747,-165.283
1.080,-0.937,-2.032,245.056,208.923,-178.711
1.005,-0.975,-1.910,278.015,158.752,-189.148
0.829,-1.008,-1.783,311.279,123.596,-199.707
0.687,-1.074,-1.685,342.346,113.708,-209.045
0.664,-1.118,-1.549,368.958,127.808,-219.360
0.720,-1.109,-1.345,391.479,157.471,-230.957
0.796,-1.149,-1.143,410.767,191.284,-242.187
0.907,-1.198,-0.966,424.011,219.299,-250.977
1.108,-1.182,-0.744,429.810,237.793,-257.874
1.277,-1.148,-0.526,431.824,244.873,-263.794
1.329,-1.111,-0.419,431.885,241.211,-267.517
1.414,-1.135,-0.292,426.086,232.910,-262.573
1.471,-1.152,-0.136,410.400,216.919,-247.253
1.442,-1.094,-0.008,385.803,192.871,-227.417
1.401,-1.011,0.071,354.980,164.185,-206.726
1.394,-0.915,0.112,321.045,134.094,-187.439
1.390,-0.818,0.190,290.039,102.844,-173.706
1.492,-0.669,0.294,269.958,69.824,-170.288
1.810,-0.568,0.443,267.639,31.677,-177.734
2.179,-0.676,0.422,280.518,-14.771,-195.984
2.150,-0.670,0.279,290.344,-59.509,-219.971
1.837,-0.597,0.160,286.377,-92.590,-228.516
1.658,-0.516,0.092,272.095,-112.976,-214.966
1.536,-0.481,0.054,254.089,-125.793,-186.462
1.416,-0.438,0.002,229.187,-139.648,-155.334
1.292,-0.380,-0.021,194.275,-148.743,-123.047
1.157,-0.338,0.008,154.907,-143.005,-92.834
1.006,-0.289,-0.010,115.356,-130.676,-68.481
0.849,-0.141,-0.097,78.979,-114.929,-49.622
0.698,-0.057,-0.170,52.917,-88.196,-31.799
0.570,0.015,-0.274,33.203,-54.504,-16.724
0.489,0.082,-0.385,20.447,-16.479,-5.371
0.475,0.116,-0.439,12.939,24.353,2.869
0.534,0.155,-0.463,6.836,61.035,7.507
0.619,0.201,-0.483,1.465,85.815,10.376
0.675,0.248,-0.508,-3.357,96.130,12.817
0.724,0.273,-0.521,-7.202,94.788,14.832
0.753,0.296,-0.521,-9.338,84.778,16.113
0.741,0.298,-0.546,-11.719,68.420,16.235
0.703,0.313,-0.593,-14.465,50.720,14.771
0.659,0.336,-0.626,-16.968,36.072,13.123
0.617,0.341,-0.644,-17.639,25.940,11.475
0.576,0.345,-0.662,-17.639,19.531,8.667
0.550,0.353,-0.674,-16.235,18.372,5.371
0.549,0.360,-0.669,-13.489,21.179,2.258
0.549,0.359,-0.670,-9.644,25.818,-1.465
0.553,0.352,-0.682,-5.676,32.349,-4.517
0.583,0.340,-0.666,-2.197,40.405,-7.324
0.637,0.329,-0.638,1.038,47.241,-9.888
0.708,0.312,-0.614,3.845,50.415,-11.597
0.787,0.291,-0.591,5.432,49.194,-12.695
0.861,0.263,-0.572,6.348,42.969,-13.977
0.923,0.246,-0.562,5.066,32.715,-15.259
0.953,0.238,-0.569,2.930,20.081,-16.296
0.955,0.232,-0.579,0.732,6.470,-16.479
0.940,0.237,-0.600,-1.526,-5.310,-15.991
0.891,0.249,-0.628,-3.906,-13.184,-14.587
0.854,0.258,-0.633,-4.822,-14.099,-11.353
0.822,0.257,-0.620,-6.042,-9.949,-7.141
0.813,0.259,-0.608,-7.874,-3.967,-3.174
0.811,0.257,-0.606,-9.705,1.587,0.427
0.800,0.240,-0.611,-11.047,5.676,3.967
0.790,0.234,-0.611,-12.329,7.874,6.775
0.783,0.226,-0.606,-13.000,7.996,8.545
0.773,0.212,-0.612,-14.099,5.554,9.338
0.763,0.211,-0.621,-15.808,1.770,8.972
0.756,0.212,-0.626,-16.968,-2.502,7.935
0.750,0.208,-0.638,-17.944,-7.263,6.531
0.737,0.210,-0.647,-19.714,-11.597,4.944
0.736,0.217,-0.652,-20.874,-15.137,3.662
0.732,0.225,-0.656,-21.240,-17.456,2.686
0.735,0.225,-0.651,-20.752,-17.700,2.258
0.740,0.225,-0.653,-19.470,-16.418,2.380
0.759,0.219,-0.644,-18.005,-13.794,3.418
0.790,0.208,-0.620,-16.785,-11.108,5.066
0.818,0.198,-0.596,-16.541,-9.155,6.958
0.841,0.190,-0.575,-17.517,-8.911,8.728
0.868,0.175,-0.551,-18.494,-10.742,10.803
0.894,0.155,-0.526,-20.264,-14.832,12.329
0.920,0.137,-0.503,-23.315,-20.386,13.733
0.939,0.121,-0.490,-27.649,-28.625,14.404
0.946,0.110,-0.485,-32.593,-38.269,14.954
0.936,0.103,-0.493,-37.842,-47.607,15.381
0.917,0.097,-0.496,-42.847,-53.528,16.357
0.908,0.090,-0.489,-47.058,-56.335,18.066
0.914,0.083,-0.487,-51.941,-56.824,20.569
0.915,0.080,-0.492,-56.641,-57.190,24.048
0.927,0.066,-0.476,-60.181,-57.434,28.076
0.953,0.051,-0.454,-63.354,-58.105,32.349
0.971,0.042,-0.443,-67.627,-59.631,36.499
0.988,0.027,-0.429,-72.021,-62.195,39.978
1.013,0.009,-0.441,-77.332,-65.063,43.091
1.056,-0.016,-0.431,-82.642,-68.726,46.265
1.095,-0.041,-0.414,-89.172,-75.439,49.133
1.109,-0.032,-0.436,-95.947,-86.731,52.002
1.070,-0.017,-0.454,-99.609,-98.145,54.993
1.031,-0.020,-0.450,-100.647,-103.516,58.533
1.002,-0.019,-0.437,-102.051,-104.004,61.401
0.988,-0.013,-0.422,-104.370,-100.159,63.354
0.994,-0.019,-0.404,-107.849,-94.482,65.002
1.026,-0.033,-0.381,-112.732,-88.745,66.528
1.075,-0.042,-0.361,-118.286,-86.182,67.627
1.116,-0.050,-0.360,-124.390,-88.867,68.420
1.150,-0.060,-0.349,-131.104,-95.703,69.214
1.153,-0.060,-0.352,-137.878,-105.652,69.702
1.114,-0.057,-0.363,-144.409,-117.004,69.397
1.064,-0.053,-0.361,-150.757,-125.305,68.237
1.021,-0.038,-0.362,-156.799,-130.188,65.979
0.996,-0.027,-0.366,-162.231,-131.958,63.232
0.987,-0.026,-0.362,-167.358,-130.554,61.035
1.003,-0.014,-0.349,-171.936,-129.150,58.960
1.036,0.004,-0.327,-173.828,-130.676,56.824
1.067,0.011,-0.312,-173.340,-136.353,55.298

1.981,-0.465,-0.227,135.193,-210.510,133.240
1.958,-0.433,-0.191,136.902,-209.717,151.733
1.901,-0.449,-0.162,144.897,-204.346,174.927
1.897,-0.448,-0.066,157.776,-192.017,202.576
1.875,-0.478,0.052,172.363,-180.786,234.985
1.818,-0.579,0.123,188.171,-175.476,265.442
1.722,-0.674,0.184,201.538,-171.875,291.016
1.590,-0.746,0.247,213.562,-168.701,314.148
1.458,-0.813,0.320,224.976,-168.884,337.646
1.309,-0.873,0.357,237.915,-173.340,360.657
1.047,-0.854,0.409,252.502,-179.443,383.179
0.749,-0.821,0.497,275.208,-183.350,408.813
0.489,-0.935,0.527,303.772,-187.927,433.838
0.241,-1.208,0.545,326.782,-189.697,451.843
-0.113,-1.506,0.749,329.529,-182.373,462.402
-0.441,-1.624,0.874,305.725,-169.922,466.003
-0.633,-1.556,0.795,261.414,-160.706,461.975
-0.880,-1.438,0.743,210.205,-138.428,446.289
-1.135,-1.249,0.715,155.762,-91.797,415.527
-1.208,-1.005,0.652,104.065,-29.907,375.549
-1.054,-0.803,0.639,62.073,29.663,334.961
-0.816,-0.743,0.715,35.034,77.209,297.546
-0.780,-0.727,0.828,18.188,105.164,259.949
-0.914,-0.571,1.043,9.155,115.540,223.633
-0.968,-0.521,1.214,10.986,113.708,188.965
-0.928,-0.475,1.299,18.433,98.206,162.781
-0.908,-0.398,1.406,23.499,86.243,135.254
-0.872,-0.379,1.365,25.391,79.224,104.736
-0.656,-0.387,1.311,22.766,66.650,79.651
-0.397,-0.335,1.259,22.461,51.758,59.509
-0.157,-0.265,1.220,22.827,33.997,36.926
0.020,-0.212,1.194,18.921,16.663,15.869
0.150,-0.159,1.167,11.108,2.686,2.075
0.227,-0.113,1.114,2.197,-7.690,-5.554
0.293,-0.039,1.055,-6.775,-14.954,-12.756
0.357,0.042,1.003,-12.085,-18.860,-17.334
0.416,0.092,0.984,-11.963,-18.799,-18.799
0.479,0.128,0.975,-8.789,-17.151,-19.775
0.546,0.153,0.967,-4.517,-16.846,-20.752
0.589,0.160,0.938,-0.122,-16.907,-21.484
0.612,0.167,0.898,2.014,-15.808,-21.423
0.641,0.166,0.872,0.610,-12.085,-19.958
0.645,0.171,0.845,-3.662,-6.470,-15.747
0.621,0.182,0.809,-9.521,-1.526,-11.353
0.597,0.193,0.775,-15.320,2.991,-7.202
0.566,0.209,0.750,-19.592,7.874,-2.747
0.521,0.233,0.736,-20.996,12.939,2.258
0.489,0.249,0.741,-18.372,18.005,7.446
0.458,0.251,0.747,-13.000,22.034,12.268
0.405,0.241,0.754,-6.836,24.231,15.564
0.355,0.223,0.765,-0.977,24.963,16.663
0.318,0.212,0.779,3.906,25.330,16.418
0.277,0.207,0.792,7.507,25.330,14.893
0.247,0.199,0.809,9.644,24.963,12.451
0.237,0.188,0.818,10.498,24.597,9.216
0.237,0.178,0.821,10.071,24.658,5.310
0.240,0.158,0.839,8.911,24.780,1.709
0.268,0.151,0.870,6.348,24.048,-1.038
0.292,0.148,0.888,3.296,20.752,-2.808
0.312,0.144,0.907,0.977,16.235,-4.089
0.323,0.147,0.914,-0.916,12.207,-6.104
0.317,0.153,0.912,-2.747,9.949,-7.629
0.339,0.155,0.922,-3.845,9.888,-8.789
0.365,0.156,0.930,-4.395,11.475,-9.399
0.371,0.158,0.932,-4.822,13.855,-9.705
0.392,0.155,0.934,-5.249,16.663,-9.888
0.426,0.161,0.938,-5.737,18.372,-10.437
0.450,0.167,0.937,-6.775,18.250,-11.230
0.461,0.168,0.933,-8.301,15.991,-12.268
0.467,0.170,0.930,-9.766,12.695,-13.672
0.483,0.171,0.928,-11.719,8.545,-15.503
0.493,0.175,0.920,-13.550,3.601,-17.578
0.491,0.175,0.915,-15.747,-1.404,-19.836
0.486,0.179,0.907,-17.822,-5.859,-21.851
0.468,0.184,0.891,-18.677,-8.728,-23.987
0.449,0.187,0.882,-18.982,-9.827,-25.391
0.444,0.184,0.877,-18.982,-9.644,-26.306
0.442,0.169,0.874,-18.250,-8.972,-26.855
0.437,0.151,0.870,-17.029,-7.629,-27.100
0.436,0.128,0.871,-15.198,-6.714,-27.161
0.415,0.105,0.877,-12.939,-6.653,-27.100
0.396,0.081,0.885,-11.292,-7.446,-27.527
0.370,0.056,0.892,-10.010,-8.423,-28.625
0.330,0.038,0.894,-10.010,-9.277,-30.273
0.300,0.016,0.896,-10.742,-9.827,-32.837
0.272,-0.006,0.898,-12.390,-9.399,-36.194
0.241,-0.023,0.902,-15.381,-7.751,-39.856
0.216,-0.037,0.904,-19.348,-5.310,-43.640
0.200,-0.054,0.905,-23.682,-1.709,-47.913
0.187,-0.071,0.906,-27.832,2.808,-52.307
0.172,-0.077,0.902,-32.715,8.057,-56.641
0.156,-0.079,0.897,-37.109,14.954,-60.852
0.152,-0.084,0.894,-41.260,22.644,-65.002
0.145,-0.091,0.887,-45.166,31.311,-69.153
0.154,-0.100,0.882,-49.194,40.894,-73.547
0.178,-0.107,0.873,-53.162,49.683,-78.796
0.204,-0.113,0.864,-58.167,57.068,-84.229
0.221,-0.111,0.845,-62.683,62.073,-89.722
0.239,-0.115,0.826,-67.139,65.918,-95.520
0.264,-0.119,0.810,-70.984,69.275,-101.318
0.291,-0.122,0.799,-74.524,72.021,-107.117
0.318,-0.124,0.790,-77.637,73.425,-112.488
0.341,-0.124,0.785,-80.994,73.181,-116.760
0.336,-0.117,0.758,-85.144,71.167,-119.324
0.318,-0.124,0.721,-90.149,68.848,-120.361
0.287,-0.132,0.678,-96.008,67.200,-119.751
0.247,-0.140,0.631,-103.149,65.979,-118.225
0.219,-0.152,0.579,-110.718,66.040,-116.455
0.185,-0.152,0.536,-119.080,68.787,-115.479
0.153,-0.162,0.498,-128.235,75.012,-116.577
0.161,-0.177,0.463,-136.719,84.900,-120.300
0.260,-0.187,0.455,-144.165,95.886,-126.282
0.386,-0.192,0.453,-149.597,103.943,-135.132
0.458,-0.186,0.441,-152.710,108.276,-146.606
0.513,-0.186,0.417,-154.236,109.375,-157.166
0.612,-0.211,0.391,-154.785,108.215,-166.809
0.729,-0.227,0.383,-156.738,106.323,-175.049
0.813,-0.208,0.389,-160.950,102.112,-181.641
0.910,-0.193,0.397,-165.283,94.666,-187.073

2.695,-0.139,-0.004,72.815,-148.804,151.062
2.925,-0.168,-0.004,89.417,-143.982,188.843
3.156,-0.210,0.068,113.403,-136.475,233.643
3.283,-0.296,0.153,142.822,-133.484,278.259
3.280,-0.419,0.230,170.715,-138.611,320.251
3.142,-0.535,0.262,192.139,-150.452,361.389
2.850,-0.691,0.253,210.144,-163.818,398.926
2.542,-0.848,0.287,225.464,-175.049,431.213
2.226,-1.018,0.349,238.708,-185.547,456.116
1.819,-1.188,0.395,248.169,-197.021,474.731
1.437,-1.336,0.462,251.831,-209.595,488.708
1.103,-1.487,0.514,252.319,-219.910,497.925
0.701,-1.656,0.520,248.718,-226.196,502.441
0.301,-1.845,0.604,235.107,-227.966,499.634
-0.050,-1.940,0.592,205.200,-224.976,488.586
-0.422,-1.933,0.514,161.987,-214.661,467.896
-0.755,-1.836,0.429,113.892,-190.857,439.026
-0.976,-1.697,0.347,67.566,-156.250,409.790
-1.089,-1.495,0.306,28.809,-115.967,379.639
-1.187,-1.272,0.253,1.038,-73.181,348.022
-1.192,-1.066,0.211,-13.428,-32.288,315.735
-1.076,-0.884,0.233,-17.700,2.014,286.743
-0.888,-0.745,0.302,-15.076,25.574,264.099
-0.752,-0.663,0.420,-6.714,29.724,248.230
-0.850,-0.585,0.493,6.836,8.423,235.840
-1.129,-0.505,0.492,25.513,-31.555,222.107
-1.341,-0.494,0.630,38.208,-56.763,199.707
-1.486,-0.539,0.604,42.114,-60.852,168.030
-1.440,-0.474,0.590,36.194,-54.932,132.446
-1.291,-0.381,0.623,31.616,-44.067,95.581
-1.060,-0.306,0.660,31.982,-32.104,62.256
-0.784,-0.229,0.729,34.058,-19.592,38.818
-0.483,-0.152,0.813,33.813,-11.108,24.292
-0.190,-0.093,0.873,31.860,-8.301,15.564
0.032,-0.053,0.908,29.480,-10.742,11.047
0.142,-0.010,0.932,24.292,-18.250,8.545
0.212,0.057,0.954,17.212,-24.597,5.310
0.293,0.148,0.993,12.085,-25.696,0.366
0.375,0.209,1.042,11.169,-22.522,-5.005
0.415,0.240,1.069,12.695,-17.944,-8.789
0.446,0.260,1.104,14.038,-11.475,-9.460
0.457,0.262,1.102,15.137,-5.798,-7.568
0.458,0.239,1.051,13.245,-1.953,-4.211
0.448,0.212,0.986,8.606,1.404,-0.793
0.408,0.191,0.933,2.502,4.089,3.357
0.346,0.178,0.888,-4.028,5.615,6.409
0.286,0.168,0.867,-10.010,7.690,8.057
0.220,0.170,0.861,-14.587,11.414,10.132
0.158,0.168,0.868,-16.846,16.052,12.878
0.104,0.160,0.890,-16.724,19.653,15.137
0.037,0.139,0.914,-14.832,21.606,16.418
-0.044,0.122,0.945,-11.475,22.034,15.869
-0.124,0.102,0.978,-7.935,22.095,13.184
-0.186,0.074,1.014,-5.005,21.973,8.118
-0.237,0.047,1.044,-3.601,21.545,1.526
-0.277,0.029,1.046,-4.028,19.836,-6.348
-0.295,0.005,1.040,-5.737,18.005,-16.113
-0.274,-0.020,1.037,-8.911,16.663,-26.978
-0.240,-0.044,1.036,-13.428,14.343,-37.476
-0.216,-0.056,1.025,-19.226,10.376,-47.180
-0.160,-0.052,1.028,-25.940,7.202,-54.810
-0.127,-0.031,1.014,-32.349,4.211,-60.120
-0.114,-0.006,0.996,-37.537,1.953,-63.782
-0.093,0.011,0.983,-39.978,1.526,-67.017
-0.070,0.034,0.976,-40.161,3.296,-69.336
-0.057,0.047,0.974,-38.208,6.958,-71.655
-0.061,0.050,0.966,-35.645,11.353,-74.646
-0.080,0.043,0.949,-33.691,16.724,-78.613
-0.101,0.027,0.932,-32.349,23.743,-83.679
-0.110,0.015,0.918,-32.349,32.166,-90.027
-0.113,0.015,0.901,-32.776,40.283,-98.267
-0.097,0.015,0.889,-32.532,48.035,-108.032
-0.078,0.010,0.876,-31.616,54.504,-118.958
-0.073,-0.002,0.857,-31.311,59.021,-130.798
-0.066,-0.020,0.837,-32.532,63.599,-143.494
-0.065,-0.039,0.810,-35.400,69.458,-156.250
-0.065,-0.070,0.783,-40.283,76.416,-168.030
-0.060,-0.096,0.748,-47.974,86.670,-178.101
-0.065,-0.108,0.711,-57.556,100.342,-186.218
-0.071,-0.118,0.663,-67.444,116.516,-193.298
-0.057,-0.129,0.610,-76.660,134.888,-200.073
0.039,-0.137,0.587,-83.496,156.860,-206.604
0.148,-0.153,0.540,-87.769,180.847,-213.135
0.188,-0.176,0.469,-92.712,205.261,-218.323
0.254,-0.207,0.414,-99.121,233.459,-220.642
0.349,-0.215,0.368,-107.910,263.611,-217.651
0.453,-0.205,0.338,-116.516,290.405,-212.036
0.590,-0.190,0.329,-124.451,311.646,-206.116
0.738,-0.171,0.317,-131.653,324.707,-200.073
0.871,-0.159,0.329,-138.733,329.468,-193.237
0.986,-0.142,0.335,-145.508,325.928,-184.570
1.113,-0.131,0.358,-151.001,314.636,-174.011
1.229,-0.119,0.397,-155.212,294.006,-163.269
1.278,-0.108,0.414,-159.180,265.320,-150.452
1.319,-0.125,0.417,-164.307,231.445,-135.498
1.370,-0.149,0.419,-171.265,194.275,-121.460
1.368,-0.147,0.402,-178.894,155.334,-108.521
1.342,-0.136,0.370,-186.951,116.089,-96.191
1.323,-0.131,0.333,-193.542,79.773,-87.402
1.254,-0.119,0.272,-198.425,49.500,-84.290
1.145,-0.100,0.195,-201.721,29.297,-85.999
1.034,-0.075,0.124,-202.942,21.729,-90.637
0.949,-0.051,0.057,-201.782,25.635,-97.778
0.885,-0.044,0.004,-199.341,41.077,-104.919
0.838,-0.037,-0.029,-197.083,65.552,-109.131
0.833,-0.016,-0.048,-194.458,92.285,-110.107
0.877,-0.012,-0.057,-190.979,116.150,-107.910
0.993,-0.035,-0.052,-187.988,132.568,-103.088
1.091,-0.041,-0.029,-186.096,137.451,-97.351
1.137,-0.034,-0.016,-184.570,128.174,-91.492
1.153,-0.035,-0.032,-182.068,108.154,-85.632
1.128,-0.036,-0.077,-177.856,82.642,-81.360
1.075,-0.034,-0.137,-171.753,58.105,-80.444
1.006,-0.036,-0.197,-163.879,40.771,-83.069
0.928,-0.040,-0.236,-154.541,34.180,-87.341
0.876,-0.054,-0.274,-144.836,38.147,-90.698
0.905,-0.078,-0.287,-136.780,49.866,-90.759
0.952,-0.096,-0.278,-130.798,63.049,-87.097
1.057,-0.139,-0.259,-127.014,72.571,-80.261

1.550,-0.136,-1.053,78.430,-106.812,70.251
1.713,-0.064,-1.033,100.708,-114.990,83.252
1.941,-0.055,-1.000,130.981,-124.084,99.609
2.101,-0.126,-0.980,168.762,-138.489,117.432
2.198,-0.266,-0.944,204.956,-152.039,137.085
2.313,-0.433,-0.929,234.802,-162.292,161.133
2.355,-0.579,-0.938,258.545,-166.565,186.890
2.373,-0.676,-0.886,278.320,-162.170,210.876
2.361,-0.711,-0.745,293.640,-148.254,233.521
2.261,-0.731,-0.609,308.533,-129.395,253.845
2.191,-0.761,-0.491,320.190,-113.831,273.499
2.097,-0.763,-0.345,327.820,-102.173,290.771
1.929,-0.787,-0.222,335.205,-96.375,304.626
1.781,-0.853,-0.135,342.285,-98.206,316.956
1.654,-0.915,0.003,346.741,-105.103,328.247
1.511,-0.961,0.198,354.370,-118.225,336.731
1.422,-1.054,0.368,364.014,-142.395,345.337
1.272,-1.183,0.455,370.544,-180.298,352.783
0.970,-1.329,0.449,372.253,-221.680,355.530
0.631,-1.510,0.396,364.746,-255.859,355.408
0.311,-1.621,0.421,342.957,-272.278,351.196
-0.087,-1.651,0.477,312.500,-270.691,344.788
-0.520,-1.600,0.480,276.672,-252.625,336.365
-0.848,-1.498,0.521,237.915,-215.088,320.557
-1.028,-1.355,0.562,197.815,-162.354,297.607
-0.995,-1.165,0.600,160.095,-103.455,271.851
-0.981,-1.139,0.633,127.319,-48.706,248.169
-0.901,-0.990,0.656,96.497,-2.869,222.290
-0.685,-0.841,0.772,75.073,28.381,197.571
-0.640,-0.732,0.897,64.880,36.621,179.565
-0.780,-0.673,0.984,62.073,32.471,160.461
-0.903,-0.630,1.033,63.904,26.672,139.404
-0.942,-0.607,1.090,64.453,30.945,114.990
-0.952,-0.583,1.091,58.289,51.331,84.656
-0.621,-0.510,1.057,45.288,72.327,51.575
-0.161,-0.443,1.061,36.316,79.102,34.241
0.048,-0.352,1.045,29.175,73.425,17.029
0.184,-0.268,1.026,19.104,60.913,-1.709
0.390,-0.199,1.020,9.644,49.255,-13.733
0.594,-0.112,0.999,0.610,36.560,-19.348
0.754,-0.060,0.977,-7.446,20.142,-20.142
0.849,0.013,0.969,-13.916,-0.732,-19.958
0.841,0.091,0.921,-16.052,-23.010,-21.667
0.819,0.121,0.869,-13.977,-37.231,-23.682
0.785,0.160,0.823,-12.146,-41.504,-23.865
0.730,0.194,0.792,-10.925,-36.560,-23.193
0.686,0.195,0.759,-10.559,-25.391,-21.667
0.652,0.204,0.726,-11.414,-11.230,-20.142
0.603,0.192,0.701,-11.963,5.127,-17.212
0.568,0.183,0.697,-13.062,21.484,-13.184
0.554,0.160,0.699,-14.221,35.767,-9.033
0.584,0.142,0.732,-15.686,46.753,-5.554
0.637,0.141,0.771,-17.334,50.781,-2.686
0.638,0.139,0.799,-17.883,45.410,-0.977
0.597,0.145,0.807,-17.700,33.936,-0.977
0.540,0.150,0.811,-17.639,21.362,-2.686
0.481,0.153,0.816,-17.151,11.108,-5.859
0.445,0.147,0.814,-17.151,3.845,-10.742
0.422,0.131,0.812,-18.494,0.427,-16.052
0.401,0.113,0.807,-20.386,-0.549,-21.790
0.393,0.097,0.807,-23.132,0.732,-27.405
0.414,0.082,0.814,-26.855,4.211,-31.921
0.431,0.078,0.825,-30.518,8.179,-35.461
0.443,0.077,0.843,-33.325,11.108,-37.354
0.456,0.070,0.862,-35.767,12.695,-38.330
0.473,0.065,0.883,-38.208,14.282,-39.307
0.486,0.061,0.900,-41.382,16.296,-40.344
0.499,0.055,0.910,-44.617,18.494,-41.443
0.508,0.048,0.920,-48.523,19.897,-42.847
0.522,0.043,0.928,-53.040,21.118,-45.166
0.536,0.048,0.923,-58.960,22.156,-48.279
0.558,0.051,0.921,-65.186,22.888,-51.819
0.592,0.050,0.927,-71.838,22.217,-55.115
0.611,0.048,0.926,-78.064,19.043,-57.800
0.623,0.048,0.920,-83.130,13.977,-60.608
0.620,0.049,0.916,-87.402,8.118,-63.354
0.597,0.045,0.912,-90.271,1.709,-66.040
0.575,0.039,0.910,-92.285,-3.967,-68.542
0.549,0.033,0.904,-93.445,-8.118,-70.435
0.522,0.024,0.894,-94.238,-10.681,-72.449
0.498,0.015,0.884,-94.727,-12.085,-75.195
0.474,0.003,0.867,-95.459,-11.902,-78.003
0.470,-0.003,0.857,-97.229,-10.193,-81.177
0.464,-0.013,0.840,-99.854,-7.507,-84.473
0.468,-0.024,0.824,-103.516,-4.456,-87.036
0.498,-0.026,0.810,-108.032,-0.916,-90.149
0.512,-0.034,0.789,-112.549,2.930,-94.055
0.524,-0.038,0.769,-117.126,7.019,-98.145
0.551,-0.039,0.752,-121.643,11.230,-101.440
0.578,-0.036,0.732,-125.366,14.465,-104.126
0.594,-0.031,0.706,-128.967,16.541,-106.262
0.604,-0.031,0.678,-132.141,18.188,-107.910
0.614,-0.027,0.656,-134.460,19.958,-109.131
0.624,-0.015,0.631,-135.681,21.118,-110.229
0.636,-0.004,0.619,-136.902,22.522,-111.328
0.649,0.009,0.600,-137.634,23.682,-112.793
0.686,0.007,0.591,-138.062,23.987,-113.708
0.725,0.016,0.584,-138.000,21.606,-114.380
0.754,0.024,0.580,-137.512,15.503,-114.990
0.768,0.026,0.558,-136.108,6.348,-115.906
0.766,0.023,0.527,-134.827,-3.784,-117.981
0.749,0.025,0.493,-133.728,-12.695,-121.460
0.713,0.028,0.458,-132.812,-18.860,-126.160
0.673,0.028,0.418,-131.897,-20.935,-132.019
0.642,0.025,0.377,-131.409,-18.127,-138.428
0.622,0.019,0.342,-131.287,-10.620,-144.714
0.599,0.016,0.305,-131.531,0.061,-150.208
0.587,0.013,0.271,-132.080,13.916,-154.724
0.610,0.005,0.250,-132.141,30.029,-157.776
0.628,0.005,0.236,-132.446,46.814,-159.119
0.622,0.016,0.222,-132.263,63.049,-157.654
0.619,0.028,0.194,-131.226,77.026,-153.687
0.616,0.024,0.161,-129.883,89.417,-148.376
0.607,0.023,0.131,-128.540,101.929,-142.761
0.566,0.034,0.100,-128.296,115.417,-136.597
0.525,0.026,0.053,-127.441,130.249,-130.981
0.480,0.005,0.001,-127.747,149.353,-125.305
0.447,-0.005,-0.047,-130.066,172.485,-119.263
0.475,-0.029,-0.074,-133.423,198.120,-113.281

1.678,-0.135,-0.793,140.259,-118.713,67.932
1.671,-0.167,-0.796,156.921,-144.592,77.759
1.710,-0.246,-0.807,174.133,-165.466,86.975
1.796,-0.321,-0.788,189.697,-182.678,97.900
1.864,-0.394,-0.755,203.796,-196.777,108.521
1.891,-0.418,-0.704,218.201,-203.247,118.591
1.900,-0.421,-0.635,230.286,-205.566,135.620
1.816,-0.492,-0.632,239.929,-209.900,160.217
1.714,-0.557,-0.623,246.399,-208.801,186.035
1.764,-0.610,-0.533,249.756,-199.097,212.463
1.794,-0.654,-0.436,255.371,-189.270,235.413
1.649,-0.687,-0.341,262.939,-179.199,252.869
1.475,-0.718,-0.245,270.142,-165.894,268.860
1.352,-0.750,-0.133,276.978,-148.254,283.630
1.369,-0.793,0.012,283.875,-130.493,297.729
1.372,-0.826,0.153,289.124,-123.901,313.538
1.295,-0.879,0.274,295.837,-132.141,327.759
1.170,-0.948,0.379,304.871,-147.827,337.585
0.986,-1.002,0.475,311.523,-166.443,346.130
0.715,-1.030,0.526,315.247,-185.974,356.995
0.408,-1.142,0.636,319.519,-202.698,367.676
0.132,-1.277,0.729,316.101,-214.783,372.620
-0.172,-1.397,0.809,298.706,-224.121,367.249
-0.497,-1.466,0.843,260.864,-225.037,349.670
-0.747,-1.359,0.792,205.933,-207.825,320.801
-0.851,-1.200,0.776,147.949,-174.133,287.964
-1.125,-1.112,0.818,101.990,-132.629,268.066
-1.498,-0.898,0.913,69.153,-79.529,247.192
-1.792,-0.780,1.034,49.011,-16.968,213.379
-1.750,-0.787,1.118,46.021,40.833,180.603
-1.438,-0.741,1.145,39.978,78.430,146.118
-1.127,-0.644,1.166,31.860,98.022,106.812
-0.804,-0.564,1.129,24.536,100.647,67.749
-0.453,-0.491,1.080,17.578,89.539,30.884
-0.142,-0.419,1.071,9.399,72.754,-4.211
0.120,-0.268,1.085,1.221,53.284,-34.241
0.375,-0.162,1.040,-3.479,32.654,-49.744
0.531,-0.101,1.003,-7.751,15.442,-56.152
0.660,-0.020,0.943,-15.381,2.136,-61.218
0.782,0.052,0.878,-21.667,-5.493,-59.631
0.785,0.115,0.825,-25.574,-6.226,-51.575
0.769,0.159,0.785,-26.062,-2.380,-40.588
0.816,0.207,0.769,-24.109,3.723,-28.687
0.871,0.259,0.746,-20.508,10.010,-16.785
0.876,0.286,0.719,-17.578,16.907,-5.737
0.840,0.291,0.693,-16.174,25.757,1.343
0.815,0.299,0.651,-17.151,34.241,3.052
0.805,0.312,0.623,-18.616,41.382,1.770
0.786,0.323,0.609,-19.470,45.715,0.488
0.759,0.329,0.604,-19.043,45.715,-0.427
0.752,0.326,0.622,-17.456,43.030,-0.854
0.743,0.323,0.646,-14.648,37.842,-0.427
0.713,0.316,0.660,-10.864,30.640,0.305
0.669,0.302,0.672,-6.165,22.705,1.404
0.613,0.282,0.672,-2.625,15.930,2.686
0.574,0.259,0.679,-0.183,12.024,3.235
0.534,0.245,0.691,0.854,11.963,3.906
0.501,0.237,0.708,0.916,12.939,4.578
0.482,0.220,0.720,1.404,15.076,4.272
0.460,0.211,0.737,1.038,18.616,3.418
0.442,0.206,0.757,-0.427,23.193,2.075
0.443,0.201,0.783,-1.648,26.550,0.244
0.445,0.196,0.813,-3.235,28.137,-1.648
0.439,0.191,0.834,-5.310,27.527,-3.418
0.430,0.186,0.846,-7.629,25.269,-5.493
0.415,0.189,0.856,-10.376,22.156,-8.179
0.407,0.192,0.861,-12.573,18.921,-11.841
0.408,0.186,0.862,-14.099,16.296,-16.602
0.405,0.172,0.871,-15.869,14.771,-21.790
0.405,0.155,0.890,-17.944,13.855,-26.184
0.417,0.138,0.912,-20.386,13.062,-30.151
0.435,0.118,0.931,-23.804,12.268,-33.081
0.442,0.100,0.947,-27.344,10.925,-35.278
0.447,0.077,0.957,-31.555,9.460,-37.354
0.446,0.054,0.963,-36.682,7.996,-39.368
0.435,0.033,0.961,-43.152,7.690,-41.809
0.422,0.023,0.955,-50.354,9.277,-44.739
0.412,0.017,0.952,-57.678,12.573,-47.852
0.402,0.009,0.940,-64.148,17.090,-51.514
0.397,0.001,0.934,-70.007,22.400,-55.664
0.390,-0.004,0.927,-75.623,27.832,-60.120
0.397,-0.013,0.914,-80.505,32.532,-64.941
0.399,-0.025,0.896,-84.900,37.109,-70.679
0.399,-0.038,0.877,-89.722,41.687,-76.355
0.406,-0.053,0.855,-94.604,45.715,-81.848
0.416,-0.063,0.833,-99.854,49.622,-87.524
0.420,-0.078,0.804,-105.774,53.284,-92.712
0.434,-0.097,0.777,-111.938,56.763,-97.290
0.450,-0.107,0.751,-119.080,60.303,-101.318
0.468,-0.116,0.721,-126.648,64.026,-104.431
0.477,-0.121,0.686,-133.728,69.153,-108.032
0.494,-0.132,0.648,-139.832,76.660,-112.122
0.507,-0.131,0.607,-146.057,86.243,-116.150
0.528,-0.141,0.566,-152.161,96.619,-120.117
0.554,-0.150,0.529,-158.508,107.422,-123.108
0.573,-0.145,0.491,-165.283,117.615,-124.573
0.581,-0.143,0.442,-171.509,126.282,-125.854
0.590,-0.142,0.393,-177.734,134.033,-126.587
0.596,-0.143,0.339,-183.777,140.564,-126.770
0.600,-0.153,0.283,-190.430,146.179,-126.282
0.614,-0.170,0.228,-197.754,152.527,-125.366
0.646,-0.200,0.174,-206.726,160.461,-123.962
0.710,-0.228,0.128,-216.736,168.762,-123.657
0.799,-0.253,0.076,-226.379,175.171,-124.756
0.900,-0.283,0.033,-236.572,177.979,-126.526
0.979,-0.288,-0.018,-248.047,178.955,-127.563
1.058,-0.256,-0.078,-257.629,176.758,-126.404
1.139,-0.214,-0.131,-262.573,169.067,-122.192
1.197,-0.176,-0.177,-262.939,155.762,-115.723
1.234,-0.152,-0.215,-259.338,138.000,-109.131
1.275,-0.143,-0.256,-253.357,117.310,-104.126
1.280,-0.164,-0.311,-246.094,94.238,-102.722
1.291,-0.229,-0.381,-239.929,72.205,-105.103
1.332,-0.310,-0.436,-236.938,54.565,-108.032
1.376,-0.353,-0.478,-237.671,39.185,-107.849
1.391,-0.355,-0.511,-239.990,23.010,-102.051
1.396,-0.322,-0.520,-241.028,7.446,-89.600
1.377,-0.281,-0.522,-239.197,-5.432,-74.097
1.329,-0.255,-0.560,-233.032,-14.160,-58.350

1.365,-0.222,-0.945,155.945,-44.250,33.386
1.331,-0.273,-1.009,171.814,-52.002,35.889
1.303,-0.319,-1.080,187.622,-56.396,37.781
1.261,-0.356,-1.119,201.233,-55.298,38.513
1.222,-0.440,-1.222,213.928,-50.110,37.354
1.190,-0.494,-1.372,226.685,-36.987,32.043
1.162,-0.541,-1.538,240.845,-12.817,23.682
1.190,-0.578,-1.717,258.850,19.470,15.015
1.308,-0.600,-1.799,282.959,56.519,9.827
1.437,-0.638,-1.842,313.538,86.975,9.827
1.515,-0.688,-1.867,349.548,107.666,10.864
1.544,-0.759,-1.822,390.015,127.319,10.498
1.538,-0.830,-1.728,431.946,142.212,13.000
1.524,-0.888,-1.516,471.008,145.508,18.372
1.513,-0.975,-1.232,508.911,137.939,24.536
1.480,-1.074,-0.949,544.495,117.737,31.372
1.412,-1.181,-0.667,575.073,85.388,38.513
1.306,-1.250,-0.363,602.966,45.166,46.204
1.100,-1.357,-0.145,628.235,-1.587,56.091
0.759,-1.636,0.001,642.395,-50.659,66.162
0.530,-1.919,0.532,628.113,-83.252,68.420
0.422,-1.858,0.957,580.811,-103.577,65.369
0.166,-1.613,1.000,520.325,-117.371,65.063
-0.186,-1.484,1.064,462.524,-101.501,61.340
-0.304,-1.369,1.127,403.564,-60.974,51.941
-0.188,-1.251,1.177,347.778,-16.418,44.495
-0.066,-1.142,1.222,297.607,23.865,36.316
0.103,-1.065,1.266,255.981,56.885,26.306
0.250,-1.197,1.501,232.056,83.069,14.771
0.402,-1.325,1.482,226.624,105.347,0.610
0.893,-1.231,1.362,195.923,127.991,-11.414
1.389,-1.068,1.221,149.353,138.184,-15.869
1.521,-0.817,1.026,105.164,116.150,-17.883
1.478,-0.617,0.783,67.749,71.533,-19.958
1.394,-0.439,0.567,38.208,25.330,-19.226
1.281,-0.257,0.397,15.137,-8.423,-13.306
1.161,-0.136,0.265,-2.502,-28.076,-6.165
1.078,-0.058,0.176,-15.259,-36.804,-2.014
1.029,0.024,0.094,-25.513,-39.246,-1.709
1.015,0.094,0.033,-34.058,-36.499,-4.456
1.015,0.149,-0.010,-39.612,-32.104,-8.972
1.001,0.214,-0.055,-41.565,-28.259,-13.245
0.974,0.256,-0.133,-40.588,-23.865,-15.747
0.928,0.291,-0.161,-37.598,-15.991,-15.320
0.920,0.326,-0.174,-33.691,-8.911,-12.573
0.926,0.336,-0.186,-29.175,-3.784,-8.362
0.932,0.336,-0.183,-25.269,-0.122,-3.174
0.955,0.330,-0.186,-21.301,1.587,2.441
0.918,0.245,-0.235,-17.273,3.540,7.935
0.948,0.283,-0.170,-15.259,10.986,8.301
0.983,0.304,-0.195,-12.573,14.282,8.301
1.001,0.214,-0.161,-6.897,12.878,10.742
0.982,0.217,-0.083,-3.174,14.709,9.521
0.992,0.189,0.003,0.244,12.634,8.728
1.000,0.143,0.023,1.526,6.775,8.850
0.978,0.107,0.102,1.343,3.967,8.789
0.983,0.073,0.176,-0.549,0.793,8.972
0.993,0.025,0.218,-4.517,-5.127,9.644
0.972,-0.013,0.275,-11.658,-9.705,10.132
0.963,-0.047,0.353,-22.217,-11.597,10.559
0.979,-0.075,0.397,-36.377,-13.733,11.292
0.972,-0.103,0.423,-52.979,-16.418,12.207
0.955,-0.136,0.457,-71.594,-18.799,12.878
0.951,-0.166,0.488,-91.675,-20.508,13.000
0.957,-0.194,0.508,-112.366,-21.423,11.902
0.951,-0.212,0.510,-133.972,-22.217,9.644
0.928,-0.220,0.487,-154.663,-23.743,6.714
0.902,-0.224,0.437,-173.035,-24.536,3.784
0.888,-0.233,0.391,-189.514,-22.888,0.854
0.898,-0.250,0.355,-204.529,-18.982,-1.038
0.920,-0.287,0.299,-217.285,-14.709,-1.953
0.940,-0.344,0.240,-230.957,-9.888,-2.502
0.952,-0.385,0.212,-248.169,-3.418,-3.418
0.963,-0.387,0.199,-267.822,5.554,-4.822
0.976,-0.367,0.169,-286.560,14.954,-5.798
1.010,-0.353,0.134,-302.307,21.912,-5.737
1.039,-0.334,0.100,-313.782,23.499,-5.371
1.049,-0.317,0.043,-320.862,20.264,-4.333
1.056,-0.292,-0.019,-323.425,13.245,-2.869
1.089,-0.261,-0.035,-322.083,2.808,-0.793
1.119,-0.232,-0.038,-318.604,-12.024,2.563
1.134,-0.210,-0.030,-314.026,-32.654,5.676
1.104,-0.208,-0.054,-307.983,-57.129,7.690
1.025,-0.248,-0.122,-300.781,-78.674,7.751
0.941,-0.288,-0.180,-295.349,-89.600,4.761
0.854,-0.293,-0.213,-293.518,-89.417,0.793
0.779,-0.270,-0.231,-293.152,-80.017,-2.747
0.727,-0.239,-0.235,-293.274,-63.965,-4.700
0.703,-0.183,-0.216,-293.396,-46.326,-4.578
0.711,-0.085,-0.171,-292.053,-31.799,-0.549
0.716,-0.121,-0.263,-285.706,-23.315,10.010
0.683,-0.209,-0.310,-279.602,-13.367,14.282
0.663,-0.101,-0.305,-280.151,-4.761,9.277
0.701,-0.057,-0.291,-272.949,1.892,9.338
0.763,-0.199,-0.350,-262.817,3.662,8.850
0.760,-0.066,-0.355,-259.216,2.136,1.953
0.812,-0.165,-0.365,-249.817,-0.244,6.470
0.885,-0.256,-0.442,-241.638,-7.690,3.601
0.916,-0.258,-0.506,-237.244,-16.602,-5.432
0.930,-0.214,-0.529,-231.750,-23.376,-13.184
0.960,-0.190,-0.575,-225.098,-31.250,-17.334
0.990,-0.185,-0.647,-214.355,-39.612,-20.935
1.025,-0.177,-0.685,-201.599,-44.250,-25.330
1.038,-0.172,-0.697,-188.721,-45.593,-27.527
1.074,-0.182,-0.699,-174.500,-44.189,-28.870
1.144,-0.215,-0.707,-158.630,-41.321,-32.104
1.177,-0.244,-0.730,-143.311,-37.109,-36.072
1.174,-0.268,-0.735,-129.883,-29.724,-39.795
1.189,-0.281,-0.734,-118.896,-18.616,-40.649
1.197,-0.277,-0.726,-110.168,-6.592,-37.659
1.197,-0.262,-0.705,-102.356,3.052,-32.349
1.210,-0.246,-0.669,-95.032,9.338,-26.245
1.232,-0.244,-0.650,-88.318,11.230,-20.569
1.223,-0.244,-0.646,-81.665,9.705,-16.602
1.193,-0.225,-0.638,-75.378,6.592,-14.954
1.179,-0.211,-0.629,-68.604,2.808,-14.709
1.154,-0.212,-0.646,-59.998,-0.977,-15.930
1.101,-0.185,-0.642,-50.293,-1.404,-17.700
1.081,-0.161,-0.587,-41.260,2.014,-18.799

1.440,-0.276,-1.381,115.173,-17.639,-0.183
1.555,-0.406,-1.570,148.376,-21.545,-3.418
1.623,-0.512,-1.787,182.983,-23.010,-7.202
1.664,-0.632,-1.978,218.628,-20.569,-8.972
1.715,-0.748,-2.136,254.456,-16.357,-6.287
1.688,-0.825,-2.261,291.321,-11.658,0.854
1.577,-0.882,-2.274,329.285,-3.235,12.634
1.469,-0.972,-2.216,369.568,11.719,24.658
1.339,-1.067,-2.113,411.926,31.982,34.180
1.160,-1.113,-1.944,454.163,54.749,39.551
1.017,-1.153,-1.709,496.643,80.139,41.504
0.985,-1.264,-1.453,540.344,104.309,40.405
1.002,-1.391,-1.196,583.679,121.887,34.546
1.032,-1.501,-0.886,622.681,132.263,26.123
1.099,-1.634,-0.612,658.203,131.042,20.325
1.151,-1.789,-0.375,689.514,111.694,19.653
1.059,-1.974,-0.145,704.102,73.730,25.208
0.889,-2.184,0.418,691.895,31.616,28.564
0.698,-2.205,0.831,642.944,0.793,23.621
0.584,-1.939,0.930,557.190,-25.330,21.362
0.454,-1.682,0.984,465.820,-30.396,22.583
0.317,-1.510,1.126,389.343,-12.085,18.616
0.282,-1.277,1.200,326.477,10.254,12.817
0.361,-1.052,1.187,278.015,31.677,8.423
0.442,-0.904,1.157,247.314,51.514,5.066
0.593,-0.800,1.192,229.248,65.063,1.770
0.949,-0.852,1.386,223.633,66.040,-3.235
1.174,-1.018,1.435,234.192,46.448,-15.381
1.146,-0.934,1.249,234.192,18.677,-30.212
1.156,-0.837,1.022,213.623,5.981,-39.307
1.074,-0.724,0.861,186.646,5.737,-42.419
1.001,-0.560,0.694,157.227,11.047,-41.565
1.051,-0.442,0.533,130.066,20.020,-34.912
1.114,-0.310,0.418,104.553,25.146,-24.780
1.104,-0.187,0.292,80.139,21.667,-14.954
1.064,-0.134,0.171,57.251,15.808,-6.714
1.046,-0.090,0.121,35.034,13.428,-2.380
1.063,-0.046,0.082,14.099,10.681,-1.770
1.063,-0.009,0.039,-3.723,4.639,-3.784
1.042,0.025,0.009,-16.418,-3.540,-8.118
1.038,0.062,-0.020,-24.902,-11.719,-13.733
1.022,0.107,-0.059,-30.396,-20.142,-18.494
1.003,0.151,-0.093,-34.180,-26.917,-20.996
0.972,0.181,-0.126,-36.438,-31.494,-21.057
0.931,0.203,-0.160,-37.476,-32.104,-18.738
0.887,0.217,-0.197,-37.842,-27.161,-14.893
0.861,0.216,-0.225,-37.720,-16.907,-9.705
0.873,0.203,-0.225,-37.476,-3.357,-4.272
0.908,0.185,-0.201,-36.377,10.010,0.671
0.945,0.162,-0.163,-34.180,19.897,5.859
0.977,0.138,-0.118,-31.250,25.391,10.132
1.001,0.110,-0.066,-28.259,27.344,13.367
1.014,0.083,-0.006,-25.452,25.696,14.771
1.034,0.046,0.049,-23.376,21.118,14.465
1.057,0.016,0.105,-22.827,14.954,12.512
1.067,-0.007,0.147,-24.841,7.202,9.460
1.065,-0.028,0.173,-28.625,-0.793,6.470
1.066,-0.046,0.194,-34.302,-7.812,3.845
1.073,-0.061,0.209,-41.565,-13.733,2.625
1.083,-0.074,0.234,-49.988,-19.409,2.563
1.109,-0.089,0.268,-59.998,-24.170,4.211
1.115,-0.108,0.284,-72.144,-29.297,7.019
1.102,-0.125,0.281,-85.388,-34.546,10.437
1.094,-0.132,0.280,-98.938,-38.147,14.465
1.080,-0.137,0.273,-111.938,-40.039,18.677
1.068,-0.145,0.259,-124.329,-39.734,22.339
1.058,-0.152,0.254,-136.475,-36.987,25.513
1.054,-0.159,0.247,-148.499,-33.142,28.259
1.044,-0.172,0.221,-159.485,-29.846,29.907
1.052,-0.179,0.219,-170.532,-26.611,30.884
1.066,-0.179,0.209,-181.152,-25.574,30.701
1.078,-0.187,0.194,-191.467,-28.076,30.151
1.099,-0.201,0.171,-202.393,-34.973,28.992
1.111,-0.208,0.146,-213.135,-45.166,27.344
1.082,-0.208,0.086,-223.206,-57.312,25.391
1.023,-0.212,0.031,-234.192,-66.589,23.743
0.963,-0.199,-0.007,-245.056,-69.458,22.278
0.912,-0.181,-0.039,-254.761,-64.941,21.667
0.882,-0.160,-0.080,-263.672,-54.626,23.132
0.856,-0.132,-0.125,-270.935,-41.443,27.344
0.854,-0.108,-0.172,-275.085,-27.588,32.837
0.887,-0.089,-0.216,-275.208,-15.869,38.879
0.948,-0.074,-0.236,-272.583,-9.827,44.128
1.002,-0.065,-0.229,-266.785,-12.024,46.997
1.055,-0.059,-0.220,-259.033,-23.743,47.119
1.058,-0.057,-0.208,-250.366,-42.297,43.945
1.027,-0.057,-0.194,-241.455,-61.218,36.682
0.992,-0.042,-0.176,-234.192,-76.843,27.100
0.942,-0.024,-0.194,-227.600,-89.233,17.700
0.875,-0.006,-0.227,-222.534,-99.182,10.925
0.816,0.038,-0.237,-218.567,-104.065,10.010
0.784,-0.128,-0.340,-216.309,-99.915,16.907
0.747,-0.198,-0.304,-227.112,-86.365,15.320
0.806,-0.157,-0.246,-246.643,-77.881,11.292
0.899,-0.117,-0.251,-260.864,-75.684,8.240
0.915,-0.193,-0.301,-269.714,-76.294,4.761
0.861,-0.090,-0.335,-278.137,-78.613,-3.113
0.850,-0.068,-0.342,-278.625,-80.322,-6.226
0.846,-0.064,-0.398,-272.949,-80.566,-13.489
0.794,0.013,-0.417,-265.259,-76.111,-26.978
0.758,0.065,-0.411,-252.563,-67.383,-35.950
0.747,0.120,-0.392,-238.525,-59.265,-41.687
0.778,0.124,-0.396,-221.619,-53.345,-42.664
0.826,0.062,-0.427,-203.552,-51.819,-40.771
0.862,0.045,-0.442,-187.927,-53.040,-38.818
0.932,-0.016,-0.440,-174.683,-56.824,-35.339
1.001,-0.094,-0.441,-164.856,-62.683,-30.701
1.006,-0.115,-0.435,-158.813,-67.505,-28.320
0.979,-0.097,-0.454,-154.175,-70.374,-27.100
0.959,-0.073,-0.485,-147.583,-70.496,-26.123
0.963,-0.039,-0.493,-139.221,-66.101,-26.306
1.034,-0.017,-0.493,-127.563,-59.631,-26.855
1.125,0.006,-0.487,-113.098,-55.542,-28.137
1.180,0.036,-0.470,-95.947,-54.993,-29.724
1.218,0.047,-0.448,-77.271,-56.519,-29.541
1.232,0.044,-0.418,-58.655,-58.655,-28.748
1.201,0.052,-0.380,-42.175,-57.861,-28.564
1.156,0.055,-0.332,-27.832,-53.040,-28.381
1.119,0.043,-0.287,-16.846,-45.471,-27.405

1.441,-0.097,-1.135,92.712,14.343,10.742
1.488,-0.097,-1.214,125.183,9.888,11.780
1.514,-0.130,-1.292,162.781,10.803,13.245
1.510,-0.189,-1.389,203.918,16.541,14.709
1.483,-0.210,-1.511,246.826,30.273,15.320
1.458,-0.248,-1.701,293.274,52.795,17.029
1.418,-0.343,-1.912,343.384,83.496,21.057
1.372,-0.458,-2.041,391.907,121.765,27.466
1.356,-0.589,-2.113,434.998,160.583,34.607
1.376,-0.663,-2.048,472.412,195.068,38.513
1.445,-0.676,-1.866,505.371,221.985,38.330
1.504,-0.796,-1.663,539.734,234.253,35.522
1.526,-0.980,-1.426,568.298,232.422,31.433
1.536,-1.076,-1.145,586.365,218.994,24.597
1.504,-1.203,-0.914,597.229,193.176,16.602
1.455,-1.321,-0.715,602.905,157.715,8.362
1.375,-1.387,-0.452,602.295,121.460,1.038
1.270,-1.427,-0.279,596.680,84.656,-2.625
1.125,-1.478,-0.155,585.022,49.927,-3.174
0.949,-1.448,0.055,562.683,24.475,-2.991
0.804,-1.410,0.207,532.227,7.507,0.183
0.674,-1.359,0.269,497.070,-1.648,4.456
0.558,-1.297,0.352,457.336,1.709,6.409
0.475,-1.228,0.436,413.147,14.893,6.775
0.486,-1.170,0.502,370.422,33.569,4.395
0.553,-1.085,0.558,331.421,54.199,-0.549
0.652,-0.974,0.568,295.959,70.923,-6.104
0.773,-0.898,0.554,265.808,78.918,-10.986
0.873,-0.813,0.522,240.051,78.735,-14.465
0.929,-0.744,0.484,217.041,73.792,-16.785
0.962,-0.717,0.463,196.655,66.223,-18.066
1.016,-0.656,0.451,177.063,54.993,-19.897
1.017,-0.616,0.410,156.921,42.725,-20.630
1.007,-0.595,0.436,139.099,35.767,-20.691
0.964,-0.611,0.542,118.958,36.621,-18.555
1.012,-0.648,0.678,94.849,49.744,-14.893
1.246,-0.600,0.797,65.857,62.012,-11.780
1.365,-0.504,0.772,36.194,49.011,-7.568
1.295,-0.355,0.578,9.521,21.912,-2.869
1.160,-0.271,0.376,-9.277,4.150,-0.793
1.101,-0.133,0.203,-20.508,-3.479,-2.502
1.101,-0.048,0.076,-25.452,-5.981,-4.028
1.097,-0.020,0.054,-26.306,-7.874,-5.249
1.115,0.116,-0.084,-26.611,-13.489,-6.775
1.087,0.142,-0.079,-25.146,-14.832,-5.066
1.060,0.213,-0.145,-26.733,-23.437,-4.272
1.001,0.247,-0.165,-26.855,-27.832,-2.197
0.966,0.259,-0.181,-27.405,-27.954,0.427
0.951,0.255,-0.187,-27.771,-26.855,2.380
0.923,0.262,-0.211,-28.931,-23.560,3.418
0.919,0.265,-0.189,-29.785,-15.991,4.395
0.938,0.262,-0.159,-30.396,-9.583,5.615
0.943,0.245,-0.141,-31.250,-6.348,7.141
0.937,0.229,-0.117,-32.532,-3.357,8.118
0.936,0.226,-0.085,-34.119,-1.770,8.301
0.938,0.224,-0.053,-36.255,-1.587,7.935
0.930,0.229,-0.034,-38.574,-2.747,6.775
0.921,0.233,-0.020,-40.955,-5.127,5.127
0.921,0.233,-0.012,-42.419,-8.545,3.052
0.920,0.231,-0.020,-43.579,-13.428,0.366
0.904,0.220,-0.031,-44.678,-18.738,-2.502
0.887,0.215,-0.040,-46.570,-22.217,-5.249
0.876,0.206,-0.036,-48.218,-22.766,-8.118
0.887,0.191,-0.032,-49.744,-21.729,-10.437
0.907,0.176,-0.014,-52.734,-18.921,-11.047
0.950,0.162,0.006,-56.335,-16.418,-10.193
0.996,0.152,0.023,-59.937,-15.747,-8.362
1.027,0.143,0.034,-64.453,-16.724,-5.920
1.045,0.139,0.039,-69.214,-18.677,-3.113
1.053,0.128,0.045,-73.792,-20.020,0.000
1.063,0.119,0.057,-77.820,-20.813,2.869
1.078,0.110,0.071,-81.604,-21.362,4.456
1.084,0.099,0.071,-85.205,-22.522,4.883
1.089,0.084,0.065,-88.196,-23.376,4.028
1.114,0.079,0.065,-90.210,-23.560,2.502
1.151,0.080,0.072,-92.102,-24.658,0.793
1.187,0.074,0.072,-94.360,-27.954,-0.793
1.198,0.068,0.058,-97.473,-33.691,-1.343
1.194,0.062,0.047,-101.257,-40.955,-0.366
1.200,0.053,0.047,-105.103,-49.194,1.892
1.198,0.043,0.054,-109.558,-58.167,4.578
1.178,0.037,0.054,-114.441,-67.505,6.897
1.140,0.032,0.055,-119.202,-75.806,8.362
1.096,0.029,0.042,-123.657,-81.543,8.911
1.028,0.037,0.017,-128.784,-82.947,9.155
0.971,0.054,0.004,-133.301,-78.430,10.010
0.940,0.064,0.000,-136.536,-69.702,12.085
0.933,0.062,0.001,-138.184,-58.594,14.648
0.943,0.053,0.001,-139.709,-46.997,17.151
0.964,0.042,0.010,-141.174,-36.133,19.104
1.011,0.031,0.033,-142.517,-27.527,20.386
1.051,0.021,0.049,-144.226,-23.010,21.912
1.070,0.012,0.053,-147.217,-22.949,24.109
1.079,0.001,0.059,-150.879,-26.245,26.367
1.088,-0.011,0.062,-155.396,-32.471,28.503
1.083,-0.013,0.064,-160.889,-39.795,29.663
1.073,-0.012,0.070,-166.809,-47.852,29.053
1.055,-0.011,0.073,-171.692,-57.007,26.978
1.027,-0.008,0.067,-176.025,-67.200,23.987
0.990,-0.005,0.057,-180.298,-76.233,20.508
0.959,0.001,0.067,-185.364,-82.825,17.334
0.924,0.018,0.069,-189.697,-88.196,14.832
0.874,0.025,0.055,-192.688,-92.651,13.733
0.830,0.015,0.067,-194.885,-95.215,13.184
0.803,0.010,0.063,-197.083,-95.947,12.817
0.758,0.002,0.041,-200.989,-97.107,12.207
0.747,-0.018,0.049,-206.238,-98.877,10.803
0.766,-0.040,0.072,-214.966,-103.821,7.568
0.768,-0.052,0.078,-227.173,-112.610,2.258
0.744,-0.038,0.056,-238.647,-122.559,-4.883
0.705,-0.009,0.018,-245.911,-130.737,-14.771
0.661,0.020,-0.021,-248.047,-134.460,-26.611
0.621,0.043,-0.063,-244.568,-133.057,-39.124
0.614,0.044,-0.096,-237.854,-125.854,-51.392
0.630,0.049,-0.108,-230.164,-112.732,-62.256
0.647,0.057,-0.118,-221.497,-97.290,-70.923
0.686,0.063,-0.115,-213.135,-81.970,-75.623
0.778,0.061,-0.107,-206.848,-69.519,-75.928
0.852,0.039,-0.108,-203.247,-62.622,-72.144

1.221,-0.041,-1.546,116.943,70.801,-18.005
1.253,-0.075,-1.637,161.438,86.853,-23.926
1.302,-0.188,-1.659,210.937,98.877,-28.687
1.376,-0.362,-1.630,258.789,104.248,-32.104
1.415,-0.519,-1.589,300.354,102.539,-33.508
1.401,-0.647,-1.554,334.229,96.375,-31.677
1.400,-0.731,-1.477,361.633,88.623,-27.893
1.415,-0.792,-1.386,386.536,81.848,-23.743
1.417,-0.864,-1.304,410.645,77.026,-20.264
1.441,-0.874,-1.175,433.533,77.209,-17.639
1.434,-0.832,-0.996,455.261,77.271,-14.404
1.387,-0.834,-0.866,475.586,71.472,-8.911
1.361,-0.869,-0.752,491.516,60.669,-2.930
1.300,-0.911,-0.669,501.343,46.631,2.258
1.201,-0.971,-0.641,505.859,31.311,6.042
1.129,-1.002,-0.601,503.601,17.639,7.324
1.078,-1.002,-0.497,500.549,7.629,6.104
1.012,-1.015,-0.350,498.169,0.183,3.723
0.961,-1.021,-0.179,494.629,-6.287,-0.122
0.917,-1.029,-0.015,488.708,-12.146,-3.540
0.860,-1.017,0.115,477.173,-18.860,-5.493
0.784,-0.985,0.211,457.703,-24.902,-5.005
0.711,-0.935,0.274,432.373,-28.503,-1.221
0.637,-0.899,0.330,405.029,-27.710,5.310
0.570,-0.886,0.396,376.648,-22.461,11.475
0.568,-0.886,0.473,348.206,-12.268,16.541
0.601,-0.854,0.542,320.984,0.122,18.738
0.620,-0.801,0.618,293.945,13.245,18.005
0.648,-0.746,0.682,268.250,23.926,14.893
0.686,-0.699,0.712,244.080,29.602,11.047
0.707,-0.712,0.731,220.032,32.593,7.019
0.641,-0.805,0.761,193.787,39.185,3.418
0.508,-0.799,0.986,157.043,63.416,1.038
0.605,-0.911,1.433,113.281,97.900,-7.080
1.096,-0.840,1.586,62.195,108.704,-13.977
1.351,-0.679,1.301,7.019,88.562,-8.667
1.279,-0.346,0.838,-31.799,47.791,-1.770
1.172,-0.228,0.519,-44.006,13.977,5.432
1.051,-0.169,0.315,-42.480,-7.629,6.897
1.013,-0.057,0.095,-39.246,-18.127,3.540
1.009,0.025,-0.093,-33.997,-19.653,-1.587
1.017,0.090,-0.193,-25.696,-15.686,-5.310
1.034,0.178,-0.262,-17.944,-13.733,-9.460
1.026,0.248,-0.312,-11.169,-14.587,-11.902
0.999,0.288,-0.346,-6.592,-15.198,-11.841
0.976,0.317,-0.379,-4.333,-13.123,-10.559
0.950,0.349,-0.405,-3.174,-8.606,-8.057
0.927,0.357,-0.409,-2.930,-1.770,-4.211
0.926,0.350,-0.397,-3.540,6.836,-0.488
0.940,0.326,-0.361,-3.235,14.709,2.502
0.966,0.298,-0.316,-1.282,20.386,5.005
0.994,0.279,-0.254,2.441,23.010,6.714
1.011,0.260,-0.188,6.653,22.644,8.240
1.014,0.233,-0.123,11.230,18.982,9.033
1.006,0.210,-0.069,15.259,13.794,8.972
1.000,0.178,-0.019,17.761,8.362,8.057
0.993,0.154,0.040,18.188,4.272,6.958
0.981,0.132,0.089,16.296,1.282,5.981
0.978,0.103,0.125,11.597,-0.305,5.127
0.980,0.086,0.149,4.578,-0.183,4.883
0.984,0.082,0.167,-3.845,0.488,5.188
0.993,0.080,0.160,-11.475,1.282,5.676
1.006,0.074,0.137,-19.226,2.014,5.981
1.033,0.077,0.121,-26.672,2.197,5.737
1.067,0.081,0.112,-32.959,0.977,5.310
1.098,0.085,0.108,-37.170,-2.625,5.005
1.116,0.087,0.112,-39.917,-8.545,4.578
1.120,0.089,0.111,-42.603,-15.991,4.395
1.102,0.089,0.107,-46.082,-23.682,4.578
1.082,0.091,0.112,-49.622,-30.212,4.517
1.063,0.090,0.120,-54.382,-34.973,4.333
1.048,0.088,0.125,-60.608,-38.513,4.517
1.036,0.083,0.119,-68.115,-40.955,4.456
1.027,0.079,0.109,-76.782,-42.847,4.272
1.016,0.068,0.098,-86.060,-44.189,4.517
1.012,0.067,0.081,-95.154,-44.800,4.822
1.021,0.061,0.073,-103.394,-46.021,5.188
1.036,0.059,0.070,-110.718,-48.157,5.920
1.025,0.063,0.038,-115.845,-51.697,6.714
1.005,0.073,0.020,-118.774,-54.199,7.996
1.007,0.079,0.017,-119.873,-54.871,9.399
1.014,0.068,0.003,-119.507,-54.871,10.498
1.010,0.056,-0.015,-119.385,-54.077,10.498
1.004,0.062,-0.029,-119.629,-51.331,9.705
1.008,0.071,-0.034,-119.019,-47.058,9.094
1.014,0.074,-0.040,-118.896,-41.992,8.911
1.018,0.074,-0.031,-118.713,-36.743,9.521
1.031,0.077,-0.007,-118.469,-31.616,10.254
1.046,0.071,0.016,-118.469,-27.710,11.780
1.059,0.062,0.031,-119.385,-25.452,14.038
1.052,0.052,0.032,-120.728,-25.024,16.541
1.047,0.041,0.049,-122.742,-25.391,19.531
1.049,0.038,0.070,-126.038,-25.208,22.278
1.043,0.045,0.083,-130.676,-24.231,23.621
1.052,0.050,0.110,-135.376,-23.071,23.865
1.074,0.055,0.129,-138.855,-23.743,23.376
1.097,0.051,0.154,-141.541,-27.710,22.400
1.128,0.050,0.191,-144.348,-34.241,21.423
1.139,0.046,0.210,-145.386,-45.410,20.569
1.128,0.031,0.212,-146.606,-60.242,20.142
1.108,0.012,0.218,-149.780,-75.256,20.264
1.074,-0.000,0.230,-155.151,-88.623,21.179
1.031,-0.000,0.250,-161.560,-101.379,22.400
0.998,-0.010,0.245,-167.969,-113.770,23.315
0.939,-0.027,0.221,-177.063,-124.878,23.071
0.845,-0.051,0.187,-187.683,-130.005,20.874
0.756,-0.058,0.153,-198.792,-127.747,16.724
0.695,-0.066,0.124,-209.351,-119.385,10.925
0.666,-0.070,0.104,-220.032,-106.750,3.540
0.665,-0.062,0.097,-231.262,-92.041,-4.089
0.693,-0.050,0.098,-240.417,-79.773,-11.902
0.745,-0.042,0.074,-247.681,-74.036,-18.860
0.809,-0.029,0.045,-252.625,-75.562,-24.597
0.862,-0.005,0.013,-254.517,-85.022,-28.931
0.866,0.003,-0.052,-253.174,-100.769,-31.921
0.814,-0.000,-0.121,-249.268,-115.051,-35.522
0.737,0.014,-0.172,-243.164,-121.094,-39.551
0.662,0.029,-0.213,-236.633,-117.920,-43.335
0.590,0.038,-0.224,-230.713,-105.408,-46.448

1.404,-0.237,-1.106,68.604,16.113,4.944
1.491,-0.250,-1.223,89.172,20.691,9.155
1.567,-0.264,-1.300,116.943,24.841,15.015
1.618,-0.270,-1.315,151.184,28.625,22.400
1.616,-0.240,-1.262,189.697,31.738,31.494
1.558,-0.261,-1.196,230.469,32.166,42.297
1.487,-0.320,-1.146,269.165,31.128,53.894
1.387,-0.368,-1.079,304.504,30.701,64.148
1.291,-0.437,-0.993,336.548,32.471,71.594
1.198,-0.542,-0.930,365.295,36.255,74.341
1.115,-0.628,-0.873,392.029,44.006,72.021
1.033,-0.676,-0.786,417.664,56.580,66.223
0.983,-0.757,-0.697,442.139,71.716,59.082
0.958,-0.839,-0.588,464.905,87.463,51.208
0.962,-0.919,-0.513,484.436,101.379,43.701
0.990,-0.951,-0.439,499.756,111.694,37.598
1.086,-0.945,-0.303,514.160,116.577,33.203
1.202,-0.985,-0.152,533.081,109.619,28.992
1.284,-1.072,-0.058,552.917,89.783,24.353
1.287,-1.135,0.052,569.519,62.683,20.630
1.186,-1.180,0.122,577.148,34.180,21.912
1.002,-1.182,0.128,571.594,11.414,25.757
0.842,-1.128,0.124,556.396,4.395,28.442
0.745,-1.092,0.147,534.912,13.367,32.227
0.724,-1.057,0.150,504.395,31.921,36.743
0.723,-1.005,0.169,471.619,56.702,38.940
0.718,-0.953,0.210,440.979,82.703,38.696
0.735,-0.898,0.235,410.461,104.370,36.926
0.795,-0.878,0.299,379.944,120.972,34.851
0.892,-0.909,0.453,350.098,131.409,32.898
0.932,-1.028,0.586,317.261,130.188,29.663
0.730,-1.272,0.913,270.935,132.324,29.602
0.882,-2.032,1.871,205.566,158.813,22.949
1.288,-1.316,2.934,110.046,146.423,-2.563
1.257,-0.615,1.963,-20.020,61.279,-0.305
1.114,-0.412,0.787,-103.882,-9.399,11.719
0.861,-0.274,0.292,-119.385,-23.865,19.958
0.728,-0.126,0.143,-104.065,-13.977,27.771
0.747,-0.064,-0.017,-86.121,-3.662,31.982
0.835,-0.032,-0.178,-69.885,12.329,31.189
0.916,0.035,-0.235,-54.321,35.278,26.001
1.001,0.125,-0.225,-42.236,53.040,20.081
1.072,0.197,-0.230,-34.180,59.326,15.320
1.137,0.236,-0.258,-29.541,57.495,10.986
1.179,0.251,-0.290,-27.039,52.307,6.775
1.198,0.280,-0.311,-25.146,46.021,2.563
1.194,0.289,-0.317,-21.790,37.476,0.061
1.185,0.298,-0.324,-18.921,27.283,-0.977
1.149,0.318,-0.314,-16.357,17.578,-0.366
1.085,0.349,-0.324,-13.977,9.033,2.563
1.012,0.357,-0.335,-11.597,3.479,8.423
0.955,0.348,-0.332,-9.338,3.784,15.259
0.908,0.332,-0.321,-7.019,9.338,20.874
0.883,0.312,-0.302,-5.005,17.639,24.780
0.884,0.293,-0.268,-3.174,25.879,27.039
0.894,0.275,-0.231,-0.977,32.227,27.649
0.917,0.254,-0.188,1.160,35.400,26.978
0.945,0.233,-0.153,2.380,34.119,24.780
0.971,0.219,-0.122,2.686,29.358,21.362
0.985,0.214,-0.102,1.709,20.752,17.395
0.978,0.211,-0.106,-0.488,9.277,13.428
0.953,0.218,-0.115,-3.418,-2.319,9.705
0.930,0.226,-0.119,-6.592,-11.658,6.531
0.897,0.239,-0.127,-10.742,-18.616,3.540
0.865,0.248,-0.141,-14.893,-21.973,1.648
0.844,0.246,-0.161,-19.348,-21.729,0.549
0.831,0.245,-0.178,-23.254,-17.639,-0.122
0.834,0.245,-0.190,-26.062,-10.925,-0.427
0.854,0.254,-0.179,-27.222,-3.662,-0.366
0.895,0.233,-0.149,-26.855,1.953,1.099
0.948,0.202,-0.134,-27.527,2.197,2.686
0.991,0.192,-0.110,-29.785,-1.343,2.808
1.005,0.177,-0.086,-31.982,-7.446,1.831
1.018,0.193,-0.074,-34.424,-14.404,-0.305
1.031,0.199,-0.055,-36.377,-21.057,-1.160
1.034,0.141,-0.045,-38.025,-29.175,-1.404
1.055,0.140,-0.042,-41.687,-38.086,-3.967
1.080,0.115,-0.013,-46.204,-44.983,-5.859
1.118,0.089,-0.002,-53.772,-54.565,-7.263
1.130,0.071,-0.012,-63.965,-65.552,-8.545
1.114,0.065,0.013,-74.280,-74.829,-10.193
1.103,0.071,0.064,-84.290,-81.360,-11.353
1.083,0.079,0.074,-94.604,-86.365,-10.315
1.046,0.079,0.076,-104.370,-88.196,-7.568
1.023,0.076,0.081,-112.793,-86.670,-4.211
1.020,0.081,0.076,-120.239,-83.252,-1.343
1.021,0.085,0.044,-126.892,-79.041,2.930
1.016,0.075,0.027,-131.287,-74.463,7.385
1.034,0.059,0.016,-134.949,-71.106,10.925
1.074,0.039,0.009,-137.878,-71.289,12.817
1.102,0.030,-0.006,-141.418,-75.562,13.123
1.088,0.031,0.004,-145.996,-82.703,13.000
1.071,0.040,0.018,-150.085,-89.539,11.963
1.066,0.048,0.015,-153.625,-94.971,10.376
1.051,0.045,0.036,-158.508,-97.839,10.010
1.038,0.036,0.064,-162.476,-100.037,9.460
1.036,0.022,0.074,-166.199,-102.722,9.583
1.034,0.011,0.086,-170.959,-104.736,11.108
1.029,-0.006,0.132,-176.880,-105.957,14.038
1.057,-0.014,0.208,-182.434,-109.070,17.029
1.112,-0.010,0.271,-186.462,-118.469,19.226
1.133,-0.014,0.315,-188.782,-135.132,20.386
1.106,-0.031,0.329,-190.918,-154.663,22.034
1.022,-0.029,0.315,-192.688,-172.485,23.865
0.902,-0.033,0.315,-192.749,-183.716,24.170
0.805,-0.049,0.339,-193.176,-184.143,23.926
0.722,-0.053,0.342,-197.388,-176.697,22.644
0.713,-0.099,0.429,-204.041,-160.461,18.921
0.640,-0.068,0.340,-211.609,-140.503,9.216
0.684,-0.001,0.374,-221.375,-119.690,0.977
0.671,-0.036,0.270,-230.042,-107.666,-2.258
0.683,-0.031,0.242,-234.558,-93.750,-10.620
0.729,-0.006,0.185,-236.450,-82.031,-20.142
0.786,0.021,0.111,-235.107,-75.317,-27.649
0.828,0.010,0.083,-232.300,-71.106,-31.860
0.826,-0.004,0.052,-230.591,-69.763,-35.828
0.798,0.004,0.012,-230.408,-67.993,-40.161
0.766,0.000,-0.045,-230.835,-62.378,-43.640
0.770,-0.016,-0.083,-231.628,-53.040,-47.241

1.469,-0.278,-1.022,72.754,6.348,18.555
1.529,-0.266,-1.189,97.778,5.432,22.095
1.626,-0.303,-1.312,130.920,8.667,25.940
1.678,-0.310,-1.364,172.668,14.771,28.442
1.666,-0.354,-1.398,219.055,21.606,33.020
1.605,-0.455,-1.470,266.785,26.917,41.321
1.516,-0.504,-1.519,310.547,31.677,51.270
1.413,-0.575,-1.548,350.830,36.560,60.425
1.332,-0.685,-1.547,387.756,42.725,67.383
1.261,-0.757,-1.476,418.518,48.645,72.632
1.185,-0.802,-1.357,444.580,51.880,77.332
1.104,-0.899,-1.246,469.666,50.964,81.299
1.045,-0.977,-1.125,493.469,49.927,80.994
1.031,-1.073,-0.957,516.724,51.453,77.515
1.048,-1.156,-0.775,538.269,51.025,71.777
1.021,-1.130,-0.587,559.937,50.537,62.561
0.946,-1.093,-0.381,583.923,52.185,56.091
0.838,-1.125,-0.162,607.666,55.481,54.138
0.724,-1.237,-0.048,622.375,58.411,52.246
0.646,-1.361,0.007,619.263,66.650,48.218
0.663,-1.403,0.212,602.844,82.581,43.335
0.707,-1.399,0.389,580.688,93.445,41.382
0.705,-1.474,0.461,553.467,92.163,40.527
0.705,-1.556,0.645,519.287,90.576,34.363
0.736,-1.537,0.928,474.182,91.370,22.461
0.829,-1.484,1.183,416.382,88.318,10.132
0.900,-1.234,1.417,348.450,81.055,-3.723
0.959,-1.131,1.660,278.687,69.153,-8.057
1.337,-1.410,2.535,212.891,41.077,-11.658
1.145,-1.715,3.124,128.845,-32.288,-15.015
0.235,-1.670,2.009,1.343,-57.251,-6.165
0.307,-0.515,1.025,-80.505,11.658,0.183
1.023,-0.199,0.885,-93.628,53.711,5.371
1.020,-0.285,0.748,-88.745,57.068,10.864
0.989,-0.072,0.286,-88.501,33.142,12.573
0.823,0.114,-0.012,-78.430,28.625,11.414
0.936,0.190,-0.011,-63.477,43.945,9.766
1.045,0.238,-0.054,-50.049,42.053,7.629
1.172,0.374,-0.171,-35.583,29.724,2.808
1.172,0.235,-0.179,-16.052,20.752,2.747
1.207,0.332,-0.167,-4.333,6.531,-7.935
1.237,0.355,-0.167,3.967,-9.644,-10.193
1.161,0.311,-0.236,6.226,-27.588,-8.728
1.073,0.310,-0.288,3.479,-37.903,-8.911
1.031,0.349,-0.302,-1.404,-38.818,-8.850
0.991,0.375,-0.298,-5.676,-33.997,-4.944
0.963,0.358,-0.296,-7.751,-27.283,1.709
0.941,0.338,-0.283,-8.118,-17.639,7.935
0.920,0.319,-0.274,-7.202,-6.226,13.855
0.917,0.297,-0.240,-3.662,6.226,19.165
0.942,0.272,-0.195,2.625,16.907,22.644
0.948,0.255,-0.158,9.399,23.987,23.499
0.944,0.231,-0.126,16.052,27.954,22.278
0.950,0.223,-0.088,22.339,27.954,19.165
0.948,0.216,-0.052,27.832,24.170,15.442
0.936,0.196,-0.016,31.372,17.761,11.536
0.923,0.176,0.013,32.715,9.583,7.080
0.936,0.163,0.037,31.555,1.709,2.441
0.928,0.156,0.046,26.978,-5.676,-0.549
0.913,0.152,0.052,21.729,-12.024,-2.502
0.905,0.149,0.047,16.479,-15.747,-3.113
0.888,0.158,0.043,10.254,-16.418,-3.174
0.878,0.165,0.051,5.432,-14.038,-2.747
0.885,0.167,0.061,1.526,-10.071,-1.526
0.897,0.171,0.062,-1.892,-5.920,-0.244
0.905,0.178,0.063,-3.540,-2.625,1.038
0.925,0.174,0.067,-3.601,0.183,2.258
0.939,0.166,0.075,-2.747,2.258,2.869
0.953,0.150,0.085,-1.831,3.113,2.197
0.959,0.139,0.092,-1.099,2.136,0.488
0.967,0.129,0.097,-1.221,-0.366,-1.770
0.982,0.129,0.094,-2.625,-3.845,-4.211
0.991,0.134,0.091,-5.676,-7.996,-6.714
0.999,0.137,0.086,-8.972,-12.878,-9.033
1.006,0.133,0.088,-12.390,-17.578,-10.620
1.014,0.131,0.088,-16.235,-21.851,-11.047
1.024,0.125,0.106,-21.057,-24.597,-10.742
1.032,0.117,0.121,-26.367,-26.550,-9.949
1.036,0.110,0.133,-32.593,-27.588,-8.728
1.042,0.099,0.152,-38.635,-28.137,-7.324
1.058,0.081,0.180,-44.617,-27.954,-5.859
1.072,0.070,0.213,-51.086,-27.344,-4.700
1.083,0.058,0.250,-58.350,-27.161,-3.662
1.088,0.046,0.266,-65.674,-28.564,-3.235
1.088,0.033,0.268,-73.120,-31.006,-3.235
1.087,0.027,0.276,-80.200,-34.119,-3.235
1.086,0.019,0.281,-87.097,-37.903,-3.357
1.090,0.010,0.268,-93.994,-42.847,-3.845
1.084,0.008,0.242,-101.563,-48.950,-4.761
1.078,0.015,0.225,-108.643,-54.932,-5.249
1.080,0.026,0.213,-115.723,-60.303,-5.066
1.081,0.033,0.192,-122.498,-65.552,-3.967
1.069,0.032,0.169,-129.578,-69.824,-2.502
1.044,0.035,0.161,-136.963,-71.472,-0.366
1.014,0.043,0.153,-143.250,-69.153,2.197
0.989,0.046,0.148,-148.987,-63.477,5.066
0.973,0.047,0.156,-153.992,-54.749,8.118
0.969,0.045,0.166,-156.433,-44.312,10.803
0.964,0.044,0.172,-158.997,-33.142,13.672
0.944,0.060,0.155,-161.377,-21.423,16.541
1.016,0.056,0.208,-163.208,-9.216,20.447
1.040,0.059,0.207,-165.161,-4.028,24.719
1.066,0.059,0.217,-168.640,-2.869,30.823
1.068,0.053,0.209,-172.607,-5.432,38.025
1.092,0.021,0.228,-175.354,-10.925,44.067
1.128,0.002,0.220,-179.749,-20.569,49.133
1.147,-0.039,0.223,-185.669,-34.241,52.063
1.145,-0.057,0.239,-194.336,-50.659,52.368
1.091,-0.050,0.237,-205.444,-68.115,49.744
1.032,-0.034,0.213,-217.834,-81.787,45.898
0.972,-0.009,0.175,-229.675,-88.745,42.297
0.892,0.015,0.121,-240.295,-88.440,39.429
0.809,0.038,0.049,-248.413,-80.444,37.292
0.750,0.051,-0.009,-253.662,-64.453,35.278
0.705,0.058,-0.077,-257.507,-43.640,32.593
0.698,0.071,-0.102,-259.644,-21.912,28.381
0.728,0.084,-0.114,-258.301,-5.737,21.484
0.798,0.073,-0.130,-256.226,2.014,14.282
0.856,0.069,-0.135,-257.324,1.404,9.094

1.579,-0.140,-1.139,24.170,41.443,-31.799
1.689,-0.120,-1.395,48.157,41.992,-24.292
1.805,-0.042,-1.718,86.243,42.053,-16.174
1.905,0.080,-1.966,140.564,43.457,-8.484
1.980,0.080,-2.120,210.815,50.232,-1.404
2.025,-0.093,-2.168,287.537,60.181,6.470
2.052,-0.333,-2.189,356.201,68.726,17.578
2.055,-0.490,-2.239,406.189,70.618,37.048
2.081,-0.622,-2.144,441.101,62.500,61.340
2.138,-0.710,-1.921,463.745,39.856,86.426
2.139,-0.738,-1.615,481.201,1.953,109.009
2.087,-0.803,-1.271,504.028,-46.509,129.272
1.978,-0.866,-0.952,532.471,-101.379,146.606
1.807,-0.906,-0.713,562.378,-155.518,160.156
1.528,-1.102,-0.484,591.064,-201.538,172.119
1.105,-1.239,-0.394,606.934,-230.042,179.016
0.760,-1.371,-0.461,608.704,-230.286,184.631
0.570,-1.471,-0.362,595.825,-198.486,190.186
0.419,-1.456,-0.216,568.970,-153.809,194.031
0.247,-1.418,-0.167,535.828,-109.009,196.472
0.098,-1.444,-0.146,504.761,-53.406,194.397
0.033,-1.411,-0.021,475.830,10.986,186.890
0.103,-1.387,0.120,446.228,72.754,178.223
0.238,-1.383,0.217,418.640,124.451,168.640
0.395,-1.345,0.322,391.541,162.903,158.691
0.535,-1.272,0.432,363.770,185.120,149.658
0.609,-1.181,0.512,337.830,189.331,141.296
0.633,-1.096,0.571,314.209,182.312,133.911
0.661,-1.027,0.637,289.795,170.532,124.390
0.407,-1.080,0.754,265.442,158.936,113.892
-0.215,-1.284,1.144,232.300,186.523,110.474
-0.286,-1.304,1.390,171.631,265.503,92.834
0.330,-1.277,1.400,101.807,311.584,68.481
1.041,-0.803,1.344,47.302,303.833,52.429
1.430,-0.665,1.349,14.832,252.563,38.879
1.508,-0.576,1.194,-9.888,166.992,33.997
1.422,-0.433,0.996,-34.851,74.158,29.053
1.258,-0.272,0.717,-53.040,1.831,21.973
1.105,-0.142,0.469,-58.655,-39.978,11.414
1.061,-0.010,0.298,-53.589,-58.655,-1.648
1.065,0.138,0.206,-42.969,-65.186,-14.038
1.071,0.245,0.176,-29.968,-65.979,-24.963
1.126,0.360,0.138,-16.663,-67.017,-31.860
1.092,0.255,-0.108,-2.808,-65.674,-32.532
1.007,0.295,-0.030,1.526,-47.241,-36.560
1.055,0.398,-0.043,1.709,-35.156,-38.452
1.114,0.352,-0.089,5.249,-30.701,-31.555
1.112,0.321,-0.087,4.456,-26.672,-23.437
1.077,0.368,-0.063,0.183,-23.132,-16.541
1.067,0.377,-0.057,-3.052,-21.484,-8.240
1.041,0.366,-0.042,-4.944,-19.287,0.610
1.009,0.365,-0.034,-6.653,-17.456,6.836
0.976,0.368,-0.023,-8.118,-14.465,9.521
0.960,0.377,-0.014,-7.874,-10.681,10.742
0.950,0.372,0.005,-5.554,-7.874,11.353
0.942,0.357,0.014,-2.136,-7.751,11.230
0.937,0.338,0.032,1.709,-8.606,10.193
0.934,0.327,0.055,5.859,-10.437,8.606
0.930,0.318,0.075,9.827,-15.015,6.714
0.898,0.309,0.078,12.756,-20.386,4.822
0.854,0.307,0.080,14.954,-22.827,2.930
0.844,0.303,0.093,16.785,-20.630,1.587
0.863,0.297,0.113,17.395,-15.869,1.282
0.880,0.286,0.138,16.663,-11.597,1.465
0.889,0.269,0.161,15.137,-9.277,2.136
0.885,0.250,0.178,12.390,-8.240,3.052
0.876,0.227,0.193,8.423,-6.958,3.784
0.885,0.203,0.201,3.479,-5.432,4.333
0.895,0.189,0.209,-2.319,-4.761,3.967
0.910,0.184,0.228,-6.714,-5.310,3.662
0.924,0.176,0.254,-10.315,-7.263,3.418
0.934,0.167,0.267,-13.428,-10.071,2.930
0.928,0.154,0.278,-16.418,-13.367,2.258
0.926,0.135,0.297,-18.494,-15.869,1.099
0.935,0.111,0.309,-20.081,-17.090,-0.366
0.954,0.083,0.323,-22.339,-18.433,-1.953
0.977,0.058,0.345,-25.757,-20.752,-3.235
0.997,0.039,0.369,-31.921,-23.926,-4.211
1.006,0.018,0.391,-41.016,-27.771,-5.066
1.011,-0.002,0.422,-54.382,-31.433,-5.310
1.011,-0.016,0.452,-71.167,-34.973,-6.470
1.006,-0.024,0.463,-88.745,-39.490,-8.240
0.994,-0.031,0.459,-104.980,-45.166,-10.376
0.974,-0.048,0.433,-119.324,-51.392,-12.390
0.947,-0.061,0.394,-131.287,-56.213,-14.465
0.921,-0.059,0.362,-140.320,-57.007,-16.296
0.901,-0.053,0.342,-147.461,-54.077,-17.334
0.895,-0.052,0.327,-154.114,-48.340,-16.663
0.903,-0.063,0.333,-161.255,-40.222,-14.404
0.923,-0.071,0.306,-168.945,-32.593,-10.864
0.939,-0.090,0.279,-177.917,-27.100,-6.714
0.960,-0.132,0.293,-190.063,-23.315,-3.235
0.999,-0.170,0.324,-206.360,-22.949,-1.770
1.027,-0.181,0.349,-224.976,-27.954,-2.319
1.030,-0.172,0.345,-242.554,-38.574,-4.211
1.008,-0.167,0.318,-255.737,-53.589,-8.057
0.971,-0.165,0.298,-265.442,-68.726,-12.695
0.928,-0.150,0.267,-271.545,-82.031,-17.151
0.892,-0.123,0.227,-272.949,-93.079,-21.606
0.873,-0.104,0.215,-269.470,-101.563,-25.085
0.874,-0.089,0.215,-264.221,-109.253,-27.283
0.886,-0.080,0.201,-257.446,-119.812,-28.748
0.895,-0.089,0.168,-251.343,-134.216,-31.860
0.882,-0.127,0.140,-248.962,-148.804,-36.926
0.837,-0.146,0.112,-253.418,-159.363,-45.532
0.807,-0.143,0.094,-261.047,-164.062,-55.664
0.804,-0.140,0.104,-270.020,-164.062,-65.979
0.821,-0.144,0.104,-278.198,-164.307,-76.294
0.841,-0.151,0.064,-285.095,-165.405,-87.158
0.830,-0.148,-0.005,-289.978,-163.025,-99.487
0.793,-0.115,-0.072,-290.771,-152.893,-112.183
0.752,-0.068,-0.115,-286.987,-133.972,-121.460
0.724,-0.015,-0.108,-280.457,-109.009,-124.878
0.722,0.052,-0.091,-271.667,-81.787,-121.582
0.765,0.108,-0.069,-260.498,-55.969,-111.633
0.791,0.032,-0.075,-248.474,-34.668,-98.083
0.792,0.039,-0.072,-240.295,-19.165,-90.759
0.769,0.097,-0.051,-233.643,-8.423,-84.473
0.798,-0.030,-0.069,-225.525,-1.770,-75.623

1.445,-0.478,-0.987,156.921,37.415,9.583
1.518,-0.541,-1.161,173.950,35.278,16.357
1.612,-0.611,-1.327,194.397,29.358,26.001
1.688,-0.661,-1.452,218.628,19.592,35.950
1.740,-0.667,-1.459,244.690,8.728,44.678
1.749,-0.687,-1.419,273.926,-3.357,52.002
1.688,-0.772,-1.395,306.580,-15.564,58.838
1.576,-0.809,-1.413,338.318,-25.879,65.125
1.459,-0.802,-1.436,369.080,-30.823,71.228
1.352,-0.793,-1.443,404.724,-24.719,76.721
1.268,-0.763,-1.434,447.937,-9.155,82.275
1.237,-0.820,-1.333,496.033,8.850,90.881
1.224,-1.012,-1.190,544.556,27.527,101.013
1.215,-1.224,-1.091,586.121,45.715,108.643
1.181,-1.388,-0.954,614.258,55.115,113.281
1.086,-1.493,-0.816,628.113,54.749,113.586
0.939,-1.503,-0.666,632.263,56.702,105.469
0.806,-1.513,-0.457,629.028,67.871,90.393
0.800,-1.561,-0.291,623.352,81.299,72.449
0.830,-1.603,0.012,612.915,85.815,55.725
0.840,-1.563,0.299,595.276,80.139,40.405
0.805,-1.517,0.531,572.266,64.941,29.297
0.692,-1.457,0.720,539.307,46.753,20.935
0.606,-1.372,0.839,495.239,31.799,13.550
0.556,-1.259,0.889,441.345,20.325,8.789
0.532,-1.131,0.908,383.484,14.893,5.005
0.544,-0.988,0.917,327.026,15.930,1.282
0.560,-0.874,0.925,276.245,18.311,-1.099
0.586,-0.819,0.973,232.971,18.250,-1.465
0.628,-0.781,1.009,193.298,13.000,-1.709
0.791,-0.800,1.197,155.029,5.615,-2.747
1.064,-0.833,1.576,118.958,-14.404,-6.287
0.961,-0.901,1.337,71.655,-57.190,-9.583
0.657,-0.688,0.911,21.057,-70.923,-11.475
0.649,-0.356,0.719,-14.099,-53.223,-7.446
0.730,-0.224,0.548,-28.748,-30.273,-6.165
0.819,-0.134,0.411,-34.119,-10.559,-9.949
0.901,-0.048,0.292,-35.461,3.845,-12.329
1.017,0.016,0.186,-32.837,10.864,-14.832
1.069,0.073,0.069,-28.259,10.193,-18.738
1.099,0.222,0.003,-20.264,9.705,-21.179
1.144,0.179,0.019,-7.874,6.592,-15.503
1.134,0.169,-0.034,-0.671,-8.667,-12.573
1.091,0.260,-0.133,1.465,-22.522,-13.916
1.054,0.248,-0.095,2.930,-26.733,-10.803
1.027,0.251,-0.164,1.953,-31.616,-7.202
0.964,0.246,-0.208,0.793,-30.151,-6.104
0.960,0.246,-0.191,-0.977,-20.813,-6.287
0.981,0.268,-0.144,-0.977,-11.353,-5.615
1.000,0.222,-0.128,0.183,-7.385,-2.808
1.014,0.197,-0.105,1.526,-5.737,-0.366
1.004,0.197,-0.079,4.272,-5.249,2.686
0.977,0.177,-0.044,8.606,-5.066,6.714
0.954,0.150,-0.033,13.062,-4.456,8.972
0.934,0.131,-0.027,16.174,-0.977,8.667
0.935,0.118,-0.008,18.372,4.272,7.568
0.956,0.116,0.026,19.836,8.301,6.836
0.965,0.104,0.066,20.447,9.888,6.165
0.962,0.088,0.094,18.982,9.583,5.798
0.951,0.077,0.119,15.869,7.935,5.981
0.952,0.058,0.146,13.000,6.287,6.531
0.950,0.033,0.162,9.583,4.944,6.226
0.960,0.024,0.176,5.493,4.578,5.188
0.972,0.021,0.183,1.465,4.272,4.089
0.992,0.024,0.193,-2.747,3.479,3.479
1.004,0.019,0.199,-6.348,1.282,3.113
1.018,0.017,0.200,-10.010,-1.404,2.930
1.031,0.020,0.193,-13.550,-4.333,2.930
1.043,0.026,0.195,-17.273,-6.653,3.662
1.049,0.026,0.199,-20.508,-7.996,5.188
1.050,0.019,0.202,-24.536,-8.118,6.836
1.056,0.011,0.213,-29.175,-7.568,8.423
1.067,-0.002,0.231,-35.034,-7.019,10.132
1.071,-0.005,0.243,-42.725,-7.019,11.719
1.069,0.007,0.243,-51.758,-7.446,13.428
1.061,0.018,0.239,-60.181,-8.362,15.747
1.046,0.016,0.228,-68.115,-9.521,18.677
1.037,0.019,0.211,-75.500,-11.597,20.020
1.047,0.032,0.198,-81.970,-13.062,20.325
1.047,0.033,0.172,-86.792,-15.198,20.630
1.044,0.035,0.167,-90.271,-17.639,19.897
1.046,0.040,0.174,-92.651,-19.836,18.066
1.058,0.039,0.183,-95.398,-22.705,15.564
1.064,0.021,0.179,-98.938,-26.794,12.817
1.060,0.008,0.177,-103.455,-31.433,9.705
1.057,-0.000,0.177,-108.582,-35.889,6.592
1.047,0.001,0.170,-114.197,-40.161,4.211
1.041,0.002,0.156,-118.042,-43.884,3.296
1.042,0.003,0.151,-123.108,-46.448,4.150
1.042,0.003,0.159,-129.028,-46.692,5.981
1.038,0.002,0.159,-135.010,-45.044,8.972
1.037,-0.011,0.170,-142.700,-41.687,13.367
1.037,-0.025,0.206,-153.748,-36.865,17.883
1.036,-0.029,0.220,-167.725,-31.860,22.095
1.031,-0.024,0.226,-183.838,-27.832,25.757
1.035,-0.025,0.240,-199.646,-24.902,28.381
1.056,-0.031,0.247,-214.844,-25.146,30.212
1.059,-0.035,0.227,-228.760,-28.748,31.494
1.045,-0.039,0.178,-239.868,-33.569,32.410
1.029,-0.040,0.167,-250.427,-37.109,33.630
1.024,-0.010,0.172,-260.071,-40.344,34.485
1.012,0.036,0.166,-264.893,-45.837,34.973
0.995,0.084,0.148,-262.512,-53.467,35.034
0.978,0.118,0.121,-254.211,-61.279,34.607
0.947,0.129,0.093,-241.638,-69.031,34.058
0.895,0.130,0.051,-229.065,-74.951,34.241
0.846,0.127,0.052,-217.529,-77.026,34.424
0.802,0.127,0.062,-207.703,-76.416,33.203
0.757,0.103,0.024,-199.280,-74.280,30.396
0.715,0.063,-0.027,-195.740,-68.665,25.879
0.682,0.051,-0.047,-196.106,-57.068,19.287
0.667,0.061,-0.052,-198.914,-42.786,11.963
0.680,0.059,-0.056,-202.881,-29.175,4.578
0.703,0.071,-0.033,-209.106,-17.700,-1.892
0.728,0.098,-0.020,-214.783,-10.132,-6.897
0.750,0.104,-0.032,-218.445,-7.141,-10.742
0.767,0.114,-0.058,-220.398,-7.385,-12.878
0.786,0.140,-0.057,-220.764,-10.071,-12.573
0.803,0.154,-0.059,-219.299,-17.212,-10.010

1.546,-0.096,-1.356,157.898,-9.460,8.545
1.596,-0.138,-1.507,195.679,-12.939,16.296
1.616,-0.156,-1.536,235.352,-13.916,24.475
1.618,-0.178,-1.533,276.489,-12.756,32.959
1.588,-0.264,-1.592,321.045,-11.536,41.199
1.526,-0.421,-1.646,365.295,-6.226,47.119
1.450,-0.544,-1.633,402.527,9.033,48.767
1.354,-0.636,-1.609,431.885,32.104,47.546
1.296,-0.702,-1.594,456.299,57.617,46.326
1.269,-0.741,-1.503,475.647,82.092,46.387
1.228,-0.811,-1.401,490.845,100.769,47.668
1.160,-0.880,-1.286,502.808,112.122,49.438
1.100,-0.930,-1.138,509.644,120.667,50.720
1.040,-0.968,-0.995,515.259,125.427,51.331
0.995,-0.992,-0.824,520.691,125.977,51.208
0.977,-1.052,-0.632,527.283,123.108,48.279
0.953,-1.125,-0.467,532.715,116.150,41.748
0.916,-1.182,-0.309,534.546,105.103,32.776
0.864,-1.236,-0.191,530.518,92.651,24.109
0.825,-1.285,-0.054,520.691,80.078,15.686
0.829,-1.274,0.116,503.784,69.946,7.629
0.830,-1.226,0.254,482.300,58.655,2.625
0.787,-1.172,0.338,456.299,45.715,-0.549
0.729,-1.115,0.422,425.110,34.058,-3.174
0.663,-1.046,0.480,389.709,27.283,-5.249
0.657,-0.987,0.520,352.661,26.550,-7.996
0.684,-0.919,0.510,314.697,30.212,-9.888
0.714,-0.811,0.503,278.931,37.415,-12.085
0.738,-0.719,0.497,249.084,44.556,-12.085
0.784,-0.668,0.491,223.450,49.316,-11.414
0.864,-0.625,0.501,199.341,51.208,-12.695
0.891,-0.561,0.487,177.185,49.011,-16.052
0.893,-0.536,0.460,157.166,47.180,-18.555
0.893,-0.540,0.483,138.000,48.340,-23.010
0.851,-0.545,0.614,119.507,55.664,-26.978
1.024,-0.657,0.870,98.877,70.374,-27.039
1.390,-0.647,1.108,69.946,72.632,-24.536
1.540,-0.477,1.036,34.058,44.312,-15.747
1.365,-0.349,0.697,3.845,7.446,-3.052
1.173,-0.236,0.441,-11.963,-7.202,4.456
1.097,-0.112,0.252,-17.700,-10.620,5.981
1.080,-0.054,0.133,-17.029,-8.911,4.883
1.047,-0.025,0.032,-15.076,-7.385,0.488
0.973,0.117,-0.147,-12.573,-4.089,-6.348
1.037,0.212,-0.140,-5.127,11.597,-9.155
1.250,0.293,-0.031,0.732,16.113,-6.165
1.116,0.209,-0.123,0.244,-6.592,-1.953
1.077,0.239,-0.254,-3.601,-26.917,-3.906
0.995,0.310,-0.258,-4.578,-30.762,-4.822
0.966,0.320,-0.256,-3.540,-26.489,-2.197
0.990,0.287,-0.181,-2.991,-26.550,1.404
0.989,0.331,-0.224,-2.869,-31.799,2.869
0.927,0.255,-0.199,-0.854,-28.442,6.714
0.902,0.265,-0.223,-1.709,-23.499,7.324
0.867,0.298,-0.191,-1.404,-14.709,7.324
0.832,0.344,-0.224,2.136,-7.019,10.864
0.834,0.312,-0.192,7.263,3.418,16.418
0.837,0.324,-0.201,10.803,10.742,19.043
0.847,0.306,-0.171,15.076,17.517,19.775
0.862,0.279,-0.151,18.311,21.240,19.287
0.886,0.271,-0.118,20.325,20.813,16.174
0.891,0.251,-0.104,22.400,17.578,12.634
0.882,0.230,-0.091,23.743,12.512,8.850
0.885,0.204,-0.069,24.292,8.057,4.639
0.896,0.189,-0.052,23.987,4.700,-0.610
0.913,0.177,-0.039,22.278,2.747,-5.127
0.941,0.166,-0.011,19.836,2.319,-8.972
0.971,0.163,0.014,17.273,2.625,-10.559
1.000,0.148,0.044,15.015,3.296,-9.033
1.025,0.130,0.066,12.024,3.967,-5.615
1.044,0.107,0.085,8.362,4.089,-1.953
1.050,0.080,0.089,4.517,3.601,2.136
1.037,0.065,0.095,1.587,3.418,5.066
1.036,0.065,0.097,-1.099,4.150,6.470
1.044,0.064,0.098,-3.723,4.578,5.859
1.056,0.072,0.082,-5.920,2.869,4.089
1.065,0.090,0.070,-8.545,-0.427,2.197
1.071,0.104,0.062,-11.108,-4.761,0.610
1.069,0.113,0.057,-13.550,-10.071,-0.977
1.065,0.122,0.046,-16.968,-15.564,-2.563
1.053,0.130,0.046,-21.179,-20.691,-3.723
1.048,0.136,0.058,-25.085,-24.597,-5.005
1.046,0.130,0.063,-29.602,-28.259,-6.042
1.045,0.120,0.067,-35.217,-31.250,-6.897
1.036,0.120,0.085,-42.358,-33.630,-7.080
1.042,0.116,0.113,-50.354,-35.522,-6.592
1.054,0.101,0.140,-59.570,-37.659,-5.554
1.058,0.085,0.153,-68.848,-40.649,-4.761
1.068,0.065,0.169,-79.529,-44.006,-4.456
1.077,0.054,0.183,-90.393,-47.607,-5.066
1.085,0.041,0.183,-100.830,-52.124,-6.470
1.087,0.030,0.182,-111.633,-57.373,-8.362
1.069,0.023,0.183,-123.169,-62.317,-10.681
1.051,0.019,0.184,-134.277,-66.895,-12.878
1.040,0.017,0.176,-145.874,-70.435,-14.038
1.019,0.013,0.146,-157.593,-73.853,-14.282
0.988,0.014,0.111,-167.908,-74.951,-14.160
0.973,0.013,0.077,-175.476,-73.364,-13.855
0.984,0.014,0.069,-181.335,-69.092,-12.878
0.996,0.011,0.081,-187.256,-62.256,-10.986
1.001,0.009,0.102,-193.542,-54.077,-8.118
1.018,0.005,0.142,-199.219,-46.570,-4.883
1.046,0.023,0.159,-204.834,-41.382,-1.160
1.056,0.040,0.126,-209.106,-41.016,4.639
1.056,0.017,0.082,-210.327,-43.152,11.108
1.049,0.010,0.062,-210.571,-45.227,17.395
1.038,0.019,0.067,-211.365,-46.875,22.339
1.026,0.032,0.079,-210.999,-48.157,25.391
1.010,0.045,0.057,-208.801,-50.598,26.306
0.980,0.061,0.046,-204.834,-51.941,25.146
0.961,0.079,0.074,-199.707,-51.086,22.217
0.965,0.094,0.101,-193.604,-50.659,19.226
0.950,0.098,0.100,-187.256,-51.392,17.395
0.936,0.094,0.107,-181.519,-52.185,15.930
0.935,0.077,0.099,-177.124,-51.880,16.418
0.898,0.061,0.073,-175.598,-49.805,19.958
0.863,0.033,0.078,-178.284,-43.518,25.391
0.854,0.024,0.061,-184.753,-34.912,31.555
0.854,0.020,0.086,-193.848,-26.489,36.438

1.457,-0.074,-1.384,53.284,25.269,-6.714
1.546,-0.009,-1.586,83.008,20.020,-4.761
1.592,-0.002,-1.765,125.549,16.113,-2.258
1.592,-0.111,-1.924,177.917,13.855,2.258
1.598,-0.296,-2.054,232.300,13.977,7.385
1.596,-0.480,-2.143,283.447,18.860,10.803
1.527,-0.591,-2.135,329.529,31.555,12.634
1.435,-0.640,-2.038,369.446,49.988,13.916
1.361,-0.687,-1.929,405.518,69.580,16.052
1.287,-0.722,-1.787,440.063,89.722,18.311
1.193,-0.746,-1.646,472.473,109.253,19.165
1.126,-0.804,-1.510,503.418,126.526,18.677
1.091,-0.933,-1.390,533.875,140.991,15.503
1.014,-1.045,-1.266,558.594,154.358,10.803
0.937,-1.135,-1.109,573.547,167.664,6.775
0.918,-1.227,-0.972,581.421,178.345,3.540
0.983,-1.286,-0.785,583.557,182.922,-1.587
1.045,-1.306,-0.560,584.412,179.321,-9.583
1.079,-1.353,-0.372,588.318,165.161,-19.897
1.095,-1.273,-0.187,590.515,142.151,-29.602
1.166,-1.832,0.276,576.538,101.929,-40.100
1.054,-0.928,-0.206,537.720,43.762,-64.087
0.887,-1.625,0.504,538.025,61.340,-37.964
0.901,-1.049,0.193,491.333,16.724,-54.504
0.781,-1.112,0.474,465.759,9.033,-45.776
0.771,-1.048,0.297,433.105,-0.122,-33.997
0.679,-1.118,0.521,395.142,5.981,-29.053
0.673,-0.987,0.570,352.783,11.230,-33.813
0.642,-1.013,0.562,308.228,19.775,-30.457
0.512,-1.516,1.058,257.385,56.335,-16.174
0.955,-2.329,2.599,179.138,112.915,-15.015
1.413,-1.345,2.759,54.138,93.811,-29.419
1.443,-0.667,1.285,-58.777,22.400,-21.362
1.238,-0.505,0.601,-94.849,-8.179,-7.996
1.107,-0.444,0.221,-86.487,-33.386,2.686
1.041,-0.319,0.051,-64.209,-43.823,-5.554
1.020,-0.089,-0.111,-43.091,-41.931,-18.250
1.068,0.170,-0.285,-21.118,-32.532,-23.560
1.147,0.178,-0.332,1.587,-18.738,-15.930
1.173,0.162,-0.491,18.066,-21.301,-10.559
1.095,0.203,-0.531,30.640,-20.569,-10.376
1.097,0.220,-0.408,37.537,-15.625,-10.803
1.051,0.270,-0.393,35.828,-18.982,-13.550
1.031,0.483,-0.252,31.006,-14.282,-13.733
1.021,0.329,-0.223,25.208,-10.071,-3.052
0.993,0.373,-0.258,10.132,-16.296,-9.583
0.966,0.400,-0.222,0.061,-14.526,-14.526
0.945,0.357,-0.232,-6.348,-14.771,-14.404
0.933,0.364,-0.218,-10.742,-17.395,-15.259
0.906,0.384,-0.240,-11.963,-20.935,-13.611
0.862,0.350,-0.250,-9.705,-19.836,-8.850
0.817,0.320,-0.247,-5.981,-14.893,-5.737
0.789,0.319,-0.246,-2.075,-8.667,-4.822
0.779,0.279,-0.236,3.052,0.427,-3.601
0.789,0.240,-0.184,8.423,12.817,-3.357
0.823,0.207,-0.102,12.390,23.315,-2.808
0.860,0.169,-0.010,12.939,28.015,-1.343
0.885,0.135,0.060,9.949,27.527,0.305
0.893,0.121,0.101,3.113,24.292,0.793
0.925,0.132,0.103,-5.371,18.738,1.099
0.925,0.146,0.043,-12.512,11.475,1.709
0.933,0.170,-0.010,-16.724,8.850,1.160
0.950,0.197,-0.052,-18.188,9.399,0.183
0.982,0.230,-0.068,-18.005,9.949,-0.366
0.993,0.244,-0.089,-16.724,8.545,0.000
0.991,0.252,-0.096,-14.648,7.019,0.122
0.990,0.254,-0.085,-12.085,5.920,-0.244
0.991,0.249,-0.079,-10.620,4.272,-0.488
0.990,0.245,-0.082,-9.644,1.953,-0.916
0.989,0.237,-0.083,-9.094,0.488,-1.404
0.993,0.225,-0.071,-8.423,0.061,-2.014
1.004,0.209,-0.058,-8.850,-0.122,-2.502
1.021,0.193,-0.048,-9.888,-0.366,-2.808
1.047,0.178,-0.040,-11.841,-0.366,-2.563
1.065,0.165,-0.031,-14.526,-1.465,-2.380
1.090,0.149,-0.018,-17.944,-4.272,-2.258
1.106,0.130,0.002,-21.484,-7.629,-1.953
1.115,0.101,0.022,-25.879,-12.024,-2.319
1.128,0.072,0.040,-31.311,-18.005,-2.808
1.132,0.042,0.067,-38.086,-25.085,-3.052
1.118,0.017,0.088,-45.898,-33.813,-3.479
1.094,-0.005,0.103,-55.298,-43.030,-4.272
1.080,-0.037,0.127,-66.345,-52.124,-5.798
1.083,-0.069,0.152,-78.430,-61.035,-7.812
1.093,-0.105,0.160,-91.858,-70.679,-10.498
1.096,-0.124,0.166,-106.018,-80.261,-13.611
1.086,-0.129,0.174,-117.981,-88.501,-15.930
1.082,-0.139,0.195,-127.869,-93.994,-15.991
1.075,-0.151,0.215,-138.000,-96.680,-14.221
1.054,-0.170,0.221,-148.926,-98.083,-11.047
1.028,-0.182,0.222,-159.668,-97.229,-7.507
1.005,-0.189,0.219,-169.739,-94.604,-3.845
0.994,-0.197,0.207,-178.833,-90.881,-0.732
0.987,-0.214,0.202,-187.988,-86.487,1.892
0.995,-0.224,0.194,-195.618,-82.703,2.258
1.005,-0.229,0.190,-202.759,-81.360,0.977
1.007,-0.239,0.184,-210.083,-81.787,-0.854
1.012,-0.245,0.175,-216.187,-83.862,-2.686
1.013,-0.245,0.158,-222.290,-87.036,-3.174
1.005,-0.255,0.151,-228.271,-89.844,-3.296
0.987,-0.263,0.144,-233.398,-91.248,-3.235
0.963,-0.262,0.110,-237.854,-92.041,-2.991
0.932,-0.266,0.090,-244.568,-90.393,-2.747
0.894,-0.261,0.077,-254.028,-84.900,-2.686
0.844,-0.246,0.066,-265.625,-75.317,-3.052
0.816,-0.220,0.063,-277.222,-61.768,-3.967
0.816,-0.191,0.068,-286.743,-47.729,-5.493
0.827,-0.158,0.066,-292.480,-36.316,-7.019
0.634,-0.128,-0.111,-293.579,-28.870,-8.301
0.840,-0.055,0.034,-288.391,-13.672,-6.714
0.967,-0.107,0.035,-279.297,-6.042,-3.967
0.921,-0.070,-0.045,-268.616,-9.521,-9.399
0.896,-0.045,-0.084,-255.432,-11.230,-12.146
0.902,-0.025,-0.126,-244.812,-13.367,-12.268
0.964,-0.051,-0.098,-236.877,-11.169,-10.986
0.969,-0.042,-0.117,-232.544,-12.268,-12.512
0.979,-0.039,-0.110,-231.506,-16.663,-14.160
1.004,-0.036,-0.115,-234.253,-21.851,-14.221
1.054,-0.062,-0.130,-238.220,-29.358,-13.794

1.750,-0.283,-0.747,-8.301,57.739,-41.077
1.801,-0.297,-0.806,7.385,48.523,-32.715
1.811,-0.283,-0.871,22.461,32.471,-24.231
1.798,-0.272,-0.976,39.734,12.817,-15.015
1.751,-0.266,-1.079,60.120,-5.005,-5.554
1.667,-0.262,-1.189,82.520,-17.151,2.991
1.573,-0.280,-1.349,107.788,-22.156,12.024
1.460,-0.308,-1.531,137.146,-21.118,20.752
1.350,-0.370,-1.646,170.044,-13.184,29.053
1.297,-0.440,-1.669,204.285,0.793,33.997
1.278,-0.531,-1.608,236.694,17.395,32.898
1.244,-0.518,-1.548,266.846,33.997,27.039
1.253,-0.577,-1.462,296.204,49.866,18.616
1.285,-0.618,-1.399,323.975,61.462,11.536
1.292,-0.638,-1.340,348.206,67.383,7.996
1.311,-0.677,-1.307,371.948,69.214,7.202
1.303,-0.668,-1.252,394.287,69.580,8.606
1.250,-0.640,-1.187,416.931,67.505,12.512
1.175,-0.641,-1.144,440.247,62.012,20.020
1.109,-0.639,-1.084,463.196,55.237,29.663
1.044,-0.713,-1.029,487.671,48.035,38.574
0.977,-0.840,-0.965,509.277,41.687,44.739
0.935,-0.935,-0.817,525.696,36.316,47.424
0.902,-0.995,-0.607,535.583,28.564,47.607
0.890,-1.043,-0.403,540.039,17.700,46.204
0.875,-1.086,-0.244,540.283,4.883,44.861
0.799,-1.090,-0.091,532.898,-7.751,44.983
0.725,-1.109,0.062,515.869,-17.212,48.645
0.621,-1.339,0.257,490.356,-21.912,55.359
0.561,-1.052,0.284,447.815,-26.489,48.035
0.500,-1.168,0.665,401.917,-14.160,45.654
0.514,-1.048,0.837,359.497,-9.521,38.513
0.641,-0.823,1.002,321.960,-5.371,27.161
0.637,-0.900,1.076,287.109,-7.324,20.813
0.522,-0.953,1.243,247.131,-12.878,14.832
-0.053,-1.658,1.990,183.228,1.770,18.555
-0.155,-1.245,2.222,67.200,70.557,6.104
0.513,-0.687,2.061,-23.254,132.324,-5.493
0.983,-0.390,1.389,-57.739,146.545,-0.549
1.113,-0.338,0.808,-46.143,128.418,4.272
1.086,-0.159,0.383,-23.865,99.915,3.784
1.098,-0.022,0.244,-0.793,79.468,1.160
1.207,0.048,0.140,26.367,61.829,-4.089
1.274,0.003,0.042,47.913,42.542,-11.658
1.381,-0.024,-0.120,54.749,19.043,-21.606
1.477,0.057,-0.208,46.082,-3.418,-31.189
1.413,0.157,-0.269,34.912,-25.208,-38.147
1.308,0.264,-0.327,26.794,-43.335,-42.114
1.281,0.386,-0.264,23.743,-54.260,-41.565
