aX,aY,aZ,gX,gY,gZ
2.115,-0.313,-0.369,202.759,225.647,56.396
2.155,-0.402,-0.403,241.516,231.140,76.050
2.106,-0.479,-0.406,279.419,228.882,94.910
2.042,-0.537,-0.389,314.148,219.421,112.610
1.967,-0.593,-0.348,347.900,202.881,126.099
1.879,-0.668,-0.292,380.005,180.237,135.620
1.766,-0.727,-0.237,408.386,155.457,141.174
1.620,-0.802,-0.208,433.716,131.165,143.066
1.478,-0.869,-0.178,452.332,110.901,143.250
1.309,-0.954,-0.152,463.074,97.290,142.761
1.147,-1.011,-0.162,464.783,91.187,143.127
0.986,-0.968,-0.089,459.961,93.506,144.165
0.871,-0.951,-0.006,454.041,99.670,146.851
0.815,-0.937,0.039,446.594,107.239,147.583
0.744,-0.897,0.120,438.110,118.896,143.677
0.663,-0.885,0.182,430.054,130.066,136.719
0.599,-0.855,0.210,422.058,138.062,126.831
0.552,-0.846,0.240,414.490,145.752,115.845
0.521,-0.849,0.280,405.884,153.076,103.699
0.454,-0.786,0.363,398.560,158.936,90.210
0.329,-0.746,0.426,396.179,165.344,76.965
0.617,-0.805,0.575,394.592,170.044,62.378
0.595,-0.783,0.713,390.259,158.081,42.664
0.862,-0.752,0.772,381.958,132.446,26.733
0.777,-0.775,0.829,369.324,97.778,11.414
0.666,-0.826,0.939,352.661,64.697,-3.906
0.518,-0.837,0.878,321.167,27.527,-14.954
0.536,-0.612,0.923,281.006,19.836,-22.644
0.804,-1.013,1.271,240.540,15.442,-27.527
0.815,-1.456,2.009,180.420,-4.822,-25.269
0.390,-1.029,2.186,73.730,-27.039,-14.709
0.440,-0.539,1.405,-33.813,-8.484,-14.587
0.757,-0.358,0.762,-81.116,18.005,-14.587
1.027,-0.133,0.536,-83.008,21.729,-10.437
1.030,-0.025,0.403,-65.857,6.470,-4.700
0.966,-0.053,0.316,-44.861,-8.301,-1.465
0.979,-0.074,0.255,-31.860,-16.602,-2.869
0.978,-0.046,0.225,-29.053,-17.761,-8.179
0.968,-0.047,0.179,-31.738,-16.541,-13.184
1.004,-0.031,0.144,-38.147,-13.550,-17.822
1.068,-0.038,0.149,-47.424,-10.925,-19.043
1.060,-0.066,0.133,-59.570,-12.390,-17.151
1.092,-0.089,0.136,-73.975,-15.930,-15.442
1.113,-0.091,0.155,-88.928,-21.179,-14.709
1.103,-0.099,0.171,-101.990,-27.710,-13.733
1.078,-0.111,0.191,-112.915,-33.569,-12.756
1.036,-0.118,0.204,-122.009,-37.231,-13.062
1.026,-0.104,0.239,-129.700,-37.048,-14.526
0.983,-0.121,0.227,-134.949,-35.645,-14.832
0.973,-0.152,0.209,-139.465,-31.921,-15.625
0.971,-0.145,0.212,-144.165,-25.391,-16.357
0.984,-0.146,0.229,-148.621,-18.372,-15.137
0.998,-0.160,0.231,-153.503,-13.123,-12.512
1.010,-0.180,0.223,-160.034,-10.498,-10.315
1.014,-0.193,0.204,-168.091,-9.094,-9.216
1.013,-0.203,0.178,-178.284,-8.240,-8.484
1.013,-0.208,0.176,-189.819,-7.996,-8.057
1.005,-0.205,0.175,-201.965,-8.972,-7.324
0.989,-0.208,0.154,-214.294,-11.169,-6.531
0.961,-0.214,0.124,-225.708,-12.817,-6.226
0.908,-0.199,0.088,-234.436,-12.207,-6.226
0.928,-0.181,0.108,-240.906,-9.338,-5.310
0.942,-0.137,0.079,-244.812,-7.812,-3.723
0.987,-0.153,0.092,-245.422,-5.676,-0.183
0.713,-0.147,-0.055,-244.995,-4.456,1.831
0.968,-0.154,0.120,-246.399,6.104,4.639
1.094,-0.164,0.021,-248.962,6.958,7.507
0.921,-0.196,0.011,-249.084,2.014,8.362
1.166,-0.211,0.073,-253.479,-5.554,9.155
1.075,-0.150,0.028,-256.592,-23.193,6.042
0.979,-0.137,0.037,-256.409,-37.354,8.057
1.050,-0.107,-0.000,-255.798,-51.636,11.475
0.958,-0.065,0.022,-250.549,-60.364,13.611
0.907,-0.058,-0.021,-243.530,-68.665,17.456
0.928,-0.059,0.013,-235.840,-71.472,19.409
0.933,-0.090,0.001,-228.333,-75.317,18.921
0.928,-0.129,-0.030,-223.511,-78.369,15.930
0.941,-0.157,-0.061,-221.741,-80.200,10.254
0.946,-0.169,-0.088,-223.389,-80.383,2.991
1.005,-0.149,-0.066,-227.539,-78.613,-3.784
0.969,-0.132,-0.103,-231.262,-79.285,-8.972
0.951,-0.113,-0.114,-235.107,-78.003,-11.475
0.978,-0.073,-0.116,-238.342,-74.890,-11.475
0.993,-0.024,-0.126,-237.610,-71.716,-11.353
0.994,0.007,-0.135,-232.849,-66.895,-11.108
1.014,0.030,-0.151,-224.915,-62.744,-10.254
1.048,0.042,-0.161,-215.393,-58.960,-10.132
1.050,0.071,-0.156,-204.407,-55.420,-11.292
1.030,0.096,-0.157,-192.200,-52.734,-12.024
1.059,0.103,-0.115,-180.603,-51.392,-12.085
1.091,0.086,-0.099,-170.227,-52.734,-12.756
1.062,0.057,-0.122,-162.170,-55.298,-13.306
1.006,0.025,-0.151,-156.494,-54.321,-13.367
0.980,0.017,-0.164,-153.259,-50.110,-13.367
0.945,0.024,-0.180,-151.245,-44.006,-12.512
0.961,0.036,-0.153,-149.475,-36.072,-11.047
0.984,0.064,-0.136,-148.071,-29.419,-9.277
0.969,0.050,-0.168,-145.142,-25.208,-8.423
0.943,0.044,-0.199,-142.456,-19.409,-9.949
0.935,0.083,-0.204,-139.160,-10.986,-14.099
0.949,0.121,-0.197,-133.301,-2.014,-17.456
0.961,0.151,-0.195,-124.634,6.042,-20.142
0.972,0.166,-0.187,-114.197,12.817,-22.156
0.982,0.163,-0.185,-102.844,17.578,-23.254
0.981,0.174,-0.180,-92.102,21.057,-23.621
0.973,0.181,-0.179,-81.665,23.437,-23.376
1.058,0.184,-0.093,-71.289,24.292,-22.888
1.053,0.151,-0.158,-61.401,18.921,-21.423
1.083,0.091,-0.122,-52.734,16.174,-20.203
1.111,0.092,-0.110,-47.668,10.864,-21.240
1.111,0.083,-0.100,-42.114,3.174,-21.057
1.050,0.083,-0.117,-38.818,-2.380,-19.104
1.094,0.089,-0.073,-35.889,-4.883,-16.174
1.078,0.097,-0.091,-32.288,-8.362,-13.855
1.049,0.099,-0.083,-28.809,-9.705,-10.986
1.055,0.098,-0.084,-25.818,-9.277,-8.850
1.065,0.099,-0.078,-22.583,-7.568,-7.507
1.054,0.102,-0.072,-19.531,-5.615,-7.019
1.061,0.108,-0.061,-16.357,-3.052,-6.836

1.529,-0.058,-1.058,85.022,43.579,-10.376
1.520,-0.005,-1.110,103.760,36.133,-4.639
1.507,0.004,-1.118,130.005,29.236,2.991
1.495,-0.015,-1.100,160.339,22.034,12.268
1.467,-0.063,-1.074,192.932,15.198,22.766
1.425,-0.144,-1.060,225.037,9.033,33.508
1.380,-0.247,-1.034,253.845,4.517,43.457
1.340,-0.347,-1.008,279.602,3.052,49.744
1.291,-0.427,-0.976,302.551,6.042,52.368
1.225,-0.478,-0.927,323.792,13.733,51.819
1.168,-0.544,-0.873,343.994,25.146,50.659
1.144,-0.600,-0.801,362.244,38.635,50.232
1.143,-0.647,-0.751,379.395,54.077,50.232
1.139,-0.690,-0.696,397.156,68.848,51.941
1.136,-0.733,-0.631,415.771,81.787,54.871
1.129,-0.781,-0.565,435.425,92.957,58.655
1.146,-0.849,-0.494,453.613,101.013,61.707
1.180,-0.893,-0.398,471.252,105.774,62.744
1.189,-0.919,-0.283,490.051,104.553,61.768
1.174,-0.955,-0.187,509.521,95.093,60.669
1.151,-0.993,-0.096,530.090,79.041,59.082
1.100,-1.064,-0.018,552.063,58.594,56.641
0.982,-1.146,-0.003,570.923,36.255,52.917
0.801,-1.220,0.018,582.031,19.897,48.523
0.660,-1.307,0.100,581.848,15.503,43.884
0.593,-1.348,0.138,567.993,19.836,38.147
0.636,-1.323,0.237,544.434,30.334,32.227
0.627,-1.263,0.301,514.832,42.297,27.344
0.595,-1.196,0.375,481.873,53.223,24.475
0.609,-1.427,0.549,445.618,62.378,24.414
0.809,-1.270,0.820,395.630,74.951,27.283
0.588,-1.659,1.103,333.984,83.008,29.968
0.663,-2.505,2.348,250.916,110.474,29.663
0.901,-2.039,3.485,117.065,113.464,-2.930
0.778,-1.096,2.009,-43.945,53.467,-8.362
1.011,-0.731,0.811,-129.639,5.737,-3.784
1.090,-0.357,0.431,-135.742,12.878,6.836
1.086,-0.218,0.365,-112.305,22.156,15.381
1.050,-0.096,0.132,-83.557,6.470,19.470
0.963,-0.037,-0.039,-51.819,-1.160,21.729
0.955,-0.001,-0.089,-25.513,7.080,19.348
0.954,0.050,-0.117,-9.338,20.447,11.902
1.046,0.086,-0.101,1.221,31.921,2.136
1.045,0.151,-0.183,7.507,33.020,-7.690
1.025,0.192,-0.205,14.221,33.508,-15.015
1.101,0.170,-0.156,20.386,32.471,-19.226
1.170,0.185,-0.109,24.536,23.071,-23.376
1.167,0.196,-0.074,27.527,7.568,-23.682
1.089,0.154,-0.053,30.396,-7.446,-21.423
1.015,0.135,-0.005,29.785,-18.677,-20.508
0.995,0.126,0.042,26.367,-25.146,-19.348
0.944,0.123,0.059,20.508,-29.236,-17.090
0.876,0.083,0.073,13.123,-28.809,-13.672
0.856,0.072,0.091,4.028,-23.926,-11.230
0.878,0.070,0.110,-4.395,-16.541,-8.362
0.890,0.056,0.134,-12.207,-9.888,-4.822
0.895,0.055,0.152,-18.982,-5.554,-1.770
0.889,0.055,0.153,-24.048,-2.502,1.282
0.873,0.056,0.149,-28.503,0.732,3.601
0.874,0.052,0.137,-31.616,5.127,5.371
0.900,0.051,0.156,-34.302,8.667,6.287
0.917,0.055,0.156,-37.659,9.705,6.531
0.934,0.047,0.152,-41.138,8.240,7.019
0.953,0.042,0.142,-45.227,5.920,6.775
0.956,0.042,0.121,-49.377,2.625,5.615
0.987,0.032,0.122,-52.734,-0.122,3.662
1.035,0.024,0.140,-55.725,-4.028,0.793
1.087,0.025,0.164,-57.922,-11.536,-2.380
1.127,0.024,0.175,-58.228,-23.132,-5.493
1.123,0.016,0.169,-57.434,-37.720,-8.789
1.097,0.012,0.154,-56.641,-51.147,-12.695
1.078,0.019,0.154,-55.786,-60.852,-17.090
1.050,0.029,0.153,-55.420,-65.674,-20.691
1.008,0.030,0.150,-55.359,-66.467,-22.583
0.976,0.026,0.158,-56.091,-63.049,-23.254
0.944,0.018,0.170,-57.556,-55.908,-23.254
0.946,0.009,0.183,-61.096,-45.288,-22.766
0.929,0.006,0.191,-65.491,-34.363,-21.973
0.934,-0.002,0.212,-69.885,-24.109,-20.203
0.937,-0.010,0.223,-75.012,-15.503,-18.677
0.962,-0.018,0.243,-80.750,-8.728,-17.334
0.983,-0.024,0.248,-86.548,-6.287,-15.564
1.004,-0.033,0.250,-92.590,-7.141,-13.550
1.020,-0.037,0.231,-97.961,-12.207,-11.902
1.027,-0.026,0.206,-102.173,-19.653,-10.681
1.015,-0.017,0.177,-104.126,-27.100,-9.460
0.969,-0.004,0.159,-103.943,-31.128,-8.240
0.927,0.007,0.145,-103.088,-30.212,-6.714
0.888,0.024,0.124,-101.318,-24.719,-5.066
0.870,0.030,0.118,-98.755,-15.015,-3.601
0.894,0.033,0.114,-96.375,-3.235,-2.502
0.959,0.037,0.124,-94.666,7.935,-1.404
0.976,0.041,0.128,-92.102,14.648,-0.732
1.003,0.040,0.144,-89.966,17.029,0.671
1.032,0.036,0.147,-89.233,16.052,1.709
1.031,0.041,0.133,-88.684,12.329,2.075
1.044,0.026,0.125,-88.196,8.179,1.892
1.088,0.032,0.135,-87.891,3.052,0.000
1.062,0.044,0.134,-87.646,-3.967,-2.136
1.029,0.051,0.125,-87.646,-10.315,-3.174
1.019,0.051,0.117,-88.074,-14.832,-3.723
1.033,0.054,0.124,-88.257,-17.639,-4.272
1.018,0.052,0.117,-88.440,-20.691,-4.517
0.998,0.053,0.111,-88.928,-22.644,-5.005
0.988,0.063,0.117,-88.928,-22.644,-5.310
0.997,0.064,0.120,-88.806,-22.339,-4.700
1.000,0.059,0.125,-88.074,-22.400,-3.845
0.994,0.061,0.123,-87.341,-22.400,-3.235
0.982,0.062,0.120,-86.121,-22.278,-2.930
0.980,0.059,0.126,-85.022,-21.423,-2.563
0.973,0.060,0.123,-83.862,-20.386,-2.869
0.965,0.059,0.121,-82.947,-18.494,-3.052
0.966,0.057,0.128,-81.909,-16.968,-3.113
0.972,0.058,0.140,-81.482,-16.052,-3.174
0.972,0.056,0.148,-81.543,-16.296,-3.235
0.974,0.049,0.156,-81.970,-17.883,-3.174
0.963,0.045,0.155,-83.130,-19.836,-3.296
0.953,0.044,0.153,-84.534,-21.667,-3.418
0.948,0.051,0.154,-85.999,-22.583,-3.601

1.230,-0.306,-1.149,229.797,41.504,-2.136
1.211,-0.351,-1.166,250.061,45.166,2.563
1.191,-0.383,-1.155,271.484,48.096,8.728
1.175,-0.431,-1.141,295.776,50.842,13.672
1.180,-0.489,-1.086,322.571,55.603,15.686
1.191,-0.508,-0.933,350.891,62.317,14.404
1.193,-0.532,-0.747,380.737,67.932,11.353
1.212,-0.530,-0.556,411.194,71.228,7.874
1.242,-0.513,-0.335,444.763,72.327,4.333
1.291,-0.595,-0.185,481.689,66.406,2.197
1.314,-0.696,-0.065,514.648,53.467,0.854
1.261,-0.806,0.015,540.405,36.194,0.061
1.150,-0.896,0.036,556.763,16.968,0.916
1.065,-1.001,0.112,566.650,4.028,0.488
1.032,-1.116,0.258,565.430,-0.305,-2.258
0.994,-1.136,0.343,548.035,-3.540,-3.174
0.920,-1.119,0.418,518.677,-4.883,-2.319
0.831,-1.066,0.498,481.323,-3.052,0.793
0.764,-1.025,0.558,439.209,0.854,4.639
0.774,-0.992,0.640,394.104,8.118,6.470
0.791,-0.920,0.727,349.976,14.648,7.446
0.788,-0.841,0.750,307.007,16.052,8.118
0.782,-0.763,0.754,266.785,16.235,7.874
0.786,-0.725,0.740,231.506,16.663,8.301
0.809,-0.726,0.738,200.623,15.442,8.606
0.828,-0.690,0.766,170.654,14.343,8.789
0.931,-0.662,0.954,139.709,11.902,5.127
1.054,-0.711,1.234,109.863,-4.883,-0.854
1.164,-0.836,1.411,80.505,-39.063,-4.456
0.794,-0.956,1.352,46.997,-65.369,-3.784
0.537,-0.620,0.962,11.475,-57.007,-5.005
0.606,-0.433,0.696,-6.042,-26.550,-2.136
0.743,-0.346,0.600,-13.306,1.038,-2.075
0.831,-0.196,0.472,-20.935,16.479,-3.906
0.856,-0.081,0.248,-24.841,19.470,-5.859
0.884,-0.013,0.104,-24.292,19.775,-6.287
0.906,0.062,0.005,-21.667,19.226,-5.981
0.956,0.103,-0.031,-18.372,18.127,-6.531
0.986,0.125,-0.055,-12.878,14.526,-8.606
1.024,0.129,-0.025,-6.226,10.193,-10.864
1.058,0.130,0.000,0.610,4.883,-13.977
1.082,0.133,0.012,7.202,-0.610,-16.907
1.085,0.109,0.008,13.855,-5.005,-17.578
1.052,0.102,0.012,19.226,-6.775,-17.029
1.053,0.109,0.019,21.301,-5.676,-15.747
1.041,0.120,0.031,18.982,-2.930,-12.085
1.022,0.115,0.021,14.832,-0.793,-6.287
0.995,0.104,0.009,9.460,2.014,-1.038
0.977,0.094,0.022,5.188,6.287,3.418
0.959,0.087,0.052,2.502,10.193,6.897
0.946,0.064,0.083,1.587,12.878,9.033
0.942,0.050,0.130,1.892,15.320,9.460
0.959,0.035,0.185,3.418,15.869,8.240
0.953,0.018,0.196,5.615,13.123,6.042
0.943,-0.001,0.206,6.714,10.193,3.601
0.886,0.002,0.172,5.737,7.996,0.732
0.954,-0.004,0.189,2.991,8.972,-1.160
0.976,0.004,0.187,-1.404,7.202,-1.953
0.934,0.015,0.149,-6.592,2.441,-0.977
0.962,-0.016,0.147,-11.414,1.465,0.854
0.982,0.007,0.150,-16.174,1.953,1.099
0.980,-0.004,0.161,-20.325,1.587,1.831
0.993,-0.010,0.182,-23.621,0.854,1.587
1.012,-0.002,0.192,-26.001,-0.610,0.244
1.028,-0.012,0.198,-27.039,-2.380,-0.854
1.034,-0.019,0.209,-28.076,-4.517,-2.380
1.039,-0.022,0.226,-29.175,-6.653,-3.845
1.042,-0.019,0.227,-30.579,-9.277,-5.066
1.028,-0.008,0.214,-32.593,-11.108,-4.883
1.008,0.000,0.204,-34.485,-11.597,-3.723
0.994,0.009,0.188,-36.621,-10.315,-2.502
0.992,0.016,0.171,-39.917,-7.385,-0.244
0.998,0.021,0.162,-43.396,-3.479,2.502
0.996,0.028,0.155,-46.448,0.427,5.493
0.997,0.034,0.156,-49.683,4.211,7.935
1.004,0.028,0.161,-53.223,7.751,9.521
1.010,0.027,0.159,-57.983,10.376,9.705
1.011,0.033,0.150,-63.721,11.414,9.521
1.019,0.036,0.146,-68.542,10.620,9.460
1.021,0.029,0.128,-72.449,8.118,9.888
1.013,0.027,0.117,-76.050,4.517,10.315
1.013,0.031,0.110,-79.102,0.793,10.193
1.012,0.040,0.103,-81.238,-3.296,10.010
1.004,0.052,0.096,-82.092,-7.751,9.705
0.987,0.062,0.085,-81.055,-12.390,9.399
0.983,0.070,0.086,-78.735,-15.198,8.911
0.969,0.076,0.083,-75.684,-16.785,8.667
0.953,0.077,0.084,-72.327,-17.029,8.057
0.943,0.070,0.080,-69.458,-16.357,6.897
0.943,0.062,0.088,-67.322,-14.587,5.554
0.945,0.058,0.099,-66.284,-12.634,3.845
0.951,0.046,0.102,-66.406,-11.414,2.380
0.962,0.029,0.108,-68.115,-11.047,1.526
0.978,0.025,0.121,-70.984,-11.169,0.977
0.988,0.031,0.124,-74.585,-12.146,1.587
0.991,0.026,0.133,-78.308,-13.794,2.869
0.988,0.020,0.136,-82.031,-15.503,4.333
0.981,0.024,0.139,-85.754,-16.968,5.615
0.967,0.027,0.143,-89.783,-17.029,6.897
0.956,0.032,0.149,-93.018,-16.052,8.057
0.957,0.033,0.152,-95.642,-14.282,8.545
0.962,0.030,0.158,-97.778,-12.207,8.484
0.959,0.028,0.158,-100.159,-10.498,7.629
0.956,0.020,0.153,-102.417,-8.972,6.653
0.954,0.012,0.147,-105.591,-7.202,5.798
0.953,0.013,0.146,-110.352,-4.822,4.883
0.952,0.022,0.146,-115.845,-1.770,4.761
0.951,0.031,0.137,-120.361,0.854,5.371
0.953,0.045,0.131,-123.413,2.808,6.714
0.957,0.048,0.121,-124.817,4.211,9.277
0.948,0.043,0.102,-126.099,6.042,12.634
0.939,0.046,0.080,-127.625,9.277,15.991
0.944,0.055,0.062,-128.723,13.184,18.555
0.956,0.057,0.040,-129.395,16.357,20.081
0.953,0.059,0.017,-128.784,18.005,20.020
0.948,0.061,0.008,-128.540,19.653,19.165
0.960,0.067,-0.005,-128.296,20.935,17.517
0.974,0.085,-0.008,-127.319,21.423,15.198
0.985,0.095,-0.010,-124.939,20.386,12.573

1.096,0.199,-1.542,83.069,28.870,-5.920
1.101,0.189,-1.669,114.258,27.771,-4.272
1.130,0.167,-1.751,150.757,30.090,-3.906
1.194,0.101,-1.756,192.810,36.560,-5.188
1.244,-0.001,-1.728,235.901,44.373,-7.324
1.251,-0.152,-1.689,278.503,52.490,-9.155
1.277,-0.251,-1.534,317.688,64.148,-9.277
1.328,-0.383,-1.335,354.309,75.378,-6.958
1.388,-0.496,-1.164,387.146,82.153,-2.625
1.406,-0.552,-0.957,417.786,85.571,2.502
1.410,-0.633,-0.752,449.097,86.426,6.531
1.409,-0.753,-0.593,479.553,82.642,9.949
1.396,-0.828,-0.424,507.080,77.637,11.292
1.385,-0.894,-0.223,532.898,72.571,12.268
1.357,-1.012,-0.074,557.678,63.599,15.015
1.279,-1.174,0.025,576.416,51.575,16.418
1.166,-1.358,0.098,581.848,43.518,14.221
1.061,-1.486,0.192,571.045,43.030,8.179
1.004,-1.469,0.293,545.776,50.781,0.000
0.968,-1.382,0.330,515.198,60.303,-4.517
0.988,-1.340,0.367,486.084,69.153,-6.592
0.999,-1.310,0.415,457.825,74.890,-8.423
1.015,-1.239,0.454,428.406,76.172,-10.376
1.030,-1.178,0.471,399.658,73.792,-12.024
1.031,-1.129,0.484,371.582,70.129,-13.489
1.039,-1.071,0.508,343.262,65.430,-15.503
1.055,-0.998,0.539,314.209,58.777,-18.433
1.056,-0.919,0.546,284.790,49.622,-20.813
1.033,-0.844,0.531,255.615,39.185,-22.156
1.016,-0.782,0.501,228.516,28.809,-22.949
1.021,-0.724,0.488,201.782,19.897,-23.682
0.972,-0.668,0.501,175.049,12.939,-25.574
0.908,-0.590,0.499,149.109,9.583,-28.137
0.906,-0.539,0.481,125.305,12.329,-28.931
0.954,-0.475,0.456,103.027,13.916,-27.893
0.956,-0.415,0.471,83.801,14.282,-26.245
0.952,-0.359,0.461,64.880,11.719,-25.879
0.976,-0.314,0.449,47.607,7.141,-26.184
0.935,-0.255,0.373,32.776,0.732,-26.367
0.986,-0.226,0.382,20.142,-2.991,-25.513
0.987,-0.188,0.304,9.155,-7.568,-24.780
0.903,-0.144,0.234,0.549,-8.850,-22.888
0.993,-0.075,0.242,-7.324,-7.080,-20.081
0.941,-0.024,0.200,-13.123,-7.446,-16.052
0.854,-0.051,0.118,-17.761,-4.578,-10.864
0.987,-0.021,0.152,-23.376,2.930,-9.399
0.926,0.027,0.105,-27.710,6.836,-9.399
0.911,0.037,0.088,-29.419,9.644,-6.165
0.998,0.023,0.100,-30.579,8.728,-3.418
0.984,0.030,0.066,-31.372,4.639,-3.174
0.958,0.051,0.051,-31.311,1.526,-3.235
0.958,0.055,0.036,-30.945,-0.488,-3.113
0.930,0.074,0.007,-30.212,-2.197,-3.113
0.904,0.084,-0.011,-29.480,-1.587,-2.747
0.893,0.078,-0.014,-28.870,1.709,-2.136
0.907,0.077,-0.019,-28.992,6.042,-1.831
0.925,0.085,-0.026,-28.870,9.338,-0.732
0.942,0.073,-0.029,-28.381,12.390,2.014
0.959,0.059,-0.020,-28.442,14.648,4.822
0.967,0.046,-0.020,-29.968,16.113,7.080
0.976,0.044,-0.021,-32.349,17.517,8.545
0.992,0.041,-0.020,-34.668,18.005,9.766
1.011,0.036,-0.016,-36.011,17.151,10.193
1.024,0.031,-0.010,-36.926,15.259,10.254
1.014,0.029,-0.004,-36.194,12.390,9.033
1.063,0.018,0.016,-34.180,9.033,6.897
1.058,0.010,0.026,-31.006,5.798,4.272
1.049,0.016,0.022,-27.954,1.770,2.136
1.075,0.017,0.047,-24.902,-2.014,1.648
1.055,-0.001,0.056,-22.888,-4.944,2.747
1.042,-0.000,0.055,-21.851,-6.348,3.540
1.046,-0.009,0.062,-21.606,-5.981,4.883
1.055,-0.030,0.079,-22.339,-5.432,6.409
1.063,-0.037,0.097,-24.597,-5.859,6.897
1.067,-0.037,0.099,-27.405,-6.958,6.958
1.074,-0.027,0.102,-29.846,-7.507,7.202
1.047,-0.019,0.118,-30.762,-7.568,7.812
1.042,-0.030,0.115,-31.433,-7.568,8.667
1.035,-0.032,0.126,-32.532,-5.554,8.911
1.038,-0.032,0.145,-34.546,-3.479,9.033
1.057,-0.042,0.146,-37.048,-1.526,9.827
1.065,-0.036,0.163,-40.283,0.000,10.681
1.066,-0.028,0.168,-43.579,0.610,12.207
1.072,-0.034,0.168,-46.021,0.488,14.404
1.079,-0.036,0.174,-48.706,0.305,16.968
1.075,-0.038,0.176,-51.453,0.000,19.104
1.084,-0.050,0.195,-54.932,-0.122,20.569
1.090,-0.047,0.207,-59.937,-2.014,20.447
1.067,-0.034,0.210,-65.735,-5.249,19.714
1.055,-0.031,0.212,-72.266,-8.301,19.531
1.055,-0.025,0.212,-79.163,-11.658,18.982
1.026,-0.014,0.208,-85.388,-16.113,18.555
1.002,-0.013,0.206,-91.492,-19.287,19.348
1.000,-0.007,0.197,-97.229,-21.851,20.142
1.001,-0.011,0.192,-103.088,-23.621,21.484
1.000,-0.013,0.176,-108.521,-25.513,23.132
0.992,-0.016,0.160,-113.647,-26.306,24.414
1.020,-0.026,0.157,-118.652,-25.940,25.452
1.026,-0.026,0.159,-122.986,-25.513,26.001
1.021,-0.027,0.142,-127.258,-25.330,26.794
1.036,-0.039,0.136,-131.592,-24.292,28.076
1.046,-0.033,0.133,-136.353,-23.071,29.175
1.049,-0.034,0.121,-140.930,-22.156,30.579
1.049,-0.033,0.118,-146.484,-20.935,31.494
1.045,-0.026,0.116,-152.344,-19.531,32.166
1.040,-0.019,0.104,-156.494,-18.555,32.532
1.029,-0.009,0.087,-158.264,-17.761,32.715
1.029,-0.002,0.082,-158.264,-17.822,33.264
1.036,0.004,0.073,-157.410,-19.165,33.936
1.036,0.004,0.058,-155.640,-21.057,34.668
1.024,-0.002,0.037,-154.175,-22.949,35.583
1.005,-0.001,0.017,-153.809,-24.475,36.621
0.989,0.010,0.003,-153.870,-24.475,37.720
0.970,0.020,-0.007,-153.931,-23.499,39.124
0.960,0.029,-0.007,-154.358,-21.301,40.344
0.955,0.038,0.001,-155.518,-18.982,41.382
0.961,0.047,0.011,-155.945,-17.761,41.992
0.970,0.055,0.025,-156.128,-18.677,42.236
0.966,0.069,0.035,-156.189,-20.935,42.297

1.323,-0.003,-1.826,164.185,2.380,-16.113
1.391,-0.098,-1.994,204.834,9.338,-14.099
1.473,-0.180,-2.075,249.878,22.583,-11.475
1.568,-0.312,-2.078,299.927,37.292,-8.972
1.623,-0.479,-2.024,352.234,51.331,-6.592
1.597,-0.595,-1.910,400.940,66.223,-3.967
1.532,-0.703,-1.760,446.106,82.886,0.061
1.503,-0.830,-1.599,487.915,102.783,4.578
1.511,-0.991,-1.399,526.550,124.451,7.935
1.549,-1.068,-1.140,562.561,143.433,9.338
1.613,-1.153,-0.867,598.511,153.015,11.963
1.676,-1.275,-0.641,634.216,146.240,17.456
1.709,-1.437,-0.427,667.542,125.671,22.949
1.640,-1.617,-0.184,690.857,95.825,28.259
1.398,-1.775,-0.061,693.298,61.584,34.485
1.127,-1.869,0.112,671.509,36.560,37.048
0.979,-1.804,0.436,625.061,33.386,38.086
0.859,-1.652,0.551,567.444,36.682,41.199
0.728,-1.536,0.580,511.536,43.823,42.542
0.688,-1.499,0.706,458.923,56.091,41.626
0.690,-1.413,0.834,402.893,67.871,38.818
0.679,-1.284,0.919,345.398,76.355,34.485
0.670,-1.133,0.945,287.659,84.412,28.198
0.718,-1.014,0.927,233.643,92.529,21.545
0.802,-0.959,0.909,185.608,96.191,12.634
0.849,-0.735,0.914,140.320,93.140,4.150
0.877,-0.666,0.772,101.868,81.970,-4.028
1.020,-0.642,0.808,74.768,70.801,-9.766
1.163,-0.600,0.990,49.316,60.730,-11.963
1.319,-0.593,1.217,23.560,27.954,-15.015
1.139,-0.523,1.180,-6.348,-17.578,-17.273
0.905,-0.428,0.944,-30.273,-40.527,-19.775
0.891,-0.285,0.758,-44.434,-36.560,-19.287
1.008,-0.190,0.637,-50.598,-28.015,-14.832
1.029,-0.071,0.459,-51.147,-25.085,-13.306
0.979,0.043,0.307,-48.096,-22.400,-11.047
0.976,0.103,0.187,-42.664,-19.592,-8.118
1.008,0.154,0.115,-37.537,-16.724,-6.409
1.000,0.190,0.023,-33.203,-16.602,-4.822
1.000,0.214,-0.011,-28.931,-14.832,-3.479
0.995,0.232,-0.067,-25.940,-12.451,-2.014
1.036,0.225,-0.064,-24.292,-9.521,-0.122
1.029,0.228,-0.091,-23.804,-9.155,0.549
1.016,0.224,-0.101,-24.170,-9.399,1.770
1.030,0.219,-0.100,-25.574,-9.399,2.991
1.037,0.216,-0.118,-27.466,-11.047,4.089
1.027,0.217,-0.122,-28.931,-14.282,5.737
1.006,0.230,-0.115,-29.053,-17.639,7.507
0.985,0.228,-0.106,-27.161,-21.179,9.644
0.928,0.229,-0.106,-24.353,-23.804,11.536
0.890,0.223,-0.091,-19.958,-23.437,12.878
0.880,0.223,-0.074,-14.587,-19.958,12.939
0.850,0.215,-0.063,-9.277,-15.320,12.268
0.838,0.202,-0.045,-4.211,-9.583,11.047
0.845,0.200,-0.028,-0.061,-3.479,9.338
0.856,0.192,-0.007,2.258,2.075,8.057
0.875,0.175,0.015,3.723,6.104,6.836
0.898,0.160,0.033,3.601,8.057,5.188
0.913,0.156,0.047,2.563,8.423,3.357
0.925,0.146,0.065,0.977,7.141,1.770
0.945,0.138,0.075,-0.671,5.310,0.366
0.951,0.124,0.076,-3.540,3.174,-1.160
0.970,0.127,0.083,-6.348,1.282,-2.869
0.970,0.114,0.081,-8.545,-0.549,-3.967
1.039,0.141,0.120,-10.925,-2.441,-5.371
1.018,0.104,0.102,-12.512,-6.592,-5.554
1.043,0.128,0.106,-14.587,-10.498,-6.287
1.031,0.117,0.107,-16.724,-15.869,-5.493
1.026,0.122,0.104,-18.555,-18.860,-4.944
1.014,0.129,0.109,-20.386,-20.325,-4.456
1.006,0.136,0.114,-22.217,-19.958,-3.723
0.989,0.147,0.106,-24.109,-19.287,-3.174
0.980,0.149,0.106,-26.367,-16.418,-1.831
0.975,0.150,0.096,-28.625,-13.062,-0.244
0.979,0.150,0.097,-30.579,-9.644,1.099
0.980,0.141,0.100,-32.349,-7.446,2.197
0.991,0.151,0.113,-34.912,-5.981,2.686
1.000,0.151,0.123,-36.682,-5.676,3.540
1.009,0.148,0.132,-37.598,-6.836,5.188
1.001,0.147,0.136,-38.330,-8.606,6.226
0.995,0.144,0.124,-38.513,-10.315,6.531
0.983,0.132,0.120,-38.879,-11.108,5.920
0.986,0.133,0.123,-39.429,-11.047,4.578
0.989,0.133,0.131,-39.856,-10.864,2.869
0.992,0.125,0.136,-41.138,-10.498,1.770
0.991,0.114,0.138,-42.847,-10.803,0.793
0.983,0.106,0.138,-45.349,-10.681,0.610
0.982,0.109,0.146,-49.072,-9.216,0.488
0.979,0.115,0.151,-52.490,-7.263,1.343
0.976,0.109,0.156,-55.908,-5.310,3.113
0.958,0.111,0.143,-59.753,-2.625,5.127
0.957,0.107,0.141,-63.354,1.709,7.385
0.974,0.109,0.139,-66.956,7.019,10.193
0.986,0.120,0.134,-70.557,11.597,13.733
1.019,0.103,0.127,-74.097,14.832,18.127
1.017,0.115,0.107,-77.454,17.395,20.447
1.029,0.116,0.102,-80.261,19.714,21.851
1.052,0.129,0.095,-81.970,19.958,21.790
1.059,0.137,0.081,-82.947,17.944,20.752
1.050,0.150,0.075,-83.130,14.587,19.409
1.050,0.158,0.062,-83.435,10.620,18.250
1.069,0.169,0.049,-83.435,6.104,17.151
1.070,0.180,0.036,-83.191,0.671,16.846
1.055,0.182,0.024,-82.764,-4.761,17.090
1.037,0.187,0.013,-82.703,-9.705,17.639
1.021,0.193,0.001,-83.008,-13.611,18.433
1.011,0.193,-0.009,-84.045,-16.174,19.592
1.016,0.195,-0.012,-85.938,-17.517,20.874
1.007,0.198,-0.018,-88.867,-18.677,22.583
1.000,0.200,-0.027,-92.102,-19.409,24.170
0.993,0.205,-0.037,-95.215,-19.409,26.001
0.983,0.206,-0.043,-98.572,-18.494,27.954
0.984,0.206,-0.044,-102.112,-17.212,29.541
0.976,0.215,-0.049,-105.957,-16.174,31.067
0.969,0.218,-0.051,-109.375,-15.320,32.166
0.976,0.216,-0.037,-111.816,-14.771,32.593
0.973,0.225,-0.036,-113.647,-15.564,32.898
0.968,0.228,-0.033,-114.990,-17.578,32.959
0.974,0.223,-0.032,-115.845,-20.691,32.715

1.064,0.267,-1.378,68.237,32.532,-15.015
1.137,0.267,-1.348,97.656,36.133,-21.545
1.172,0.197,-1.322,131.042,37.537,-27.649
1.166,0.121,-1.256,163.025,37.476,-32.104
1.139,0.027,-1.212,191.956,35.095,-33.203
1.113,-0.053,-1.158,216.797,33.752,-30.457
1.106,-0.129,-1.082,238.464,33.875,-26.001
1.095,-0.232,-1.028,258.728,33.997,-21.484
1.085,-0.331,-0.994,276.672,34.424,-17.761
1.068,-0.402,-0.940,293.335,37.720,-16.296
1.031,-0.454,-0.877,311.157,44.434,-17.639
1.000,-0.535,-0.815,331.116,55.481,-21.179
0.987,-0.642,-0.781,351.379,71.594,-26.611
0.997,-0.710,-0.725,370.117,92.163,-33.875
1.072,-0.798,-0.659,388.855,114.990,-41.870
1.210,-0.869,-0.581,407.166,134.949,-50.537
1.325,-0.908,-0.490,424.622,148.560,-58.655
1.436,-0.931,-0.380,440.674,150.452,-62.927
1.537,-0.942,-0.237,456.055,139.343,-62.683
1.555,-0.944,-0.090,472.046,115.845,-60.120
1.535,-0.940,0.057,485.046,83.496,-54.993
1.501,-0.948,0.211,494.690,47.791,-48.279
1.412,-0.953,0.311,500.549,11.902,-41.687
1.282,-0.978,0.414,501.099,-19.836,-37.415
1.160,-1.000,0.565,492.432,-41.809,-34.729
1.017,-0.952,0.629,469.482,-56.946,-30.396
0.868,-0.914,0.669,435.852,-60.913,-22.339
0.694,-0.880,0.715,394.470,-50.964,-14.954
0.594,-0.840,0.784,348.694,-28.931,-11.292
0.609,-0.763,0.863,298.828,-1.526,-9.277
0.679,-0.668,0.909,249.329,23.193,-8.606
0.762,-0.587,0.965,204.224,41.260,-8.301
0.839,-0.546,0.997,162.659,47.363,-7.385
0.812,-0.431,0.968,124.390,45.227,-5.554
0.981,-0.443,1.002,93.628,38.086,-3.235
1.102,-0.470,1.129,67.200,22.217,-4.089
1.063,-0.454,1.102,41.382,-8.362,-6.775
0.858,-0.364,0.861,16.418,-30.518,-9.644
0.801,-0.238,0.710,-5.005,-28.198,-13.306
0.832,-0.143,0.567,-19.775,-19.653,-14.893
0.815,-0.084,0.418,-28.687,-10.010,-15.259
0.816,-0.006,0.301,-35.339,1.160,-15.808
0.873,0.068,0.224,-39.490,9.399,-16.541
0.961,0.109,0.168,-40.161,12.146,-17.029
0.991,0.148,0.109,-38.574,8.179,-17.029
1.027,0.167,0.062,-34.241,1.465,-15.869
1.034,0.190,0.019,-28.015,-5.676,-14.526
1.032,0.177,-0.026,-21.423,-11.108,-12.878
1.099,0.175,-0.005,-15.930,-14.343,-13.367
1.071,0.175,-0.064,-11.597,-19.653,-14.954
1.085,0.158,-0.039,-8.179,-22.095,-15.869
1.126,0.178,-0.069,-5.371,-26.855,-17.273
1.062,0.186,-0.062,-1.770,-28.564,-15.686
1.049,0.179,-0.062,0.732,-29.114,-11.597
1.021,0.177,-0.058,2.380,-27.344,-7.324
0.966,0.175,-0.058,3.357,-23.071,-3.113
0.947,0.152,-0.049,3.174,-15.076,1.953
0.952,0.145,-0.023,2.991,-5.981,5.859
0.901,0.130,-0.011,2.747,2.075,8.240
0.898,0.121,-0.004,2.197,10.071,9.827
0.910,0.114,0.018,1.587,18.127,9.766
0.977,0.123,0.081,0.427,23.682,8.911
1.018,0.116,0.104,-0.977,21.423,9.033
0.979,0.083,0.066,-2.686,13.794,9.827
1.015,0.097,0.097,-4.822,8.118,8.667
0.997,0.084,0.078,-7.019,0.916,8.118
0.961,0.082,0.074,-8.728,-4.272,7.263
0.965,0.098,0.086,-10.315,-6.592,6.104
0.952,0.092,0.084,-11.047,-8.423,5.615
0.943,0.096,0.077,-11.047,-9.033,4.944
0.940,0.096,0.077,-10.376,-8.179,4.395
0.937,0.097,0.083,-9.644,-6.165,4.456
0.939,0.093,0.089,-9.033,-3.601,4.395
0.947,0.088,0.096,-9.094,-1.099,4.517
0.962,0.080,0.119,-9.155,0.671,4.456
0.978,0.078,0.142,-10.010,1.648,4.211
0.992,0.071,0.164,-11.719,1.465,3.601
1.002,0.060,0.179,-14.099,-0.610,2.930
1.018,0.057,0.193,-16.907,-4.089,1.831
1.033,0.051,0.212,-20.508,-7.935,1.099
1.039,0.054,0.222,-24.231,-12.695,-0.122
1.031,0.053,0.222,-27.954,-18.188,-1.099
1.015,0.055,0.218,-31.860,-22.644,-1.892
1.002,0.052,0.214,-35.645,-24.963,-2.441
1.001,0.048,0.213,-39.917,-24.597,-2.258
1.000,0.047,0.213,-44.861,-22.217,-1.221
1.000,0.052,0.218,-49.805,-18.799,0.244
1.003,0.054,0.219,-54.932,-14.282,2.686
1.005,0.056,0.213,-60.791,-9.644,5.493
1.007,0.058,0.207,-67.078,-4.944,8.484
1.016,0.059,0.205,-73.242,-1.099,11.230
1.023,0.061,0.195,-79.041,1.892,13.184
1.023,0.063,0.195,-84.106,3.479,14.282
1.020,0.067,0.198,-88.013,3.540,14.404
1.012,0.073,0.195,-91.248,2.075,14.465
1.015,0.079,0.200,-93.140,-0.305,14.221
1.026,0.082,0.204,-94.177,-3.601,14.526
1.031,0.082,0.201,-95.276,-8.057,15.137
1.028,0.085,0.194,-96.985,-13.062,15.991
1.023,0.088,0.184,-98.755,-18.066,16.846
1.007,0.091,0.163,-101.318,-22.095,18.005
0.994,0.098,0.153,-104.370,-23.865,19.226
0.989,0.109,0.152,-107.544,-23.437,21.179
0.982,0.107,0.140,-110.535,-22.095,23.132
0.975,0.100,0.136,-113.708,-19.592,24.475
0.969,0.100,0.139,-117.065,-16.052,25.085
0.969,0.111,0.144,-119.507,-12.695,24.719
0.969,0.115,0.150,-120.300,-10.376,23.804
0.972,0.122,0.161,-119.995,-9.155,22.339
0.983,0.132,0.179,-118.469,-9.460,20.569
1.000,0.138,0.202,-115.662,-11.902,19.531
1.005,0.127,0.215,-113.647,-16.907,19.104
1.013,0.117,0.221,-113.831,-23.437,18.860
1.003,0.113,0.216,-116.211,-30.029,18.860
0.977,0.104,0.192,-121.033,-35.461,19.531
0.955,0.098,0.162,-126.831,-37.598,19.714
0.944,0.098,0.138,-133.545,-35.889,19.104
0.926,0.099,0.112,-140.320,-31.555,18.555
0.913,0.098,0.092,-146.912,-25.269,18.494

1.219,0.197,-1.249,111.816,23.499,-18.127
1.263,0.134,-1.368,144.714,17.578,-17.212
1.279,0.028,-1.549,179.810,11.536,-14.893
1.291,-0.071,-1.723,215.637,6.226,-12.268
1.318,-0.227,-1.896,252.258,5.310,-10.864
1.349,-0.368,-2.090,291.443,10.803,-12.512
1.361,-0.487,-2.280,333.557,23.193,-15.930
1.358,-0.597,-2.293,382.202,44.128,-19.165
1.337,-0.715,-2.224,436.035,71.350,-20.325
1.334,-0.957,-2.096,496.094,99.182,-20.508
1.393,-1.208,-1.854,552.856,126.099,-23.010
1.433,-1.392,-1.555,600.830,145.935,-27.100
1.424,-1.636,-1.331,643.311,154.968,-30.518
1.421,-1.827,-1.027,678.406,156.860,-31.494
1.467,-1.972,-0.663,707.214,150.818,-29.663
1.511,-2.128,-0.396,729.614,131.287,-24.719
1.461,-2.314,-0.191,740.479,104.309,-20.813
1.349,-2.400,0.240,736.572,79.895,-19.104
1.298,-2.356,0.759,721.008,57.739,-11.719
1.169,-2.321,1.054,696.960,27.039,6.653
0.865,-2.415,1.328,654.053,5.249,25.635
0.556,-2.451,1.697,580.627,15.015,35.889
0.437,-2.308,1.961,478.027,49.377,38.330
0.575,-2.224,2.225,363.770,91.309,39.307
1.016,-2.403,2.838,249.451,124.695,36.438
1.561,-1.935,3.706,139.954,88.684,14.526
0.962,-1.751,2.595,5.310,-10.010,22.095
0.353,-1.074,1.438,-87.158,-33.203,30.762
0.354,-0.653,1.173,-109.741,10.620,13.977
0.770,-0.448,0.903,-111.694,46.997,1.343
0.987,-0.272,0.621,-119.019,71.411,-2.563
1.092,-0.143,0.374,-124.329,83.923,-5.676
1.222,0.032,0.149,-125.916,79.834,-9.399
1.347,0.146,-0.002,-122.070,63.843,-8.179
1.420,0.243,-0.135,-110.596,39.246,-6.226
1.511,0.259,-0.109,-91.003,12.512,-5.371
1.518,0.353,-0.056,-69.580,-21.545,-7.446
1.450,0.279,-0.146,-49.377,-60.059,-5.493
1.213,0.293,-0.159,-32.959,-82.703,-8.118
1.172,0.269,-0.200,-21.118,-95.764,-12.390
0.967,0.336,-0.198,-15.808,-96.985,-12.939
0.872,0.255,-0.263,-12.756,-87.219,-7.141
0.843,0.287,-0.247,-14.160,-69.153,-5.066
0.794,0.287,-0.227,-16.479,-48.462,-0.183
0.801,0.234,-0.215,-17.395,-28.748,7.935
0.846,0.225,-0.159,-17.212,-12.634,13.672
0.866,0.182,-0.108,-16.174,-1.404,19.226
0.870,0.159,-0.078,-14.465,4.456,21.973
0.863,0.165,-0.051,-12.634,7.568,22.278
0.868,0.142,-0.039,-10.681,7.935,21.729
0.883,0.145,-0.011,-8.667,5.737,18.982
0.871,0.152,0.002,-5.737,1.038,14.771
0.862,0.149,0.013,-2.563,-4.089,10.559
0.861,0.141,0.027,0.183,-8.240,6.104
0.859,0.144,0.048,2.441,-11.230,1.709
0.873,0.135,0.069,4.089,-13.611,-1.587
0.891,0.127,0.097,4.578,-14.404,-3.662
0.904,0.128,0.116,4.517,-14.160,-5.127
0.910,0.125,0.125,3.906,-13.733,-5.615
0.917,0.119,0.138,3.296,-12.573,-5.066
0.872,0.117,0.133,2.258,-10.315,-4.578
0.954,0.130,0.173,0.488,-6.165,-4.395
0.913,0.059,0.179,-0.671,-2.075,-4.333
1.023,0.148,0.220,-3.845,-0.122,-5.493
1.019,0.117,0.185,-6.042,-6.226,-3.662
0.996,0.113,0.176,-6.714,-6.958,-2.869
1.034,0.112,0.245,-7.751,-7.385,-2.991
0.990,0.115,0.148,-9.766,-11.902,-3.052
1.006,0.109,0.270,-9.766,-8.118,-3.174
1.031,0.119,0.244,-11.536,-10.010,-2.991
1.012,0.099,0.251,-12.634,-12.024,-0.793
1.001,0.088,0.290,-13.428,-12.268,1.343
0.978,0.083,0.288,-14.954,-11.902,3.357
0.964,0.084,0.299,-18.188,-9.949,5.676
0.975,0.074,0.323,-22.400,-6.409,7.141
0.999,0.076,0.324,-28.442,-3.296,8.301
1.004,0.053,0.308,-34.912,-2.441,9.644
1.028,0.046,0.312,-41.504,-1.831,9.644
1.033,0.055,0.308,-47.974,-2.319,8.972
1.037,0.057,0.309,-53.406,-4.028,8.362
1.037,0.055,0.303,-57.678,-6.226,7.751
1.029,0.051,0.289,-62.561,-8.362,7.507
1.030,0.051,0.287,-66.528,-9.216,6.775
1.050,0.055,0.292,-70.923,-10.010,6.165
1.038,0.063,0.273,-75.684,-12.695,6.165
1.003,0.064,0.249,-79.956,-14.709,7.263
1.000,0.063,0.231,-84.229,-14.648,8.240
1.017,0.066,0.227,-89.600,-13.489,9.094
0.995,0.083,0.196,-95.459,-13.489,9.644
0.995,0.094,0.194,-100.525,-13.123,11.108
0.998,0.114,0.170,-106.018,-13.245,12.817
0.979,0.119,0.146,-109.497,-13.794,14.465
0.963,0.131,0.120,-112.061,-13.550,15.198
0.955,0.137,0.099,-114.380,-11.963,15.503
0.951,0.148,0.083,-115.295,-9.888,15.137
0.955,0.161,0.079,-115.723,-8.179,15.869
0.969,0.167,0.084,-115.417,-6.287,17.578
0.984,0.176,0.097,-114.075,-5.798,18.616
0.976,0.179,0.087,-112.549,-7.690,19.897
0.979,0.183,0.085,-110.596,-10.132,21.057
0.969,0.179,0.079,-108.093,-13.000,21.545
0.967,0.181,0.089,-106.506,-15.259,22.034
0.981,0.184,0.108,-104.675,-17.883,21.484
0.997,0.165,0.119,-103.088,-22.888,20.203
0.995,0.158,0.118,-103.882,-29.236,18.311
0.966,0.161,0.124,-105.896,-35.950,15.564
0.950,0.151,0.126,-108.154,-41.748,12.695
0.930,0.149,0.120,-111.816,-46.265,9.583
0.913,0.148,0.114,-115.967,-48.157,6.592
0.889,0.150,0.110,-119.873,-47.913,4.333
0.875,0.154,0.108,-124.146,-45.227,3.723
0.874,0.157,0.114,-127.869,-41.260,3.601
0.863,0.168,0.105,-130.859,-37.170,4.028
0.866,0.173,0.112,-132.568,-33.203,5.066
0.895,0.167,0.127,-133.545,-29.541,6.226
0.900,0.156,0.136,-135.559,-27.405,6.897
0.906,0.158,0.148,-139.526,-25.452,7.568
0.908,0.153,0.129,-143.555,-25.330,7.629
0.889,0.149,0.095,-148.437,-25.452,8.423

1.146,0.071,-1.700,111.206,2.014,-18.372
1.161,0.001,-1.848,149.902,-5.188,-18.738
1.154,-0.042,-1.995,191.711,-12.512,-17.578
1.146,-0.130,-2.077,238.098,-18.799,-14.099
1.130,-0.270,-2.086,286.987,-23.010,-7.874
1.090,-0.426,-2.009,335.571,-23.193,-2.686
1.018,-0.597,-1.925,379.639,-18.982,0.366
0.959,-0.787,-1.841,419.189,-9.094,2.441
0.896,-0.995,-1.736,454.346,6.897,3.052
0.823,-1.111,-1.573,483.215,26.550,3.052
0.760,-1.205,-1.319,509.460,47.974,3.723
0.728,-1.365,-1.170,537.292,67.627,2.869
0.769,-1.494,-0.934,560.364,87.646,-2.441
0.877,-1.521,-0.506,578.308,105.896,-11.414
1.042,-1.529,-0.114,598.572,112.061,-22.217
1.251,-1.558,0.288,621.521,103.210,-33.203
1.483,-1.656,0.761,640.747,82.703,-44.495
1.629,-1.756,1.111,643.066,46.387,-49.133
1.490,-1.794,1.341,621.033,2.136,-43.640
1.192,-1.729,1.434,567.078,-31.433,-37.170
0.968,-1.559,1.423,485.046,-43.518,-27.649
0.803,-1.358,1.387,395.020,-32.776,-16.296
0.750,-1.156,1.301,312.073,-5.798,-7.263
0.816,-1.028,1.237,243.591,25.574,0.244
0.950,-0.919,1.152,188.293,52.551,9.705
1.091,-0.848,1.088,145.142,69.275,17.273
1.191,-0.783,1.110,111.816,73.853,21.057
1.247,-0.715,1.146,84.839,63.477,20.691
1.431,-0.675,1.459,63.721,41.321,13.306
1.557,-0.624,1.654,44.861,-7.446,1.587
1.196,-0.598,1.328,28.137,-62.866,-5.127
0.846,-0.389,0.996,14.648,-74.524,-14.648
0.825,-0.291,0.806,9.949,-58.105,-18.677
0.926,-0.235,0.663,12.573,-43.640,-18.250
0.919,-0.158,0.526,11.902,-31.433,-15.747
0.919,-0.109,0.365,9.033,-22.583,-11.230
0.958,-0.077,0.248,7.202,-16.174,-8.179
0.996,-0.016,0.204,6.531,-12.695,-6.653
1.003,0.008,0.143,6.714,-13.672,-4.761
0.991,0.031,0.110,7.324,-15.808,-3.113
0.976,0.045,0.102,7.324,-15.259,-2.319
0.984,0.045,0.098,6.042,-12.268,-2.075
0.994,0.073,0.043,2.808,-10.437,-2.747
0.920,0.068,0.019,-0.366,-8.545,-2.197
0.935,0.075,-0.000,-4.028,-4.822,-0.671
0.959,0.065,-0.008,-7.263,-0.549,0.549
0.980,0.082,-0.028,-10.132,0.549,1.587
0.962,0.087,-0.043,-11.719,0.488,3.174
0.991,0.089,-0.030,-11.169,0.488,4.761
0.940,0.106,-0.025,-8.667,-0.916,5.920
0.902,0.097,-0.022,-4.517,-1.160,7.996
0.889,0.093,0.001,1.038,2.319,9.033
0.886,0.076,0.066,7.812,7.324,8.362
0.908,0.062,0.089,12.634,8.484,6.470
0.891,0.050,0.116,16.113,9.399,4.333
0.902,0.032,0.132,17.944,8.972,2.808
0.898,0.026,0.161,18.372,8.911,1.892
0.897,0.006,0.190,16.846,7.874,1.160
0.898,-0.001,0.194,13.245,7.019,0.183
0.893,-0.004,0.201,7.568,6.531,-0.366
0.908,-0.008,0.207,2.380,5.981,-0.854
0.913,-0.005,0.215,-2.014,5.249,-1.221
0.920,-0.007,0.222,-5.554,5.371,-1.892
0.936,-0.007,0.226,-8.545,6.348,-2.991
0.984,-0.001,0.254,-11.353,7.751,-4.272
1.033,0.002,0.264,-14.038,6.897,-5.188
1.043,-0.002,0.268,-16.174,3.113,-4.761
1.033,-0.001,0.255,-18.066,-1.160,-3.601
1.032,0.000,0.255,-20.508,-3.601,-2.625
1.038,-0.003,0.244,-22.827,-4.517,-0.732
1.060,-0.018,0.262,-25.085,-3.845,1.221
1.069,-0.024,0.257,-27.832,-4.150,2.197
1.067,-0.029,0.272,-31.372,-5.005,2.502
1.058,-0.025,0.278,-35.339,-5.493,2.441
1.048,-0.028,0.288,-39.246,-6.165,2.625
1.034,-0.025,0.273,-42.419,-7.446,3.601
1.006,-0.025,0.261,-45.288,-7.874,5.188
1.005,-0.031,0.245,-48.096,-7.446,6.470
0.980,-0.011,0.245,-51.208,-5.493,7.141
0.971,-0.013,0.232,-54.199,-3.235,8.606
0.991,-0.016,0.233,-57.068,-0.183,9.216
1.003,-0.010,0.234,-59.753,1.587,8.667
1.009,-0.009,0.234,-61.768,1.709,7.935
1.011,-0.005,0.239,-62.744,0.916,7.324
1.024,0.000,0.244,-61.951,-0.977,7.263
1.024,0.001,0.245,-60.547,-3.662,7.507
1.020,0.002,0.249,-59.021,-6.287,7.751
1.006,0.005,0.232,-57.739,-8.118,7.629
0.997,0.006,0.210,-58.472,-8.667,7.446
0.996,0.010,0.194,-60.364,-7.690,7.202
0.993,0.018,0.176,-62.805,-6.226,7.446
0.997,0.025,0.163,-65.063,-4.395,8.301
1.005,0.033,0.163,-66.895,-2.747,9.399
1.012,0.037,0.173,-67.627,-2.380,10.254
1.016,0.050,0.184,-67.566,-2.991,10.803
1.016,0.054,0.184,-66.467,-4.639,10.620
1.012,0.059,0.179,-64.331,-7.263,9.827
1.004,0.065,0.173,-62.744,-10.376,8.850
0.985,0.070,0.153,-62.012,-13.489,7.690
0.963,0.079,0.133,-62.500,-15.503,6.653
0.956,0.085,0.118,-64.087,-16.357,6.104
0.959,0.090,0.115,-65.491,-16.724,5.310
0.961,0.100,0.115,-66.284,-17.395,4.089
0.966,0.106,0.119,-66.406,-18.860,2.869
0.973,0.106,0.126,-65.918,-21.057,1.831
0.972,0.108,0.130,-65.125,-24.048,0.854
0.968,0.108,0.138,-64.514,-26.245,0.122
0.966,0.106,0.145,-63.721,-27.771,-0.427
0.958,0.102,0.146,-63.110,-28.687,-1.160
0.954,0.107,0.156,-62.195,-28.442,-1.709
0.964,0.108,0.170,-60.425,-27.466,-2.319
0.979,0.099,0.186,-58.838,-26.062,-2.502
0.991,0.093,0.204,-58.411,-25.452,-2.625
0.995,0.082,0.221,-58.105,-25.757,-2.258
1.001,0.072,0.244,-58.594,-26.428,-1.892
1.007,0.060,0.263,-59.937,-27.588,-1.709
1.008,0.047,0.288,-62.378,-29.602,-1.526
1.005,0.038,0.310,-65.674,-31.494,-1.343
1.002,0.034,0.332,-69.519,-33.325,-1.404

0.769,-0.299,-1.857,36.072,77.087,-62.622
0.719,-0.420,-2.135,63.171,81.482,-74.585
0.721,-0.624,-2.447,98.206,86.853,-86.365
0.754,-0.748,-2.665,136.658,90.149,-98.572
0.782,-0.805,-2.738,181.213,91.858,-113.220
0.778,-0.849,-2.790,236.206,91.431,-129.333
0.785,-0.896,-2.738,300.110,92.041,-144.775
0.750,-1.054,-2.605,368.652,96.008,-157.104
0.747,-1.216,-2.428,433.594,101.196,-162.109
0.822,-1.348,-2.097,486.938,106.567,-162.659
0.880,-1.413,-1.773,529.419,110.901,-165.222
1.079,-1.536,-1.465,566.467,109.924,-171.082
1.322,-1.587,-1.034,594.238,114.807,-176.636
1.614,-1.613,-0.513,612.122,115.234,-170.166
1.983,-1.571,0.086,616.211,106.506,-143.066
2.031,-1.458,0.597,602.234,89.294,-109.253
1.905,-1.462,0.987,573.242,67.993,-79.163
1.682,-1.376,1.223,526.062,58.289,-60.303
1.422,-1.180,1.454,467.346,63.660,-53.162
1.295,-0.970,1.583,404.785,81.604,-49.744
1.268,-0.835,1.596,346.313,105.225,-45.471
1.311,-0.711,1.573,290.649,125.732,-39.429
1.419,-0.567,1.526,241.699,134.033,-32.898
1.517,-0.415,1.480,203.003,125.854,-28.503
1.515,-0.276,1.363,174.072,101.685,-25.146
1.447,-0.180,1.208,153.687,72.754,-22.522
1.433,-0.131,1.154,142.151,52.124,-20.935
1.370,-0.158,1.005,134.766,33.936,-18.738
1.269,-0.192,0.870,120.483,22.278,-16.846
1.191,-0.197,0.706,98.694,19.165,-11.719
1.113,-0.157,0.515,71.167,20.813,-6.287
1.066,-0.069,0.324,41.565,23.071,-1.831
0.984,-0.008,0.109,15.686,25.330,2.380
1.003,0.122,-0.021,-4.578,27.039,5.920
1.026,0.153,-0.182,-15.686,25.391,11.230
0.972,0.198,-0.346,-21.057,22.583,12.573
0.940,0.213,-0.477,-20.935,21.851,11.597
0.912,0.361,-0.512,-16.418,23.926,7.202
0.922,0.329,-0.568,-6.653,25.085,7.507
0.919,0.343,-0.559,2.502,23.987,6.348
0.867,0.347,-0.575,8.911,20.996,4.028
0.789,0.333,-0.598,11.780,18.494,3.784
0.756,0.363,-0.572,10.803,19.653,4.456
0.756,0.367,-0.530,9.521,20.813,4.822
0.723,0.337,-0.527,7.629,18.677,4.639
0.698,0.368,-0.482,4.456,13.855,3.113
0.685,0.377,-0.450,3.601,7.690,0.916
0.692,0.354,-0.446,6.714,1.465,-2.625
0.695,0.350,-0.420,11.108,-2.808,-7.141
0.725,0.346,-0.383,16.479,-4.944,-11.292
0.751,0.336,-0.362,21.912,-6.042,-14.587
0.783,0.320,-0.338,26.550,-5.676,-16.907
0.838,0.308,-0.301,29.785,-4.089,-18.372
0.893,0.297,-0.263,30.945,-2.197,-19.226
0.977,0.302,-0.216,29.785,-0.977,-19.287
1.032,0.307,-0.195,27.344,-1.282,-18.127
1.062,0.318,-0.182,23.926,-3.174,-15.076
1.084,0.312,-0.184,20.630,-5.066,-11.108
1.058,0.318,-0.169,17.212,-6.104,-7.385
1.091,0.333,-0.170,14.160,-8.972,-4.944
1.058,0.297,-0.204,12.085,-12.634,-3.540
1.089,0.366,-0.149,8.667,-16.479,-3.479
1.040,0.321,-0.228,8.057,-24.780,-1.465
0.947,0.367,-0.228,5.676,-30.640,0.244
0.893,0.344,-0.245,4.456,-31.616,1.587
0.885,0.368,-0.269,4.578,-29.846,0.488
0.840,0.365,-0.271,4.822,-25.208,1.221
0.870,0.352,-0.278,5.615,-20.813,2.380
0.847,0.330,-0.281,5.859,-17.517,2.136
0.828,0.323,-0.269,4.700,-14.465,1.587
0.841,0.289,-0.259,3.540,-10.864,1.282
0.874,0.299,-0.225,1.343,-8.301,-0.610
0.912,0.298,-0.200,-0.549,-8.362,-1.587
0.945,0.306,-0.184,-1.770,-10.925,-1.465
0.953,0.308,-0.187,-2.930,-15.442,-0.854
0.961,0.310,-0.181,-4.028,-19.897,-0.183
0.966,0.307,-0.178,-5.005,-23.376,0.183
0.973,0.301,-0.172,-6.042,-26.062,0.122
0.968,0.301,-0.163,-7.812,-28.320,0.305
0.959,0.300,-0.158,-10.071,-29.053,1.526
0.960,0.292,-0.159,-12.451,-28.137,2.991
0.956,0.289,-0.154,-14.771,-25.757,4.395
0.972,0.283,-0.137,-17.944,-22.217,6.104
0.981,0.275,-0.121,-20.996,-18.738,7.996
0.992,0.279,-0.101,-24.109,-16.296,10.071
1.008,0.266,-0.088,-27.344,-14.771,12.024
1.021,0.258,-0.065,-31.067,-13.611,13.428
1.046,0.247,-0.045,-35.522,-14.038,14.404
1.067,0.250,-0.021,-40.283,-16.357,16.479
1.062,0.256,-0.003,-44.495,-20.630,19.287
1.074,0.244,0.002,-47.607,-25.208,22.949
1.076,0.233,0.029,-50.598,-29.053,24.414
1.079,0.208,0.046,-53.650,-31.982,25.269
1.062,0.179,0.055,-58.167,-33.936,26.550
1.059,0.157,0.060,-64.392,-34.424,28.564
1.057,0.157,0.076,-71.289,-32.654,31.006
1.055,0.149,0.074,-78.369,-30.212,34.302
1.053,0.123,0.054,-85.388,-28.137,38.635
1.052,0.131,0.055,-93.262,-26.001,42.725
1.030,0.132,0.042,-100.220,-24.658,46.448
1.023,0.122,0.029,-106.567,-23.987,49.805
1.026,0.110,0.032,-112.000,-23.621,52.429
1.041,0.100,0.046,-117.859,-25.452,54.382
1.043,0.079,0.045,-123.901,-30.457,56.213
1.036,0.064,0.036,-130.127,-37.842,57.922
1.002,0.056,0.016,-136.475,-45.959,59.387
0.979,0.040,-0.026,-142.578,-53.223,59.814
0.938,0.036,-0.084,-148.804,-58.289,58.716
0.920,0.065,-0.123,-155.457,-59.937,57.556
0.897,0.071,-0.182,-159.851,-59.631,56.152
0.888,0.068,-0.245,-163.269,-57.068,55.115
0.885,0.083,-0.299,-168.091,-51.880,54.749
0.872,0.107,-0.354,-172.363,-45.166,54.932
0.873,0.124,-0.409,-174.500,-37.354,55.847
0.904,0.164,-0.429,-175.842,-30.090,57.312
0.940,0.194,-0.439,-173.889,-26.855,58.777
0.984,0.200,-0.469,-169.189,-28.809,60.303
1.001,0.221,-0.481,-163.635,-35.645,60.974
0.989,0.229,-0.496,-157.471,-46.326,60.669

0.917,0.216,-2.101,48.279,-0.366,-17.273
1.092,0.205,-2.479,72.021,29.114,-24.597
1.349,0.202,-2.804,107.178,58.533,-27.466
1.621,0.160,-3.007,151.611,78.064,-26.184
1.821,0.050,-3.142,204.041,80.078,-23.071
1.896,-0.043,-3.131,257.019,66.772,-20.935
1.842,-0.160,-3.043,308.960,47.058,-17.578
1.755,-0.298,-2.851,358.032,31.860,-12.146
1.646,-0.508,-2.605,401.245,28.076,-5.981
1.547,-0.818,-2.393,436.768,39.124,-1.343
1.507,-1.001,-2.040,456.726,65.063,4.761
1.610,-1.155,-1.564,466.675,98.572,14.832
1.761,-1.342,-1.213,475.098,124.512,26.978
1.792,-1.345,-0.772,475.769,141.296,36.072
1.745,-1.278,-0.337,477.600,147.156,47.241
1.567,-1.340,-0.030,487.061,141.418,60.852
1.378,-1.433,0.277,493.713,131.470,73.914
1.136,-1.534,0.594,491.760,119.690,82.825
0.955,-1.584,0.956,481.262,108.337,84.412
0.874,-1.573,1.314,464.966,96.497,76.477
0.801,-1.564,1.552,442.688,81.543,62.866
0.737,-1.520,1.691,408.691,65.125,47.729
0.572,-1.375,1.766,364.624,53.406,34.180
0.412,-1.179,1.766,317.993,53.528,24.170
0.366,-1.009,1.700,273.865,68.604,17.212
0.377,-0.864,1.684,231.079,93.018,9.094
0.340,-1.011,1.964,182.800,122.498,0.427
0.394,-0.674,1.974,114.197,164.062,-5.981
1.022,-0.426,1.722,61.279,196.289,-8.484
1.218,-0.272,1.539,29.480,189.697,-7.812
1.395,-0.137,1.354,11.414,158.936,-14.771
1.501,-0.001,1.062,2.197,114.136,-19.409
1.513,0.124,0.784,-1.221,66.528,-21.973
1.494,0.218,0.548,-1.709,26.367,-24.719
1.440,0.272,0.327,-0.977,-3.723,-25.940
1.346,0.339,0.156,-2.991,-24.109,-24.231
1.282,0.406,0.036,-6.042,-34.058,-20.325
1.155,0.440,-0.068,-7.263,-33.875,-15.686
1.245,0.525,-0.002,-5.676,-29.602,-9.766
1.103,0.444,-0.072,-1.587,-27.588,-1.892
1.044,0.462,-0.046,1.221,-28.137,4.761
0.923,0.491,-0.008,1.038,-25.024,8.606
0.845,0.440,-0.060,2.502,-20.874,11.658
0.766,0.450,-0.057,-0.793,-12.512,13.000
0.737,0.457,-0.073,-3.845,-3.601,14.221
0.760,0.457,-0.065,-6.653,3.601,15.991
0.773,0.435,-0.070,-9.521,6.958,16.479
0.762,0.434,-0.070,-12.024,5.371,15.198
0.788,0.460,-0.046,-13.489,0.671,12.390
0.768,0.441,-0.034,-11.536,-5.554,8.972
0.781,0.447,0.001,-8.240,-13.062,5.127
0.741,0.427,0.012,-4.272,-20.630,3.235
0.698,0.436,0.024,-1.831,-24.719,2.075
0.653,0.416,0.023,-0.305,-23.010,2.014
0.640,0.420,0.023,-1.648,-16.479,0.854
0.667,0.452,0.041,-4.578,-8.179,-0.793
0.704,0.457,0.034,-6.836,-1.099,-0.977
0.736,0.468,0.036,-8.606,3.540,-0.427
0.744,0.468,0.033,-9.521,5.798,-0.488
0.770,0.465,0.041,-9.949,6.897,-0.549
0.816,0.452,0.036,-10.620,6.104,-1.282
0.845,0.473,0.047,-11.475,3.357,-2.625
0.865,0.474,0.047,-12.024,-1.282,-3.235
0.867,0.481,0.056,-11.536,-7.019,-3.418
0.841,0.475,0.057,-10.254,-13.000,-3.845
0.832,0.463,0.055,-9.338,-16.663,-4.822
0.839,0.455,0.053,-9.644,-16.602,-5.920
0.856,0.455,0.051,-10.071,-14.954,-6.836
0.877,0.455,0.051,-10.864,-12.512,-7.568
0.913,0.454,0.055,-11.169,-10.376,-7.507
0.925,0.462,0.052,-11.353,-9.033,-6.348
0.919,0.468,0.041,-11.169,-7.507,-4.944
0.918,0.473,0.038,-10.620,-4.761,-3.784
0.918,0.470,0.042,-9.766,-1.831,-3.052
0.916,0.470,0.057,-9.216,0.366,-1.892
0.901,0.464,0.073,-8.728,1.343,-1.038
0.892,0.447,0.089,-8.240,1.343,-0.916
0.892,0.428,0.106,-8.301,0.000,-1.831
0.885,0.422,0.122,-9.644,-1.953,-2.869
0.868,0.421,0.135,-11.475,-4.883,-3.174
0.861,0.402,0.131,-13.062,-7.324,-3.357
0.850,0.395,0.121,-15.625,-8.667,-3.845
0.835,0.403,0.111,-19.287,-8.301,-4.395
0.836,0.403,0.107,-22.583,-5.066,-4.822
0.880,0.403,0.114,-25.146,-1.770,-6.104
0.927,0.400,0.119,-27.161,-0.610,-7.324
0.958,0.399,0.111,-29.175,-2.014,-7.141
0.972,0.402,0.105,-31.006,-5.249,-5.981
0.977,0.409,0.108,-32.410,-7.935,-5.188
0.983,0.411,0.115,-32.593,-9.949,-3.723
0.982,0.399,0.118,-32.837,-11.719,-2.686
0.980,0.393,0.128,-33.752,-13.123,-1.404
0.987,0.385,0.138,-35.339,-14.221,-0.488
0.990,0.380,0.157,-37.537,-15.625,0.061
0.990,0.373,0.177,-40.466,-17.517,0.732
0.987,0.369,0.197,-43.701,-19.897,1.404
0.962,0.362,0.205,-46.875,-22.888,1.465
0.940,0.350,0.209,-49.927,-24.963,1.282
0.925,0.335,0.215,-53.833,-25.696,0.977
0.904,0.319,0.219,-58.228,-25.574,0.977
0.883,0.303,0.226,-63.293,-24.170,1.099
0.868,0.296,0.234,-69.336,-22.156,1.343
0.858,0.294,0.240,-74.463,-19.958,0.671
0.865,0.281,0.244,-79.590,-18.311,-0.366
0.893,0.272,0.253,-85.083,-18.250,-1.221
0.900,0.275,0.256,-90.698,-21.118,-2.258
0.902,0.272,0.241,-96.008,-25.757,-3.052
0.886,0.273,0.216,-101.746,-30.579,-4.028
0.877,0.286,0.191,-106.628,-34.729,-5.981
0.865,0.291,0.155,-110.718,-37.170,-8.179
0.851,0.285,0.113,-113.770,-37.720,-11.108
0.856,0.292,0.087,-116.394,-36.072,-14.160
0.859,0.303,0.066,-118.225,-33.691,-18.372
0.885,0.299,0.047,-119.263,-31.189,-22.644
0.937,0.278,0.033,-120.178,-29.114,-25.452
0.986,0.265,0.014,-123.596,-29.236,-25.146
1.003,0.265,-0.006,-128.723,-32.104,-22.705
1.000,0.278,-0.044,-134.033,-35.767,-19.653
0.979,0.293,-0.086,-137.573,-37.720,-16.846

1.115,-0.075,-1.789,103.516,-8.118,-3.052
1.164,-0.121,-2.049,135.071,-11.841,-5.981
1.239,-0.239,-2.291,174.622,-16.846,-8.850
1.340,-0.398,-2.534,220.459,-21.973,-11.292
1.441,-0.522,-2.657,269.775,-23.743,-14.893
1.614,-0.754,-2.718,323.914,-21.729,-16.785
1.775,-0.984,-2.686,377.197,-18.005,-16.663
1.792,-1.134,-2.541,423.950,-10.559,-14.648
1.665,-1.243,-2.300,465.698,2.441,-5.676
1.486,-1.360,-1.995,500.977,22.522,10.315
1.280,-1.567,-1.713,533.325,49.133,26.672
1.167,-1.723,-1.298,555.481,81.299,37.598
1.211,-1.686,-0.689,567.871,111.877,43.518
1.292,-1.806,-0.145,583.130,128.540,49.194
1.405,-2.020,0.272,596.252,129.944,55.603
1.430,-2.076,0.788,591.980,119.934,61.646
1.286,-2.086,1.390,575.195,96.924,67.749
1.037,-1.994,1.797,542.847,65.247,70.007
0.669,-1.918,1.931,491.333,36.865,64.026
0.389,-1.732,2.051,421.082,27.649,51.147
0.279,-1.436,2.120,347.046,36.926,35.461
0.341,-1.183,2.086,284.973,53.650,21.179
0.535,-0.987,1.987,234.741,67.322,10.986
0.740,-0.855,1.937,192.322,73.059,4.761
0.903,-0.627,1.682,153.931,68.359,2.747
1.117,-0.484,1.568,126.648,59.143,3.967
1.353,-0.367,1.433,103.821,39.856,3.845
1.420,-0.290,1.310,84.351,8.728,5.310
1.348,-0.274,1.193,65.674,-23.132,7.141
1.232,-0.142,1.038,44.922,-42.969,5.798
1.065,-0.023,0.798,29.419,-48.523,5.554
1.000,0.061,0.582,20.569,-43.274,7.690
0.955,0.124,0.390,17.090,-36.682,8.667
0.913,0.181,0.241,17.273,-32.349,7.751
0.872,0.188,0.126,19.836,-29.724,5.920
0.849,0.205,0.071,21.790,-28.015,3.296
0.859,0.217,0.049,21.545,-26.733,0.977
0.878,0.212,0.028,21.362,-27.771,-1.587
0.918,0.241,0.019,18.982,-30.151,-2.991
0.941,0.199,-0.013,15.747,-32.043,-2.441
0.891,0.236,-0.019,10.437,-31.128,-3.235
0.866,0.247,-0.052,5.920,-28.992,-2.014
0.906,0.231,-0.077,0.366,-21.362,1.160
0.887,0.264,-0.064,-4.517,-11.902,2.380
0.995,0.252,-0.002,-7.019,-4.578,3.967
0.944,0.253,-0.018,-7.141,-2.563,5.615
0.948,0.275,-0.034,-4.761,-2.319,9.399
0.880,0.247,-0.025,0.488,-0.488,11.536
0.825,0.240,-0.016,5.188,2.502,9.949
0.820,0.215,-0.006,9.766,6.470,7.019
0.854,0.198,0.030,12.939,9.949,3.784
0.874,0.207,0.085,13.855,9.460,1.099
0.890,0.191,0.109,14.526,4.578,1.160
0.864,0.176,0.115,14.282,-0.549,1.038
0.852,0.191,0.142,11.475,-2.136,-0.122
0.864,0.198,0.161,9.277,-0.916,-1.648
0.912,0.190,0.169,6.897,2.258,-3.052
0.972,0.208,0.201,3.174,5.737,-3.784
1.010,0.226,0.216,0.122,6.470,-4.028
1.026,0.219,0.205,-1.709,4.639,-3.479
1.039,0.229,0.214,-4.028,2.319,-2.686
1.036,0.223,0.202,-6.042,-0.610,-1.160
1.043,0.227,0.193,-7.751,-3.174,0.122
1.010,0.233,0.143,-10.071,-5.493,1.160
0.992,0.267,0.160,-11.536,-5.249,2.197
0.999,0.260,0.158,-12.512,-4.456,3.540
0.989,0.239,0.142,-12.390,-4.333,5.188
0.977,0.232,0.130,-13.306,-3.662,5.554
0.977,0.239,0.131,-14.099,-2.136,5.737
0.982,0.238,0.141,-14.160,-1.099,5.310
0.997,0.227,0.156,-13.611,-1.465,5.066
1.001,0.216,0.166,-13.794,-2.808,5.005
1.000,0.219,0.173,-14.648,-5.249,5.005
0.994,0.212,0.172,-16.174,-6.714,4.639
0.994,0.205,0.171,-18.250,-6.958,4.578
0.989,0.205,0.174,-21.179,-7.141,5.127
0.983,0.210,0.175,-24.170,-7.019,6.165
0.973,0.213,0.164,-27.161,-6.531,7.202
0.960,0.210,0.146,-28.870,-5.798,7.568
0.949,0.217,0.139,-30.518,-4.822,7.935
0.937,0.220,0.129,-31.494,-3.418,8.545
0.932,0.227,0.125,-32.166,-1.892,9.338
0.923,0.227,0.113,-32.471,-0.977,9.460
0.914,0.236,0.106,-33.142,-0.122,8.911
0.908,0.246,0.100,-34.058,-0.305,7.874
0.907,0.250,0.089,-34.241,-1.282,6.470
0.901,0.249,0.076,-33.997,-2.930,4.578
0.909,0.250,0.070,-34.058,-4.822,2.686
0.920,0.256,0.070,-34.546,-6.348,0.793
0.932,0.264,0.066,-34.485,-8.179,-0.916
0.937,0.268,0.059,-34.607,-10.254,-2.014
0.938,0.275,0.058,-34.729,-12.024,-2.441
0.932,0.279,0.063,-34.485,-13.245,-2.930
0.927,0.273,0.070,-33.264,-14.282,-3.235
0.930,0.264,0.082,-32.776,-14.648,-3.540
0.933,0.254,0.100,-32.959,-15.198,-4.211
0.936,0.249,0.118,-34.119,-15.442,-4.578
0.942,0.248,0.134,-35.706,-15.747,-4.272
0.960,0.248,0.151,-37.476,-16.174,-3.845
0.966,0.244,0.158,-39.063,-16.602,-3.601
0.962,0.243,0.151,-41.260,-16.174,-3.357
0.945,0.258,0.145,-43.762,-14.954,-2.991
0.937,0.264,0.133,-45.654,-12.634,-2.441
0.932,0.269,0.121,-46.387,-9.766,-1.709
0.946,0.271,0.115,-46.753,-6.958,-0.671
0.958,0.271,0.106,-46.448,-5.249,-0.061
0.960,0.272,0.099,-46.326,-4.700,0.610
0.956,0.278,0.094,-45.593,-5.005,0.488
0.950,0.281,0.088,-44.312,-5.615,-0.244
0.948,0.285,0.082,-43.030,-6.165,-1.221
0.958,0.289,0.085,-41.443,-6.531,-2.075
0.971,0.283,0.086,-39.612,-7.690,-2.319
0.973,0.277,0.082,-38.635,-9.094,-2.258
0.970,0.278,0.079,-38.818,-10.742,-1.953
0.970,0.274,0.082,-39.185,-12.634,-1.282
0.965,0.269,0.082,-39.734,-14.099,-0.732
0.958,0.277,0.086,-40.405,-14.587,0.305
0.958,0.279,0.096,-40.771,-13.916,1.404
0.961,0.276,0.108,-40.405,-12.756,2.869

1.097,0.092,-1.559,134.216,10.620,-15.381
1.163,0.073,-1.610,161.865,2.563,-16.174
1.195,-0.024,-1.715,193.481,-10.132,-14.282
1.181,-0.148,-1.833,224.976,-24.597,-10.132
1.167,-0.274,-1.879,251.282,-35.950,-6.042
1.180,-0.409,-1.907,276.611,-42.542,-4.089
1.182,-0.526,-1.919,302.124,-42.786,-6.775
1.225,-0.629,-1.867,328.125,-34.729,-11.536
1.306,-0.710,-1.735,354.919,-18.555,-15.442
1.391,-0.821,-1.580,383.911,1.160,-14.587
1.483,-0.953,-1.389,412.231,21.973,-6.836
1.556,-1.040,-1.140,436.707,43.335,5.615
1.557,-1.086,-0.880,459.229,63.049,20.691
1.554,-1.145,-0.599,479.980,80.688,37.781
1.585,-1.156,-0.255,497.803,94.727,56.274
1.542,-1.213,0.058,514.404,101.501,74.524
1.543,-1.264,0.428,528.015,101.135,92.041
1.519,-1.296,0.819,536.743,91.919,107.971
1.368,-1.461,1.152,540.710,71.594,122.192
1.191,-1.573,1.516,526.794,45.959,131.409
0.975,-1.567,1.849,490.601,22.766,130.310
0.626,-1.506,2.063,437.622,4.822,120.300
0.283,-1.391,2.207,370.728,1.587,101.563
-0.020,-1.247,2.271,292.236,16.541,78.430
-0.033,-1.139,2.291,213.440,55.725,54.260
-0.011,-1.451,2.803,128.113,101.074,34.058
0.206,-0.902,2.882,15.625,127.869,3.845
0.672,-0.395,2.053,-54.749,125.977,-11.841
0.925,-0.190,1.377,-60.791,103.210,-9.216
1.046,0.026,0.987,-45.288,71.716,-6.470
1.082,0.061,0.665,-23.010,37.903,-3.113
1.049,0.027,0.369,-6.714,10.254,-4.517
1.122,0.050,0.182,-4.272,-5.920,-11.658
1.226,0.142,0.094,-9.705,-17.456,-22.644
1.291,0.282,0.074,-15.686,-32.349,-32.837
1.331,0.402,0.057,-15.503,-52.002,-36.072
1.173,0.339,-0.131,-10.010,-69.397,-31.006
1.091,0.473,-0.076,-5.798,-71.838,-27.893
1.066,0.455,-0.077,0.854,-62.073,-23.865
1.033,0.387,-0.091,6.287,-47.058,-19.470
1.031,0.371,-0.106,7.935,-30.212,-11.414
0.965,0.396,-0.073,7.080,-13.428,-4.395
0.929,0.389,-0.063,7.568,1.160,2.686
0.905,0.363,-0.036,9.155,14.282,8.850
0.915,0.363,0.012,10.864,23.926,12.817
0.942,0.321,0.033,12.329,27.283,15.320
0.938,0.303,0.055,12.451,24.475,15.381
0.921,0.291,0.067,11.841,17.151,13.855
0.889,0.293,0.078,11.597,8.484,10.803
0.874,0.285,0.087,12.573,0.549,6.897
0.845,0.284,0.092,14.160,-5.554,3.845
0.825,0.284,0.100,15.991,-9.155,2.319
0.814,0.268,0.095,17.822,-9.399,1.526
0.805,0.274,0.109,18.311,-6.592,0.610
0.809,0.275,0.126,18.555,-2.258,0.183
0.805,0.259,0.121,18.372,1.953,0.183
0.864,0.253,0.142,16.968,6.592,0.977
0.826,0.255,0.114,15.259,8.972,2.258
0.878,0.310,0.180,13.794,11.169,2.625
0.884,0.283,0.192,13.245,11.108,0.916
0.915,0.247,0.200,12.756,8.728,-0.061
0.911,0.275,0.222,10.437,4.639,-0.854
0.876,0.253,0.190,9.155,2.014,-1.343
0.891,0.268,0.211,7.690,2.136,-4.028
0.924,0.294,0.222,7.385,3.723,-5.371
0.977,0.266,0.219,8.057,3.723,-3.967
0.990,0.255,0.222,7.935,1.282,-3.357
1.000,0.251,0.210,5.920,-1.465,-3.235
0.994,0.270,0.207,2.869,-3.662,-3.052
0.978,0.285,0.194,0.977,-4.822,-2.319
0.969,0.288,0.184,0.305,-4.883,-1.038
0.959,0.269,0.165,0.427,-3.357,-0.488
0.956,0.271,0.159,-0.488,-0.732,-0.671
0.962,0.282,0.174,-1.526,2.319,-0.488
0.959,0.279,0.180,-1.343,3.174,0.183
0.965,0.279,0.194,-0.061,1.587,0.854
0.955,0.260,0.200,1.404,-1.648,1.221
0.940,0.240,0.197,1.465,-4.944,0.488
0.930,0.240,0.203,-0.122,-6.653,0.183
0.908,0.248,0.207,-2.502,-6.958,0.549
0.888,0.258,0.212,-4.028,-6.409,0.732
0.875,0.254,0.222,-3.967,-5.371,-0.061
0.879,0.244,0.227,-3.540,-5.066,-1.221
0.904,0.226,0.211,-4.822,-5.615,-2.563
0.909,0.234,0.198,-8.057,-5.859,-3.052
0.897,0.253,0.178,-12.085,-5.432,-2.502
0.879,0.262,0.160,-14.404,-3.601,-2.014
0.877,0.274,0.159,-15.503,-0.366,-2.319
0.906,0.280,0.161,-14.832,2.686,-2.747
0.952,0.268,0.154,-13.306,3.601,-2.991
0.990,0.266,0.158,-12.085,1.770,-3.174
1.000,0.268,0.162,-11.414,-1.770,-3.113
0.989,0.269,0.163,-10.681,-5.920,-2.991
0.975,0.272,0.172,-10.010,-8.789,-2.869
0.965,0.268,0.181,-9.766,-10.742,-2.991
0.954,0.265,0.183,-9.888,-12.329,-3.052
0.945,0.269,0.175,-10.620,-12.695,-3.052
0.931,0.273,0.163,-12.268,-10.986,-2.563
0.911,0.279,0.152,-13.306,-7.568,-1.648
0.905,0.282,0.149,-14.648,-2.930,-0.732
0.910,0.285,0.157,-15.564,2.014,-0.244
0.932,0.287,0.173,-15.625,5.554,-0.183
0.945,0.279,0.188,-15.442,5.920,-0.122
0.957,0.271,0.197,-15.503,3.052,-0.366
0.962,0.266,0.210,-15.686,-1.587,-0.977
0.957,0.262,0.220,-15.686,-6.470,-1.648
0.953,0.254,0.233,-16.541,-10.864,-1.953
0.953,0.251,0.250,-17.334,-15.442,-2.625
0.952,0.242,0.261,-18.555,-19.775,-3.174
0.943,0.234,0.270,-20.569,-23.254,-3.540
0.940,0.224,0.283,-23.132,-25.330,-3.662
0.926,0.216,0.288,-26.917,-26.001,-3.723
0.923,0.216,0.302,-31.311,-24.719,-3.723
0.931,0.205,0.317,-35.583,-22.400,-3.662
0.936,0.199,0.327,-40.588,-19.897,-3.113
0.940,0.191,0.338,-46.387,-17.334,-2.686
0.952,0.188,0.350,-52.734,-14.465,-2.502
0.964,0.182,0.362,-59.265,-12.878,-2.808
0.979,0.174,0.374,-65.491,-12.573,-3.052

1.357,0.150,-1.297,72.815,-1.160,-14.893
1.408,0.127,-1.453,91.187,-2.808,-15.564
1.452,0.075,-1.628,114.136,-5.249,-14.648
1.464,0.006,-1.802,140.564,-6.104,-12.390
1.497,-0.099,-1.953,169.739,-3.662,-6.958
1.525,-0.243,-2.117,201.538,1.831,-0.671
1.539,-0.363,-2.252,234.924,11.230,4.822
1.539,-0.473,-2.318,269.531,23.621,10.010
1.498,-0.582,-2.324,308.167,38.086,14.771
1.430,-0.708,-2.269,349.609,54.077,19.409
1.348,-0.906,-2.147,393.005,72.205,22.278
1.305,-1.082,-1.915,432.373,93.079,23.621
1.304,-1.298,-1.634,467.102,113.831,22.522
1.308,-1.482,-1.330,495.789,133.301,20.691
1.369,-1.573,-0.945,515.869,150.024,23.010
1.484,-1.656,-0.556,530.090,156.372,32.104
1.523,-1.734,-0.186,539.917,149.475,43.274
1.505,-1.711,0.262,540.894,135.498,53.955
1.383,-1.626,0.714,533.691,117.126,65.308
1.175,-1.725,1.061,522.034,96.069,75.989
0.992,-1.682,1.536,493.713,81.726,79.956
0.813,-1.509,1.872,450.562,75.134,73.425
0.666,-1.335,2.093,403.564,76.233,59.937
0.562,-1.083,2.218,352.478,85.938,45.715
0.564,-0.893,2.250,303.772,98.083,37.781
0.487,-0.869,2.478,257.263,109.436,32.471
-0.049,-1.469,2.903,187.622,132.324,19.226
0.442,-0.297,3.092,81.482,190.857,-10.742
1.506,-0.087,3.048,35.156,195.923,-17.578
1.717,-0.131,2.125,34.851,125.305,-4.333
1.516,0.064,1.433,26.794,49.500,-1.831
1.345,0.125,0.918,13.550,-7.812,9.827
1.162,0.140,0.417,3.540,-46.570,17.395
0.992,0.234,0.090,-7.080,-64.697,15.442
0.921,0.378,-0.077,-14.160,-67.322,7.996
0.921,0.417,-0.183,-11.719,-63.782,1.831
1.001,0.440,-0.216,-5.127,-59.509,-3.479
1.026,0.441,-0.229,2.747,-58.289,-7.690
0.998,0.408,-0.274,8.850,-58.105,-7.568
0.929,0.402,-0.279,11.292,-53.711,-5.066
0.871,0.411,-0.261,11.719,-43.457,-2.625
0.839,0.414,-0.233,12.207,-29.053,0.305
0.823,0.397,-0.219,11.047,-13.855,5.188
0.862,0.404,-0.165,8.545,-2.197,9.766
0.848,0.371,-0.174,6.897,3.723,12.878
0.843,0.396,-0.135,4.578,6.897,12.939
0.829,0.392,-0.105,4.761,7.690,11.169
0.829,0.382,-0.102,6.836,5.737,8.545
0.820,0.370,-0.102,10.193,3.296,6.287
0.807,0.374,-0.062,14.160,1.648,4.883
0.795,0.368,-0.016,18.616,-0.061,3.845
0.800,0.329,-0.002,23.132,-2.075,2.136
0.803,0.318,0.021,24.841,-2.686,-0.549
0.813,0.328,0.067,24.170,-1.465,-2.258
0.829,0.330,0.111,23.254,0.183,-2.380
0.813,0.322,0.140,22.461,2.502,-2.808
0.831,0.324,0.190,21.545,4.761,-3.784
0.833,0.292,0.188,20.508,6.348,-4.761
0.869,0.298,0.202,16.296,9.583,-4.944
0.908,0.300,0.210,12.085,12.878,-4.883
0.941,0.326,0.214,8.911,14.099,-5.798
0.969,0.317,0.234,6.897,12.329,-6.470
1.007,0.357,0.246,6.470,6.592,-7.446
1.017,0.337,0.222,6.348,-1.648,-6.226
0.999,0.315,0.179,4.150,-9.827,-4.883
0.982,0.349,0.162,1.221,-13.794,-4.700
0.966,0.350,0.126,-0.183,-13.855,-4.883
0.982,0.362,0.122,-0.610,-10.071,-4.211
1.005,0.365,0.125,-0.732,-5.920,-3.174
1.015,0.364,0.126,-0.549,-4.272,-2.075
1.016,0.355,0.113,-0.732,-4.272,-0.305
1.004,0.355,0.089,-0.732,-4.883,1.160
0.982,0.363,0.086,-0.732,-4.883,2.808
0.958,0.361,0.088,-0.183,-4.089,4.395
0.927,0.357,0.095,0.488,-3.357,4.700
0.905,0.349,0.105,0.732,-3.357,4.272
0.900,0.344,0.107,-0.183,-3.784,3.845
0.902,0.347,0.114,-0.977,-4.761,3.540
0.913,0.347,0.126,-1.099,-6.775,3.662
0.912,0.344,0.137,-0.916,-10.376,3.479
0.898,0.344,0.151,-0.793,-15.137,3.052
0.875,0.334,0.161,-0.916,-19.531,2.808
0.846,0.314,0.162,-2.197,-22.339,1.465
0.821,0.302,0.159,-4.639,-22.400,-1.282
0.826,0.327,0.174,-7.935,-19.287,-3.296
0.857,0.332,0.179,-10.254,-15.320,-3.296
0.874,0.326,0.170,-11.597,-12.634,-2.380
0.830,0.327,0.148,-13.855,-10.376,-1.099
0.888,0.344,0.173,-16.724,-7.263,-0.671
0.891,0.333,0.167,-17.944,-5.127,-1.282
0.930,0.316,0.172,-20.081,-6.287,-2.075
0.918,0.312,0.148,-24.414,-8.301,-2.441
0.932,0.345,0.156,-28.503,-8.301,-3.113
0.954,0.361,0.145,-30.640,-7.629,-2.625
0.946,0.363,0.127,-30.640,-7.019,-1.343
0.937,0.366,0.118,-30.151,-5.676,0.244
0.955,0.371,0.130,-29.175,-3.296,0.671
0.958,0.360,0.132,-28.259,-2.136,0.671
0.969,0.357,0.141,-29.053,-2.563,0.977
0.942,0.348,0.132,-31.555,-4.272,0.977
0.936,0.348,0.131,-34.607,-5.127,1.160
0.922,0.367,0.133,-37.598,-5.127,1.709
0.924,0.366,0.112,-38.635,-5.371,3.235
0.939,0.378,0.121,-38.696,-4.639,4.456
0.959,0.366,0.119,-37.354,-5.066,5.249
0.963,0.357,0.117,-36.743,-7.141,5.493
0.953,0.353,0.118,-37.354,-10.376,5.310
0.935,0.350,0.105,-39.001,-13.855,5.310
0.913,0.359,0.093,-41.199,-16.235,5.249
0.894,0.371,0.078,-42.969,-17.273,5.798
0.877,0.394,0.063,-43.396,-16.785,6.714
0.861,0.411,0.046,-41.748,-14.771,7.202
0.851,0.416,0.028,-37.354,-11.536,6.592
0.857,0.413,0.023,-31.738,-7.874,5.188
0.875,0.402,0.025,-27.039,-4.700,4.089
0.893,0.393,0.029,-23.254,-3.113,3.174
0.900,0.392,0.026,-20.630,-3.479,2.258
0.899,0.397,0.021,-19.165,-5.310,1.709
0.896,0.403,0.015,-18.494,-7.507,1.221

1.235,0.012,-1.566,89.783,6.409,-10.925
1.296,-0.012,-1.835,111.206,7.996,-9.094
1.391,-0.083,-2.136,140.747,9.460,-8.545
1.484,-0.193,-2.500,181.091,8.179,-8.667
1.575,-0.306,-2.754,226.624,7.385,-8.911
1.627,-0.427,-2.911,278.748,8.728,-8.972
1.652,-0.564,-2.939,337.585,15.564,-6.165
1.665,-0.833,-2.881,398.865,27.405,1.709
1.650,-1.086,-2.652,455.933,45.044,12.695
1.608,-1.328,-2.258,501.953,68.726,26.001
1.572,-1.648,-1.837,537.659,94.177,42.114
1.617,-1.752,-1.226,561.157,120.728,52.917
1.798,-1.648,-0.325,576.050,143.066,59.937
1.903,-1.692,0.528,595.398,143.616,72.266
1.725,-1.793,1.163,608.032,119.507,89.905
1.277,-2.039,1.595,598.938,87.769,103.638
0.720,-1.923,2.057,550.964,72.327,105.774
0.168,-1.737,2.207,479.797,83.069,96.130
-0.050,-1.461,2.343,402.893,122.498,77.332
0.053,-1.109,2.446,333.130,174.377,54.443
0.333,-0.848,2.460,281.128,213.867,34.485
0.641,-0.668,2.407,241.882,228.516,21.240
0.915,-0.546,2.321,207.275,217.651,14.282
1.023,-0.393,2.242,172.241,185.120,9.460
0.989,-0.347,2.014,137.146,146.790,2.380
0.925,-0.178,1.802,96.863,119.080,-3.235
1.010,0.123,1.505,60.852,102.356,-9.460
1.130,0.185,1.162,42.297,86.609,-9.705
1.164,0.207,0.848,33.630,67.200,-8.667
1.202,0.214,0.580,24.353,47.974,-9.338
1.222,0.246,0.360,15.076,29.663,-10.620
1.292,0.333,0.249,7.629,11.292,-12.512
1.345,0.364,0.141,5.554,-10.437,-12.024
1.347,0.346,0.041,6.958,-34.180,-9.888
1.289,0.360,-0.011,7.202,-54.443,-8.972
1.200,0.373,-0.038,7.141,-66.589,-7.568
1.077,0.374,-0.079,6.409,-69.092,-3.662
0.988,0.364,-0.123,4.761,-62.561,1.465
0.881,0.370,-0.144,3.052,-49.316,6.653
0.774,0.370,-0.155,0.854,-30.640,10.864
0.787,0.386,-0.113,0.366,-10.620,12.817
0.752,0.334,-0.118,1.282,3.967,13.672
0.789,0.345,-0.085,0.000,12.756,13.428
0.759,0.374,-0.039,-0.061,14.771,12.573
0.758,0.340,-0.037,2.136,11.169,12.085
0.732,0.329,-0.031,3.601,4.883,8.728
0.723,0.328,-0.033,4.272,-1.465,5.005
0.700,0.329,-0.032,5.188,-6.104,1.221
0.716,0.344,0.005,5.920,-8.057,-2.502
0.747,0.329,0.025,7.568,-10.193,-5.371
0.778,0.319,0.035,8.667,-13.000,-8.850
0.795,0.327,0.027,7.874,-15.137,-11.719
0.808,0.347,0.026,6.836,-13.184,-12.573
0.855,0.361,0.060,6.470,-7.629,-11.780
0.856,0.334,0.045,7.385,-1.770,-10.376
0.916,0.390,0.122,7.202,4.700,-10.559
0.966,0.359,0.142,7.263,7.751,-10.315
1.030,0.339,0.140,6.042,6.470,-9.277
1.023,0.360,0.105,3.113,2.869,-7.507
0.974,0.332,0.081,0.916,1.282,-4.761
1.013,0.418,0.098,0.183,2.258,-5.066
0.988,0.397,0.135,2.014,3.906,-3.174
0.990,0.362,0.110,3.540,1.709,0.366
0.988,0.375,0.162,3.174,-1.404,2.747
0.941,0.348,0.166,2.075,-6.470,2.747
0.932,0.364,0.206,0.183,-12.878,1.160
0.915,0.346,0.187,-1.404,-21.179,-0.977
0.893,0.346,0.160,-3.296,-28.503,-2.808
0.867,0.355,0.134,-5.920,-31.860,-3.235
0.842,0.360,0.113,-7.263,-31.006,-3.723
0.811,0.360,0.111,-7.507,-25.513,-4.639
0.810,0.361,0.122,-7.385,-17.700,-5.005
0.811,0.338,0.127,-7.080,-9.766,-4.822
0.841,0.305,0.121,-7.751,-2.808,-5.127
0.875,0.296,0.126,-10.498,3.845,-5.920
0.917,0.311,0.123,-13.184,9.583,-5.981
0.955,0.328,0.128,-14.221,12.695,-5.005
0.996,0.322,0.118,-13.855,12.939,-3.418
1.000,0.324,0.115,-13.062,10.498,-2.930
0.989,0.324,0.115,-12.451,6.958,-2.319
0.989,0.319,0.113,-11.963,4.456,-2.075
0.988,0.306,0.103,-11.292,2.808,-2.747
1.001,0.304,0.102,-12.207,1.831,-3.174
1.011,0.323,0.109,-13.916,0.977,-2.747
1.000,0.332,0.102,-14.587,-0.549,-1.160
0.994,0.334,0.096,-13.916,-1.709,0.610
0.976,0.336,0.090,-13.550,-2.441,1.465
0.966,0.336,0.086,-13.367,-2.869,2.014
0.976,0.337,0.083,-13.672,-2.686,2.075
0.973,0.337,0.074,-13.794,-2.930,2.197
0.969,0.345,0.068,-13.977,-4.089,2.502
0.953,0.344,0.057,-14.038,-4.883,2.625
0.948,0.349,0.054,-13.428,-4.639,2.197
0.945,0.352,0.059,-12.329,-4.395,1.099
0.944,0.348,0.062,-10.559,-4.456,0.916
0.936,0.344,0.064,-9.460,-5.310,0.854
0.919,0.342,0.064,-8.301,-5.859,0.793
0.927,0.348,0.077,-7.874,-5.371,1.038
0.922,0.336,0.078,-6.470,-5.127,1.587
0.919,0.329,0.081,-6.226,-4.944,2.136
0.905,0.333,0.090,-6.592,-3.601,2.014
0.917,0.335,0.103,-7.324,-1.770,2.136
0.936,0.325,0.113,-7.812,-0.427,2.625
0.964,0.331,0.126,-9.033,-0.305,3.052
0.965,0.336,0.131,-10.742,-2.197,3.540
0.959,0.341,0.132,-11.658,-4.822,3.906
0.953,0.341,0.133,-12.390,-6.592,3.601
0.950,0.345,0.137,-13.000,-7.690,3.601
0.943,0.347,0.136,-13.611,-8.118,3.906
0.932,0.356,0.134,-14.893,-7.935,4.822
0.919,0.362,0.130,-15.869,-7.446,5.432
0.915,0.364,0.128,-16.296,-6.470,5.737
0.911,0.366,0.127,-16.418,-5.554,5.920
0.906,0.369,0.126,-16.785,-4.944,6.042
0.897,0.367,0.121,-16.602,-4.456,6.226
0.893,0.365,0.121,-17.151,-3.662,6.653
0.896,0.363,0.120,-17.944,-2.625,6.653
0.899,0.367,0.125,-19.165,-2.075,6.714
0.901,0.368,0.124,-20.630,-2.197,6.958

1.120,-0.017,-1.955,64.575,81.848,-61.523
1.289,-0.107,-2.307,95.520,79.834,-61.340
1.465,-0.224,-2.654,138.977,71.533,-61.401
1.624,-0.334,-2.929,192.200,60.669,-62.805
1.705,-0.466,-3.070,254.456,52.429,-63.538
1.759,-0.697,-3.107,323.730,50.232,-59.021
1.839,-0.966,-3.023,390.869,56.763,-49.072
1.894,-1.226,-2.794,446.716,70.557,-39.001
1.908,-1.476,-2.513,488.464,85.510,-29.724
1.785,-1.564,-2.160,516.235,102.112,-23.010
1.696,-1.588,-1.704,535.645,121.704,-16.113
1.684,-1.607,-1.253,555.664,138.245,-8.118
1.649,-1.612,-0.793,577.759,149.231,-2.014
1.613,-1.724,-0.337,598.022,155.396,7.996
1.605,-1.887,0.116,609.131,154.419,21.667
1.521,-1.968,0.569,605.164,146.667,34.912
1.357,-1.952,0.991,586.304,132.935,45.410
1.102,-1.901,1.395,555.908,116.943,48.218
0.902,-1.783,1.772,513.672,106.750,42.969
0.728,-1.669,1.990,463.989,102.966,31.433
0.668,-1.486,2.158,404.419,106.995,17.151
0.720,-1.247,2.239,338.196,113.220,6.104
0.803,-1.031,2.296,271.729,112.854,-0.977
0.782,-0.717,2.105,208.313,105.530,-5.859
1.153,-0.471,2.245,158.020,105.713,-9.033
1.708,-0.513,2.661,121.948,89.172,-11.475
1.596,-0.674,2.370,91.431,44.800,-18.555
1.446,-0.258,1.851,35.950,14.954,-19.043
1.255,-0.008,1.155,-3.418,1.526,-14.832
1.240,0.169,0.681,-19.958,-4.333,-13.245
1.206,0.264,0.312,-23.254,-13.306,-12.451
1.171,0.325,0.042,-20.447,-26.733,-10.132
1.114,0.379,-0.140,-15.076,-41.077,-7.202
1.047,0.405,-0.269,-7.385,-54.321,-5.554
1.007,0.425,-0.304,2.563,-62.866,-7.080
1.053,0.441,-0.249,14.343,-68.359,-11.108
0.981,0.395,-0.286,26.794,-75.806,-12.573
1.007,0.386,-0.220,31.982,-75.867,-10.498
0.823,0.349,-0.298,36.682,-73.669,-8.972
0.886,0.340,-0.220,37.354,-62.866,-6.592
0.792,0.433,-0.172,32.288,-46.204,-9.033
0.790,0.327,-0.224,30.762,-33.203,-3.418
0.800,0.372,-0.158,27.649,-23.193,1.038
0.767,0.338,-0.151,24.963,-16.174,2.869
0.822,0.305,-0.104,24.536,-11.597,2.991
0.823,0.313,-0.050,23.682,-10.193,1.526
0.857,0.276,-0.024,25.024,-12.268,2.502
0.791,0.268,-0.002,25.818,-14.282,1.526
0.827,0.282,0.060,26.123,-12.756,-0.488
0.819,0.274,0.098,27.649,-10.559,-0.671
0.887,0.263,0.125,28.687,-9.277,0.427
0.843,0.263,0.171,27.466,-7.568,0.671
0.842,0.239,0.176,25.635,-5.432,0.183
0.839,0.243,0.185,22.034,0.244,-1.770
0.916,0.291,0.278,16.907,7.812,-3.235
0.880,0.221,0.223,13.123,11.841,-0.732
0.937,0.257,0.261,8.484,14.648,2.258
0.949,0.295,0.265,4.822,16.052,3.906
0.988,0.275,0.238,1.587,15.930,5.188
1.007,0.294,0.236,-0.305,12.390,4.211
1.028,0.312,0.224,-2.075,6.958,3.113
1.044,0.297,0.177,-1.709,0.000,3.479
1.026,0.333,0.159,-2.686,-5.005,3.052
1.002,0.335,0.125,-2.136,-8.545,3.113
0.999,0.350,0.116,-0.549,-10.010,3.052
0.999,0.321,0.073,1.404,-11.475,3.479
0.995,0.350,0.081,1.404,-12.512,3.479
0.974,0.339,0.058,2.808,-14.648,4.333
0.932,0.337,0.065,4.028,-15.808,5.005
0.895,0.325,0.074,5.127,-15.747,4.272
0.880,0.304,0.078,5.737,-14.587,2.930
0.887,0.290,0.083,5.127,-12.390,2.075
0.882,0.297,0.092,4.211,-10.620,2.319
0.868,0.293,0.114,4.089,-9.216,2.869
0.858,0.288,0.136,4.272,-8.362,3.052
0.843,0.280,0.160,4.272,-8.057,2.991
0.825,0.264,0.162,3.113,-7.324,2.197
0.824,0.266,0.162,0.793,-5.127,0.183
0.844,0.285,0.156,-1.770,-1.648,-1.404
0.873,0.294,0.149,-2.441,1.343,-1.526
0.885,0.298,0.145,-2.136,3.723,-1.160
0.885,0.299,0.149,-1.648,5.005,-1.465
0.880,0.294,0.150,-1.526,5.737,-2.258
0.895,0.284,0.148,-2.747,6.104,-3.235
0.930,0.285,0.150,-5.310,6.226,-4.578
0.968,0.305,0.149,-8.240,4.456,-5.432
1.006,0.317,0.137,-9.705,0.977,-4.456
1.026,0.319,0.122,-10.254,-3.723,-3.235
1.021,0.327,0.109,-10.376,-8.667,-2.563
1.004,0.332,0.101,-10.071,-12.085,-2.258
0.979,0.333,0.086,-9.033,-13.367,-2.197
0.972,0.344,0.092,-7.874,-12.512,-1.343
0.955,0.344,0.092,-6.348,-10.986,0.122
0.953,0.341,0.106,-4.333,-9.888,1.648
0.914,0.329,0.107,-2.502,-9.338,2.686
0.893,0.325,0.123,-1.404,-7.874,3.174
0.880,0.308,0.138,-0.793,-5.737,3.052
0.892,0.298,0.161,-1.160,-3.845,2.075
0.915,0.286,0.171,-2.441,-3.418,0.854
0.921,0.281,0.178,-4.028,-4.639,0.000
0.919,0.283,0.177,-5.615,-6.104,-0.061
0.911,0.283,0.166,-7.324,-7.019,-0.305
0.915,0.289,0.161,-8.606,-6.958,-0.488
0.917,0.296,0.162,-10.010,-6.653,-0.732
0.913,0.299,0.160,-11.047,-6.836,-1.038
0.911,0.305,0.160,-11.414,-7.385,-1.526
0.909,0.316,0.159,-11.536,-7.874,-1.831
0.919,0.312,0.152,-11.047,-8.118,-2.258
0.930,0.305,0.149,-10.193,-8.057,-2.197
0.935,0.312,0.152,-10.498,-7.385,-1.038
0.927,0.312,0.149,-10.437,-6.287,0.244
0.933,0.313,0.152,-10.315,-4.944,0.793
0.939,0.315,0.151,-10.498,-3.967,0.427
0.945,0.321,0.150,-10.864,-3.784,0.061
0.940,0.326,0.147,-10.071,-4.639,-0.122
0.939,0.328,0.140,-9.644,-5.493,-0.183
0.944,0.323,0.142,-8.728,-6.592,-0.610
0.952,0.320,0.150,-8.240,-8.362,-0.854
0.954,0.310,0.160,-8.362,-10.376,-0.916

1.183,0.240,-1.813,57.739,28.442,-34.851
1.285,0.245,-2.154,85.083,37.720,-40.710
1.416,0.132,-2.530,126.038,48.523,-44.678
1.586,-0.016,-2.867,175.171,60.120,-47.302
1.761,-0.127,-3.047,228.149,71.472,-47.363
1.918,-0.279,-3.062,286.072,78.674,-41.260
2.041,-0.515,-2.985,348.389,78.735,-28.198
2.033,-0.798,-2.828,406.921,73.425,-12.329
1.860,-1.036,-2.568,458.679,69.031,0.183
1.663,-1.307,-2.239,503.967,74.219,9.644
1.483,-1.487,-1.828,542.847,92.896,18.311
1.518,-1.533,-1.243,576.660,122.925,27.039
1.672,-1.673,-0.664,615.723,150.452,37.476
1.812,-1.837,-0.046,656.433,165.344,53.040
1.921,-1.951,0.702,685.608,161.255,80.811
1.748,-2.215,1.088,698.486,134.949,118.958
1.229,-2.529,1.328,676.208,103.027,153.748
0.608,-2.384,1.631,605.591,94.788,169.067
0.109,-2.162,1.772,514.709,120.422,160.583
-0.104,-1.851,1.891,418.762,173.279,128.601
0.076,-1.526,2.008,330.200,233.154,85.632
0.470,-1.264,2.054,256.592,269.897,48.828
0.802,-1.047,2.135,194.275,269.958,23.926
0.992,-0.803,2.065,137.573,238.403,5.188
0.991,-0.675,1.856,94.360,198.242,-5.188
0.966,-0.525,1.881,49.927,171.143,-16.724
1.267,-0.267,1.805,8.118,154.236,-29.541
1.544,-0.054,1.563,-16.602,128.052,-31.555
1.697,0.107,1.232,-24.719,94.238,-30.518
1.780,0.240,0.931,-22.461,54.565,-30.823
1.793,0.319,0.665,-17.151,9.399,-29.480
1.727,0.363,0.416,-12.878,-37.659,-25.818
1.464,0.377,0.152,-11.719,-78.674,-20.996
1.222,0.421,-0.014,-13.306,-102.112,-18.738
1.099,0.496,-0.147,-12.939,-103.149,-17.639
1.028,0.479,-0.240,-10.559,-84.167,-15.381
1.020,0.517,-0.164,-9.094,-56.946,-13.123
0.986,0.485,-0.208,-5.432,-33.508,-4.395
1.015,0.471,-0.177,-3.296,-16.296,3.845
0.991,0.410,-0.223,-2.747,-7.629,9.583
0.868,0.423,-0.198,-5.920,-2.441,13.672
0.834,0.396,-0.185,-7.935,0.977,19.104
0.816,0.405,-0.140,-7.751,2.563,20.325
0.778,0.379,-0.134,-6.531,-0.732,20.203
0.721,0.363,-0.121,-5.188,-7.141,18.799
0.667,0.375,-0.115,-4.089,-13.367,14.587
0.656,0.408,-0.058,-1.648,-16.418,10.010
0.673,0.371,-0.025,3.662,-18.188,7.324
0.693,0.339,-0.011,7.202,-18.677,5.127
0.743,0.354,0.025,7.874,-15.930,2.869
0.712,0.335,0.039,7.263,-10.437,3.174
0.776,0.358,0.048,4.517,-4.761,5.371
0.748,0.356,0.056,1.831,1.343,7.874
0.783,0.416,0.071,-2.075,8.850,8.606
0.800,0.407,0.072,-2.441,15.747,9.338
0.845,0.436,0.097,-2.136,19.897,7.507
0.874,0.417,0.095,-1.892,20.569,5.920
0.894,0.429,0.101,-2.625,18.921,5.066
0.897,0.435,0.100,-2.075,16.357,4.150
0.901,0.432,0.101,-0.793,13.611,2.991
0.936,0.396,0.087,0.427,11.292,2.075
0.969,0.405,0.095,-0.366,8.240,0.916
0.986,0.415,0.096,-0.427,4.333,0.549
0.988,0.415,0.094,1.343,0.183,1.099
0.967,0.407,0.095,3.357,-3.235,0.732
0.954,0.396,0.095,4.700,-5.066,-0.427
0.960,0.381,0.101,4.639,-5.310,-2.136
0.985,0.377,0.108,3.662,-5.371,-3.113
0.997,0.392,0.113,2.502,-6.287,-3.296
0.993,0.406,0.111,2.563,-8.118,-2.502
0.978,0.407,0.105,4.089,-9.583,-0.610
0.944,0.394,0.094,6.042,-10.071,1.099
0.920,0.377,0.089,6.714,-9.583,1.648
0.902,0.366,0.090,6.042,-8.423,0.793
0.891,0.364,0.094,4.456,-7.202,-0.305
0.875,0.369,0.086,2.869,-6.470,-0.305
0.864,0.376,0.078,2.441,-5.859,-0.061
0.865,0.377,0.071,2.625,-5.066,0.061
0.865,0.375,0.071,3.601,-4.700,-0.610
0.865,0.372,0.075,4.150,-4.944,-1.587
0.862,0.362,0.071,4.089,-5.676,-2.502
0.855,0.361,0.066,2.686,-6.470,-3.174
0.845,0.374,0.067,1.099,-6.470,-3.357
0.850,0.391,0.073,0.122,-5.615,-3.296
0.877,0.388,0.076,0.977,-4.822,-3.235
0.910,0.378,0.082,1.770,-5.310,-3.418
0.923,0.379,0.091,0.854,-7.446,-3.479
0.918,0.388,0.096,-0.854,-10.315,-3.296
0.896,0.396,0.092,-2.441,-13.062,-3.174
0.880,0.396,0.082,-4.211,-13.855,-3.113
0.881,0.400,0.081,-5.737,-12.817,-3.052
0.890,0.406,0.083,-7.141,-10.742,-2.747
0.882,0.410,0.084,-7.751,-9.094,-2.686
0.873,0.411,0.083,-7.690,-7.935,-2.808
0.867,0.408,0.083,-7.202,-6.104,-2.930
0.878,0.400,0.087,-6.897,-4.272,-2.930
0.894,0.399,0.096,-7.019,-2.686,-2.869
0.908,0.402,0.099,-7.874,-2.380,-3.052
0.927,0.401,0.099,-8.606,-3.601,-3.052
0.942,0.402,0.099,-8.911,-5.737,-2.258
0.941,0.399,0.093,-9.583,-8.545,-1.404
0.940,0.395,0.083,-10.559,-10.925,-0.793
0.929,0.395,0.072,-11.597,-13.123,-0.793
0.923,0.397,0.066,-12.512,-13.916,-0.610
0.916,0.401,0.066,-12.634,-13.977,0.122
0.920,0.394,0.071,-11.902,-13.550,0.732
0.920,0.388,0.079,-11.292,-12.878,1.282
0.922,0.386,0.094,-10.742,-12.207,1.648
0.919,0.378,0.105,-10.010,-12.146,2.197
0.919,0.366,0.111,-9.644,-12.268,2.136
0.918,0.364,0.118,-10.254,-12.634,2.136
0.912,0.369,0.128,-11.353,-12.878,2.441
0.903,0.366,0.123,-12.512,-12.573,2.686
0.899,0.370,0.121,-13.672,-11.841,2.625
0.894,0.376,0.115,-14.893,-10.498,2.930
0.892,0.377,0.108,-16.541,-9.583,3.540
0.893,0.379,0.107,-17.517,-8.728,3.906
0.893,0.380,0.108,-17.944,-8.484,3.601
0.890,0.382,0.106,-18.555,-8.850,3.479

1.108,0.076,-1.715,52.246,22.461,-42.847
1.194,0.014,-1.986,86.121,36.316,-50.598
1.290,-0.082,-2.228,125.305,52.368,-55.664
1.407,-0.252,-2.485,170.776,67.871,-57.922
1.512,-0.403,-2.659,217.957,82.397,-58.228
1.603,-0.566,-2.743,264.099,94.666,-54.626
1.650,-0.690,-2.731,310.608,101.624,-47.180
1.614,-0.766,-2.578,357.239,104.248,-40.894
1.519,-0.974,-2.406,406.006,104.309,-38.513
1.448,-1.173,-2.164,451.355,110.840,-40.894
1.420,-1.287,-1.763,487.549,127.197,-44.861
1.482,-1.378,-1.248,517.578,148.010,-43.213
1.639,-1.469,-0.623,540.649,166.931,-35.583
1.792,-1.551,-0.073,552.673,177.124,-21.118
1.856,-1.607,0.354,551.392,171.692,-0.549
1.826,-1.549,0.798,535.522,156.006,19.409
1.668,-1.398,1.247,514.526,137.146,30.457
1.474,-1.209,1.641,495.361,122.070,36.011
1.326,-1.079,1.971,475.708,110.046,42.725
1.148,-1.044,2.205,450.928,99.609,50.232
0.919,-0.989,2.362,411.377,89.722,50.842
0.699,-0.860,2.466,357.666,83.496,40.588
0.578,-0.705,2.447,297.852,80.261,24.109
0.610,-0.511,2.391,238.770,77.637,6.165
0.689,-0.269,2.295,182.983,68.115,-8.728
0.651,-0.067,1.977,138.733,51.880,-19.958
0.837,0.057,1.789,107.727,44.128,-26.672
0.960,0.094,1.464,85.876,30.823,-29.968
1.009,0.154,1.078,68.054,11.353,-33.325
1.099,0.233,0.819,50.110,-4.883,-33.081
1.120,0.309,0.546,35.706,-19.470,-26.062
1.100,0.374,0.313,27.893,-32.898,-19.104
1.092,0.408,0.151,25.208,-41.565,-16.235
1.117,0.431,0.095,25.940,-46.692,-16.296
1.042,0.467,0.057,27.649,-51.880,-15.869
1.031,0.395,-0.046,29.724,-57.129,-9.521
0.852,0.430,-0.145,30.396,-55.786,-5.493
0.964,0.417,-0.059,29.480,-48.218,-3.845
0.843,0.444,-0.060,27.893,-41.626,-3.601
0.881,0.389,-0.072,25.391,-36.255,1.343
0.753,0.376,-0.074,21.912,-31.006,3.967
0.757,0.358,-0.039,17.578,-23.315,5.005
0.743,0.338,-0.016,13.184,-15.930,6.226
0.727,0.329,-0.008,8.423,-11.230,6.897
0.755,0.352,-0.000,4.456,-8.850,6.348
0.735,0.371,0.005,3.479,-7.751,4.517
0.741,0.369,0.000,4.822,-5.432,3.845
0.744,0.376,0.025,6.592,-0.916,2.808
0.792,0.360,0.045,8.850,4.578,2.686
0.812,0.366,0.097,10.437,9.583,2.380
0.849,0.352,0.142,10.803,12.207,3.235
0.870,0.340,0.166,9.827,13.000,3.235
0.877,0.345,0.191,7.324,13.123,2.808
0.875,0.361,0.223,4.517,13.306,2.502
0.871,0.357,0.248,2.502,13.062,2.197
0.886,0.349,0.250,0.916,12.024,2.197
0.885,0.353,0.248,-1.709,11.047,2.686
0.891,0.365,0.244,-3.235,10.010,3.113
0.843,0.391,0.204,-3.967,8.362,2.686
0.874,0.390,0.232,-4.944,8.118,2.380
0.900,0.371,0.230,-7.080,7.263,-0.122
0.920,0.351,0.201,-7.202,3.906,0.122
0.899,0.391,0.182,-9.644,1.160,0.793
0.884,0.370,0.162,-10.254,0.671,0.732
0.906,0.375,0.142,-10.864,1.343,-1.099
0.938,0.400,0.139,-11.108,2.441,-0.305
0.953,0.402,0.129,-10.254,3.174,1.709
1.002,0.405,0.132,-7.935,1.953,3.845
0.997,0.397,0.126,-6.226,-0.793,4.944
0.985,0.402,0.135,-5.188,-4.456,5.127
0.941,0.405,0.135,-4.761,-7.507,5.737
0.903,0.392,0.120,-4.211,-8.850,5.981
0.892,0.387,0.126,-4.456,-8.484,5.554
0.887,0.380,0.130,-5.188,-7.751,4.578
0.881,0.387,0.147,-6.226,-7.507,3.235
0.871,0.385,0.156,-6.470,-7.996,1.892
0.852,0.376,0.153,-6.287,-9.216,1.038
0.849,0.375,0.146,-5.859,-9.705,0.732
0.845,0.379,0.147,-5.493,-8.972,0.549
0.854,0.369,0.155,-4.700,-7.324,0.183
0.863,0.361,0.166,-4.639,-5.859,-0.488
0.876,0.347,0.165,-5.005,-5.066,-1.282
0.884,0.350,0.167,-6.836,-4.395,-1.770
0.885,0.365,0.165,-9.521,-3.906,-1.831
0.880,0.371,0.153,-11.169,-3.174,-1.648
0.890,0.374,0.142,-13.000,-1.709,-1.648
0.899,0.383,0.140,-15.015,0.244,-1.587
0.902,0.383,0.136,-16.602,2.258,-1.038
0.907,0.384,0.143,-18.066,3.784,-0.916
0.915,0.388,0.151,-19.348,5.066,-0.793
0.926,0.401,0.161,-19.836,5.066,-0.122
0.931,0.412,0.174,-19.897,3.906,1.282
0.935,0.410,0.188,-18.738,1.160,2.136
0.936,0.389,0.182,-16.968,-2.563,2.319
0.922,0.386,0.177,-17.212,-6.531,2.258
0.896,0.393,0.172,-18.799,-8.850,2.441
0.875,0.396,0.158,-20.447,-9.399,2.441
0.872,0.401,0.151,-22.400,-8.301,2.319
0.869,0.404,0.143,-24.414,-6.714,2.014
0.864,0.402,0.140,-26.123,-5.615,1.343
0.861,0.396,0.136,-27.527,-5.188,0.427
0.862,0.395,0.132,-28.564,-4.700,-0.427
0.856,0.401,0.133,-29.541,-4.211,-0.183
0.856,0.399,0.130,-30.518,-3.235,0.244
0.870,0.401,0.134,-30.579,-2.319,0.061
0.888,0.407,0.140,-29.785,-2.136,-0.305
0.897,0.399,0.126,-28.992,-3.235,0.549
0.889,0.400,0.105,-29.236,-4.883,2.319
0.876,0.412,0.091,-30.029,-5.371,3.967
0.871,0.423,0.079,-30.579,-4.944,3.906
0.874,0.424,0.068,-30.029,-4.028,3.174
0.894,0.428,0.068,-28.687,-4.089,2.380
0.906,0.425,0.062,-26.978,-5.005,1.831
0.903,0.426,0.061,-24.963,-7.141,1.709
0.891,0.425,0.057,-23.437,-8.789,1.648
0.873,0.419,0.046,-21.912,-9.827,1.465
0.865,0.422,0.044,-20.935,-9.338,1.587
0.863,0.423,0.045,-20.447,-8.606,1.648
0.868,0.430,0.049,-19.836,-7.751,1.038

1.379,0.109,-1.342,32.410,7.507,-24.292
1.513,0.095,-1.575,51.758,12.329,-23.987
1.669,0.067,-1.827,79.712,14.160,-24.536
1.820,0.038,-2.108,118.774,13.184,-24.780
1.960,-0.013,-2.365,167.542,12.695,-22.034
2.105,-0.136,-2.608,223.755,12.939,-12.207
2.153,-0.276,-2.774,281.677,15.015,0.549
2.167,-0.484,-2.816,337.280,22.827,15.503
2.140,-0.745,-2.808,387.512,36.133,30.823
2.009,-0.991,-2.674,428.223,57.678,44.373
1.872,-1.120,-2.372,456.299,86.365,60.608
1.754,-1.305,-2.062,480.286,117.004,78.735
1.672,-1.419,-1.679,503.906,148.621,91.736
1.715,-1.513,-1.105,526.245,178.772,101.440
1.837,-1.689,-0.576,551.514,193.970,111.084
1.839,-1.834,-0.114,572.449,190.186,119.141
1.679,-1.981,0.278,579.407,172.729,130.859
1.411,-2.097,0.655,572.205,149.597,145.996
1.143,-2.124,1.099,553.040,129.822,154.846
0.827,-2.111,1.429,528.381,117.859,150.085
0.558,-2.104,1.709,492.432,117.249,131.348
0.482,-1.954,1.930,439.514,124.756,106.689
0.443,-1.742,2.071,377.747,132.935,81.055
0.497,-1.473,2.121,314.941,135.742,61.646
0.604,-1.232,2.037,258.667,130.127,47.363
0.650,-1.039,2.000,211.609,118.774,34.241
0.669,-0.958,1.859,167.969,108.032,22.583
0.724,-0.985,1.865,132.568,102.112,14.771
0.672,-1.190,2.605,76.721,102.966,0.305
1.010,-0.631,2.403,0.244,104.248,-15.808
1.223,-0.399,1.714,-27.100,91.309,-18.188
1.405,-0.094,1.168,-26.062,68.970,-18.250
1.464,0.050,0.792,-11.292,39.429,-13.794
1.362,0.089,0.465,5.066,8.545,-8.972
1.320,0.156,0.230,12.451,-15.930,-7.629
1.218,0.235,0.034,14.526,-35.645,-11.902
1.174,0.299,-0.080,13.855,-46.814,-17.700
1.177,0.399,-0.086,13.794,-51.331,-21.790
1.133,0.408,-0.125,18.188,-54.138,-20.996
1.175,0.428,-0.063,20.325,-51.758,-18.616
1.100,0.349,-0.124,22.949,-51.880,-12.146
1.021,0.384,-0.083,19.226,-48.340,-6.348
0.942,0.362,-0.089,17.517,-42.175,-2.380
0.850,0.344,-0.072,16.357,-33.447,0.122
0.822,0.311,-0.052,15.198,-24.048,2.319
0.794,0.286,-0.028,13.672,-16.968,3.967
0.766,0.272,-0.011,12.634,-12.756,3.357
0.745,0.269,0.041,12.207,-8.972,1.709
0.759,0.245,0.069,12.817,-6.104,-0.488
0.729,0.222,0.085,13.550,-3.479,-2.319
0.758,0.254,0.145,12.146,0.732,-3.662
0.777,0.222,0.154,12.329,4.456,-3.601
0.790,0.233,0.189,10.559,7.690,-3.540
0.791,0.238,0.205,8.423,9.888,-3.601
0.829,0.240,0.215,6.714,11.658,-3.845
0.885,0.260,0.225,5.249,12.329,-4.456
0.926,0.242,0.231,3.967,10.071,-4.211
0.953,0.274,0.236,1.587,5.676,-5.188
0.970,0.291,0.212,1.099,-0.732,-5.188
0.959,0.299,0.167,0.671,-5.859,-5.066
0.929,0.314,0.134,0.977,-6.897,-4.578
0.939,0.343,0.147,1.709,-3.540,-4.578
0.943,0.327,0.116,4.272,-0.732,-4.211
0.952,0.336,0.112,4.700,1.404,-2.625
0.940,0.321,0.092,4.333,3.845,-0.366
0.969,0.311,0.114,4.517,6.165,0.732
1.007,0.288,0.121,4.272,5.920,1.160
1.011,0.286,0.141,3.052,2.563,1.892
0.999,0.282,0.158,2.441,-2.136,2.563
0.969,0.277,0.172,2.197,-6.409,2.502
0.951,0.266,0.174,2.625,-9.155,1.526
0.944,0.266,0.189,2.869,-9.949,0.122
0.941,0.258,0.205,2.808,-10.193,-0.854
0.942,0.256,0.215,1.892,-10.742,-1.221
0.930,0.258,0.198,0.549,-11.353,-0.854
0.899,0.275,0.175,-1.404,-10.254,0.549
0.880,0.285,0.155,-2.991,-7.141,1.099
0.871,0.292,0.153,-3.601,-2.502,1.099
0.908,0.282,0.157,-3.906,1.648,0.732
0.946,0.276,0.152,-4.456,2.930,0.732
0.974,0.284,0.146,-4.822,1.587,1.038
0.983,0.285,0.144,-4.517,-1.099,1.465
0.977,0.283,0.151,-3.601,-4.578,1.038
0.965,0.278,0.164,-2.686,-7.812,-0.061
0.958,0.272,0.169,-2.441,-10.376,-1.404
0.952,0.266,0.150,-2.869,-11.780,-2.441
0.938,0.285,0.138,-3.845,-10.803,-0.854
0.917,0.292,0.132,-3.967,-7.507,2.075
0.900,0.286,0.137,-3.113,-3.235,3.906
0.902,0.284,0.153,-2.441,0.488,4.395
0.907,0.282,0.163,-2.197,2.625,4.028
0.896,0.286,0.161,-2.441,2.869,2.991
0.969,0.276,0.190,-2.258,3.113,2.502
0.960,0.271,0.190,-1.465,-0.854,1.587
0.923,0.292,0.185,-2.502,-5.615,2.014
0.912,0.286,0.173,-2.380,-7.324,1.221
0.939,0.277,0.187,-2.563,-6.592,-0.122
0.924,0.279,0.194,-3.052,-6.653,-0.671
0.922,0.271,0.201,-4.028,-7.141,-0.427
0.939,0.259,0.210,-4.517,-6.653,-0.549
0.941,0.256,0.224,-5.310,-6.897,-1.404
0.929,0.248,0.227,-6.531,-7.690,-1.404
0.942,0.255,0.242,-7.751,-7.935,-1.709
0.939,0.251,0.250,-8.484,-8.606,-1.587
0.910,0.240,0.233,-9.460,-9.399,-0.244
0.937,0.263,0.258,-11.780,-8.606,-0.122
0.940,0.251,0.241,-12.878,-8.362,0.122
0.948,0.259,0.246,-14.587,-8.911,0.793
0.931,0.266,0.243,-16.663,-9.521,0.854
0.923,0.263,0.237,-18.066,-10.132,0.671
0.918,0.266,0.239,-20.447,-9.949,-0.061
0.924,0.272,0.233,-22.217,-9.338,-0.977
0.943,0.276,0.239,-22.949,-8.911,-1.465
0.959,0.270,0.243,-22.888,-9.460,-1.282
0.963,0.271,0.243,-23.254,-11.353,-1.038
0.953,0.274,0.231,-23.926,-13.733,-0.916
0.936,0.278,0.216,-25.146,-14.954,-0.244
0.921,0.281,0.208,-26.306,-14.648,-0.122
0.917,0.289,0.202,-27.283,-13.245,-0.366

1.030,-0.226,-1.418,148.437,8.850,-20.813
1.092,-0.287,-1.543,161.560,10.925,-24.780
1.154,-0.318,-1.672,179.321,14.587,-29.419
1.224,-0.394,-1.790,202.026,20.142,-33.142
1.288,-0.467,-1.898,229.126,28.320,-33.142
1.339,-0.497,-1.912,258.728,40.100,-29.480
1.368,-0.587,-1.901,294.617,53.467,-23.071
1.427,-0.773,-1.847,332.642,67.200,-16.602
1.481,-0.920,-1.733,366.394,78.979,-14.648
1.450,-1.022,-1.576,394.348,87.219,-14.587
1.413,-1.138,-1.407,419.006,92.773,-12.268
1.399,-1.180,-1.132,440.125,98.083,-9.216
1.409,-1.241,-0.833,461.792,100.525,-6.104
1.421,-1.342,-0.550,483.582,99.365,-3.052
1.495,-1.454,-0.233,501.099,96.863,1.526
1.596,-1.492,0.146,512.024,92.346,10.681
1.601,-1.526,0.439,518.066,80.872,26.062
1.526,-1.563,0.665,518.250,65.491,44.617
1.386,-1.584,0.863,510.315,52.429,60.974
1.222,-1.580,1.095,494.507,45.288,72.937
1.135,-1.527,1.348,472.717,43.884,78.064
1.052,-1.488,1.498,444.641,44.189,73.486
0.963,-1.420,1.604,406.067,46.448,61.340
0.905,-1.269,1.683,360.840,51.636,48.950
0.863,-1.106,1.711,312.866,59.143,39.978
0.832,-0.962,1.657,265.869,65.796,33.936
0.823,-0.797,1.566,221.802,72.083,28.015
0.890,-0.648,1.453,181.763,77.148,21.912
0.967,-0.520,1.327,148.376,78.064,15.686
1.044,-0.404,1.214,121.460,72.632,10.071
1.119,-0.309,1.103,100.342,60.425,5.127
1.122,-0.242,0.932,84.351,42.236,-0.549
1.085,-0.163,0.778,72.632,24.536,-5.798
1.080,-0.090,0.667,64.819,10.559,-10.559
1.097,-0.041,0.578,60.791,-0.793,-15.259
1.098,0.016,0.522,58.655,-11.719,-17.944
1.094,0.057,0.478,56.763,-23.987,-17.700
1.004,0.068,0.418,54.871,-33.875,-15.564
0.927,0.083,0.376,51.758,-37.659,-12.573
0.905,0.114,0.368,47.607,-33.997,-11.169
0.818,0.111,0.336,42.419,-27.954,-9.644
0.871,0.103,0.318,36.316,-21.667,-5.920
0.809,0.093,0.269,28.687,-15.808,-3.662
0.846,0.166,0.254,19.043,-9.216,-4.395
0.809,0.143,0.160,12.573,-4.028,-3.296
0.806,0.171,0.066,6.409,1.343,-2.441
0.878,0.213,0.040,2.869,7.324,-2.502
0.905,0.222,0.010,3.601,10.010,-3.601
1.000,0.244,0.011,6.287,8.545,-4.700
1.042,0.241,-0.004,11.841,0.732,-5.737
1.069,0.247,-0.008,18.311,-10.376,-6.287
1.017,0.251,-0.010,24.780,-21.362,-6.775
0.968,0.253,0.003,31.189,-28.015,-6.836
0.929,0.238,0.026,36.682,-27.771,-6.653
0.917,0.213,0.056,39.673,-22.156,-6.042
0.912,0.201,0.103,39.978,-14.282,-5.371
0.896,0.185,0.128,37.842,-6.653,-3.662
0.892,0.190,0.155,33.691,0.488,-1.160
0.866,0.182,0.159,29.236,5.859,1.587
0.855,0.184,0.176,24.597,10.437,3.174
0.880,0.190,0.189,20.142,13.489,3.540
0.903,0.181,0.198,18.066,13.184,3.174
0.919,0.169,0.214,16.785,9.827,2.014
0.927,0.158,0.234,15.991,4.395,-0.061
0.939,0.144,0.243,15.259,-1.526,-2.136
0.953,0.139,0.250,14.038,-6.165,-3.601
0.967,0.140,0.254,11.780,-9.521,-4.517
0.972,0.147,0.253,9.705,-11.230,-4.333
0.968,0.154,0.245,7.385,-10.376,-3.113
0.966,0.155,0.239,4.822,-7.202,-1.099
0.961,0.154,0.231,2.563,-2.991,0.488
0.973,0.152,0.230,-0.305,1.587,1.465
0.992,0.148,0.237,-3.540,4.456,2.808
1.012,0.148,0.243,-6.470,4.822,4.333
0.995,0.143,0.232,-9.521,3.418,5.615
0.985,0.152,0.229,-12.878,1.465,5.798
0.993,0.143,0.254,-15.259,-0.427,4.944
0.997,0.138,0.238,-17.761,-2.502,3.906
0.992,0.141,0.228,-19.775,-5.615,3.601
0.987,0.145,0.232,-22.156,-8.301,2.258
0.977,0.139,0.232,-24.231,-9.827,0.549
0.984,0.138,0.228,-26.367,-10.071,-0.305
0.982,0.144,0.233,-28.503,-9.033,-0.732
0.996,0.145,0.240,-31.677,-7.202,0.671
0.990,0.148,0.232,-34.973,-5.371,2.991
0.980,0.160,0.226,-38.391,-3.235,5.493
0.972,0.161,0.216,-40.833,-0.549,7.385
0.968,0.160,0.220,-42.664,2.197,7.996
0.966,0.160,0.225,-44.373,3.601,8.240
0.967,0.149,0.227,-46.448,3.235,8.423
0.965,0.142,0.239,-48.706,1.099,7.874
0.958,0.139,0.250,-51.147,-2.991,6.897
0.954,0.131,0.261,-54.016,-8.179,4.761
0.947,0.129,0.271,-57.373,-13.855,1.587
0.927,0.124,0.267,-61.523,-19.897,-2.197
0.923,0.144,0.269,-65.979,-25.024,-5.554
0.908,0.159,0.257,-68.909,-29.114,-8.484
0.902,0.158,0.236,-70.007,-31.250,-9.644
0.889,0.167,0.215,-70.435,-30.701,-9.766
0.863,0.172,0.196,-70.129,-27.100,-8.789
0.888,0.165,0.189,-69.519,-19.836,-6.409
0.894,0.155,0.178,-69.580,-10.986,-4.272
0.914,0.157,0.176,-70.313,-2.563,-2.869
0.944,0.156,0.176,-71.045,5.432,-0.854
0.970,0.147,0.177,-72.144,12.146,1.282
0.999,0.140,0.180,-73.425,16.418,2.563
1.022,0.141,0.185,-75.256,17.883,2.808
1.049,0.140,0.192,-77.209,15.869,3.052
1.075,0.143,0.200,-79.468,10.864,3.296
1.087,0.143,0.205,-81.421,3.174,3.235
1.090,0.139,0.202,-83.252,-6.042,3.296
1.089,0.140,0.200,-85.205,-16.052,2.991
1.064,0.140,0.191,-87.402,-25.513,2.686
1.038,0.146,0.182,-90.332,-32.288,2.502
1.024,0.159,0.181,-92.468,-35.645,2.686
1.008,0.158,0.175,-93.567,-36.011,2.930
1.006,0.154,0.173,-94.788,-33.813,4.272
1.009,0.164,0.185,-96.497,-30.579,6.104
1.001,0.163,0.186,-98.206,-27.100,8.240

1.089,0.218,-1.600,59.937,34.424,-16.418
1.211,0.219,-1.850,87.646,37.720,-17.029
1.335,0.117,-2.129,125.549,34.058,-18.921
1.377,-0.005,-2.378,168.823,26.428,-23.315
1.417,-0.144,-2.547,212.585,21.301,-25.146
1.493,-0.366,-2.706,256.775,20.264,-23.926
1.534,-0.514,-2.788,299.255,25.574,-23.682
1.581,-0.625,-2.729,339.783,38.147,-21.790
1.583,-0.746,-2.586,383.484,54.504,-14.709
1.559,-0.954,-2.345,429.016,72.937,-2.380
1.550,-1.214,-2.019,471.558,90.881,10.986
1.552,-1.398,-1.621,505.798,109.680,20.508
1.602,-1.517,-1.160,533.264,127.441,28.625
1.719,-1.598,-0.665,557.800,140.869,38.513
1.746,-1.711,-0.329,581.482,145.691,49.500
1.684,-1.836,-0.052,596.191,143.982,63.965
1.548,-1.951,0.150,595.276,138.916,80.811
1.386,-1.986,0.376,577.393,135.254,95.947
1.232,-1.900,0.673,548.401,135.986,104.004
1.058,-1.828,0.911,517.273,138.794,103.943
1.001,-1.751,1.149,484.558,144.226,96.069
0.994,-1.607,1.364,448.486,149.536,79.712
1.001,-1.469,1.504,411.499,148.499,60.974
1.002,-1.347,1.596,372.375,139.832,46.570
0.993,-1.218,1.642,332.214,125.793,34.607
0.936,-1.175,1.904,289.856,108.887,24.170
0.872,-1.105,1.879,242.249,103.088,16.479
0.997,-1.856,3.160,185.791,106.445,14.648
0.675,-1.348,4.000,81.360,109.131,-5.310
1.193,-1.136,3.188,8.789,130.432,-33.569
1.637,-0.474,1.789,-31.677,112.061,-12.512
1.434,0.034,1.096,-43.945,66.650,-4.395
1.331,0.102,0.625,-18.250,25.085,-8.057
1.310,0.104,0.245,9.277,-6.226,-10.986
1.280,0.108,0.030,22.217,-27.344,-14.648
1.245,0.167,-0.117,23.010,-45.227,-20.264
1.206,0.309,-0.152,20.447,-59.204,-26.611
1.184,0.378,-0.173,21.301,-70.740,-30.884
1.079,0.404,-0.205,26.611,-78.613,-33.020
1.107,0.437,-0.154,30.701,-78.186,-33.752
1.031,0.386,-0.208,35.339,-75.562,-31.616
1.000,0.394,-0.186,34.973,-67.139,-28.503
0.927,0.371,-0.208,33.447,-54.504,-25.513
0.915,0.366,-0.162,32.410,-37.903,-20.508
0.914,0.313,-0.142,31.555,-21.973,-11.475
0.903,0.295,-0.098,29.541,-9.338,-3.479
0.881,0.273,-0.072,27.405,-1.160,2.075
0.831,0.253,-0.046,26.367,5.066,5.554
0.811,0.243,-0.004,25.391,10.620,7.080
0.807,0.231,0.033,25.024,14.771,5.676
0.843,0.235,0.085,25.391,16.235,2.625
0.881,0.234,0.125,26.917,12.878,0.732
0.871,0.223,0.145,28.503,6.226,0.549
0.820,0.209,0.148,29.480,0.244,-0.366
0.797,0.211,0.169,29.114,-1.160,-1.953
0.797,0.207,0.188,28.076,-0.122,-3.235
0.817,0.209,0.204,26.184,1.953,-3.784
0.820,0.210,0.211,23.804,4.150,-4.089
0.827,0.207,0.224,20.630,7.019,-3.784
0.855,0.206,0.236,17.578,9.583,-3.845
0.870,0.212,0.236,14.038,11.475,-4.761
0.907,0.207,0.252,10.620,13.428,-5.920
0.979,0.221,0.277,7.874,14.404,-6.836
1.008,0.196,0.272,6.714,12.329,-5.676
1.042,0.214,0.295,3.784,9.216,-4.395
1.046,0.198,0.281,1.709,4.822,-3.296
1.044,0.215,0.285,-0.916,1.404,-3.296
1.055,0.226,0.280,-3.113,-1.465,-3.235
1.051,0.221,0.273,-4.028,-4.944,-3.113
1.050,0.215,0.259,-4.883,-8.728,-3.174
1.040,0.211,0.246,-7.019,-12.573,-3.113
1.028,0.218,0.229,-10.315,-15.747,-2.563
0.990,0.230,0.209,-13.000,-17.639,-0.732
0.964,0.239,0.195,-14.404,-17.456,1.099
0.946,0.232,0.179,-14.465,-15.503,1.648
0.951,0.214,0.169,-14.221,-12.390,0.916
0.957,0.207,0.166,-15.076,-9.521,0.061
0.956,0.212,0.165,-16.113,-7.446,0.366
0.943,0.219,0.165,-16.785,-5.188,2.075
0.930,0.222,0.161,-16.541,-2.441,3.967
0.927,0.212,0.162,-15.015,0.671,4.700
0.936,0.207,0.171,-13.672,3.906,4.578
0.944,0.198,0.178,-13.184,5.432,4.456
0.947,0.193,0.186,-13.794,4.761,4.517
0.945,0.188,0.188,-15.015,2.441,4.028
0.935,0.193,0.184,-15.869,-0.671,2.869
0.917,0.204,0.182,-16.174,-3.906,1.160
0.901,0.197,0.174,-15.991,-6.592,-0.366
0.901,0.191,0.167,-15.686,-8.301,-1.648
0.898,0.195,0.162,-15.747,-8.972,-2.808
0.881,0.199,0.154,-16.357,-8.789,-3.174
0.875,0.198,0.143,-16.418,-6.958,-3.235
0.905,0.199,0.145,-16.785,-3.113,-3.174
0.948,0.203,0.153,-17.273,0.183,-2.686
0.974,0.205,0.159,-17.395,1.282,-1.526
0.970,0.214,0.157,-17.395,0.244,-0.488
0.935,0.213,0.140,-17.944,-0.671,-0.244
0.955,0.227,0.142,-18.738,0.000,-0.732
0.963,0.227,0.151,-18.982,1.099,-1.465
1.003,0.228,0.154,-19.592,0.671,-2.075
0.990,0.234,0.160,-20.264,-1.892,-2.441
0.976,0.239,0.157,-20.630,-5.615,-2.380
0.951,0.236,0.158,-20.264,-8.301,-2.808
0.939,0.224,0.160,-19.592,-9.521,-2.991
0.935,0.205,0.165,-19.043,-10.071,-3.357
0.940,0.192,0.174,-19.531,-10.437,-4.517
0.939,0.178,0.182,-20.386,-11.719,-6.226
0.961,0.179,0.201,-21.729,-13.489,-7.324
0.948,0.192,0.209,-22.522,-16.663,-7.446
0.917,0.183,0.189,-23.193,-20.264,-6.042
0.890,0.189,0.180,-24.902,-20.447,-5.066
0.869,0.195,0.176,-26.794,-17.090,-5.371
0.875,0.196,0.175,-28.442,-12.329,-5.615
0.881,0.201,0.173,-30.151,-7.507,-5.127
0.892,0.214,0.176,-31.921,-3.357,-4.517
0.911,0.220,0.179,-33.142,-0.366,-3.845
0.930,0.224,0.173,-34.424,1.282,-3.418
0.947,0.236,0.170,-35.767,1.465,-3.357
0.955,0.245,0.162,-36.255,0.427,-3.601

1.428,-0.079,-1.478,71.289,27.832,-15.442
1.467,-0.153,-1.765,100.708,29.724,-17.822
1.523,-0.243,-2.066,135.620,34.546,-19.836
1.618,-0.365,-2.314,175.110,41.077,-20.020
1.746,-0.473,-2.505,218.628,47.668,-18.372
1.791,-0.554,-2.615,264.587,50.476,-13.550
1.799,-0.704,-2.690,313.416,49.500,-5.920
1.762,-0.837,-2.700,362.366,49.072,0.793
1.685,-1.011,-2.604,408.752,54.321,6.042
1.609,-1.213,-2.455,452.881,67.871,12.146
1.556,-1.394,-2.195,490.112,91.125,19.653
1.524,-1.527,-1.848,519.531,118.774,29.175
1.578,-1.604,-1.400,544.312,145.996,41.626
1.705,-1.641,-0.854,567.505,164.673,54.260
1.770,-1.746,-0.319,591.370,167.480,65.674
1.823,-1.867,0.143,608.459,155.090,78.735
1.877,-1.948,0.626,615.295,130.493,94.238
1.797,-2.033,1.055,616.333,92.773,107.544
1.529,-2.083,1.418,608.032,46.814,117.004
1.188,-2.120,1.658,582.825,5.127,121.033
0.822,-2.081,1.800,536.743,-20.142,114.197
0.419,-1.953,1.885,471.313,-23.499,97.351
0.194,-1.723,1.954,394.531,-4.395,79.163
0.202,-1.493,1.994,317.505,27.893,65.430
0.281,-1.275,1.971,246.948,59.082,54.016
0.426,-1.081,1.864,186.707,78.247,46.753
0.492,-0.922,1.738,138.306,82.947,41.931
0.493,-0.754,1.589,99.731,79.407,35.095
0.888,-0.893,1.412,68.970,76.782,23.010
0.885,-0.414,1.449,38.818,67.932,-1.526
1.135,-0.540,1.151,20.813,40.100,-3.357
0.957,-0.357,0.965,5.310,10.620,-12.451
1.046,-0.192,0.751,-4.578,-13.489,-21.240
0.928,-0.082,0.563,-6.958,-23.254,-29.358
1.023,-0.000,0.455,-3.662,-23.437,-34.302
1.090,0.047,0.323,-1.587,-21.118,-38.574
1.087,0.094,0.236,-0.610,-18.005,-39.063
1.217,0.108,0.172,-0.854,-14.282,-33.813
1.210,0.160,0.115,-1.160,-11.902,-29.846
1.168,0.202,0.067,-0.916,-11.047,-23.010
1.159,0.235,0.063,1.099,-10.254,-15.686
1.090,0.214,0.022,4.089,-9.155,-10.986
1.127,0.264,0.096,4.883,-6.958,-8.606
1.052,0.234,0.057,6.409,-8.484,-5.432
1.007,0.253,0.080,5.920,-10.132,-3.662
0.931,0.249,0.054,5.188,-11.902,-3.540
0.874,0.272,0.068,4.761,-11.047,-4.272
0.855,0.277,0.081,5.676,-9.583,-4.333
0.826,0.258,0.071,7.629,-9.094,-4.578
0.823,0.252,0.067,7.996,-7.874,-5.127
0.825,0.259,0.076,8.179,-5.859,-4.883
0.824,0.250,0.092,8.423,-3.662,-3.418
0.815,0.244,0.121,8.972,-1.099,-2.808
0.822,0.224,0.144,9.521,1.038,-2.869
0.853,0.211,0.156,8.667,3.052,-3.479
0.880,0.220,0.176,7.263,4.456,-3.784
0.899,0.221,0.197,6.531,5.432,-3.418
0.908,0.215,0.217,6.348,5.920,-3.174
0.900,0.207,0.227,5.859,5.676,-3.174
0.909,0.191,0.219,4.333,5.310,-3.906
0.929,0.185,0.207,1.343,6.042,-4.883
0.979,0.206,0.232,-2.747,6.470,-4.883
0.981,0.193,0.219,-6.592,4.150,-3.540
0.979,0.200,0.205,-10.498,0.732,-1.953
0.979,0.207,0.201,-13.794,-2.258,-1.465
0.970,0.193,0.175,-16.418,-5.249,-2.502
0.978,0.208,0.152,-18.311,-7.568,-3.723
0.967,0.203,0.145,-19.226,-9.094,-5.127
0.978,0.210,0.153,-19.958,-9.766,-6.592
0.994,0.190,0.151,-20.569,-10.864,-7.690
1.010,0.193,0.150,-21.912,-12.695,-8.362
1.012,0.208,0.143,-22.888,-15.320,-6.958
1.000,0.218,0.119,-21.667,-17.395,-4.333
0.982,0.205,0.111,-19.470,-18.005,-3.052
0.970,0.193,0.107,-17.517,-15.991,-2.869
0.973,0.185,0.111,-16.174,-12.573,-3.052
0.983,0.195,0.122,-15.564,-9.277,-2.625
0.985,0.193,0.122,-14.648,-6.958,-1.343
0.979,0.193,0.125,-13.428,-5.188,-0.244
0.971,0.193,0.132,-12.024,-3.662,-0.183
0.964,0.189,0.141,-10.925,-2.014,-0.488
0.960,0.185,0.152,-10.315,-1.160,-0.977
0.958,0.189,0.157,-10.620,-1.160,-0.916
0.961,0.186,0.152,-10.254,-1.770,-0.549
0.964,0.180,0.148,-9.827,-2.991,-0.488
0.974,0.178,0.151,-9.216,-4.517,-1.648
0.989,0.175,0.157,-9.216,-6.042,-2.930
0.990,0.175,0.156,-9.521,-8.789,-3.906
0.994,0.185,0.157,-9.949,-11.475,-4.639
0.990,0.198,0.159,-9.766,-13.611,-4.089
0.971,0.201,0.148,-8.667,-15.198,-3.296
0.960,0.202,0.139,-6.897,-14.832,-2.747
0.940,0.194,0.127,-5.310,-12.268,-2.319
0.938,0.202,0.141,-4.761,-8.423,-1.892
0.941,0.198,0.150,-3.540,-4.822,-0.916
0.935,0.193,0.155,-3.113,-2.563,-0.061
0.929,0.184,0.155,-3.357,-1.282,0.305
0.933,0.188,0.159,-4.272,-0.244,0.183
0.932,0.193,0.163,-5.249,0.732,-0.183
0.951,0.194,0.171,-5.188,0.732,0.000
0.970,0.185,0.169,-5.127,-0.061,-0.427
0.965,0.202,0.174,-5.554,-1.831,-1.465
0.947,0.212,0.167,-5.676,-4.089,-1.770
0.934,0.215,0.159,-5.066,-4.944,-1.343
0.936,0.207,0.159,-4.333,-3.967,-1.953
0.931,0.212,0.156,-4.211,-2.502,-2.930
0.922,0.219,0.157,-4.211,-0.977,-3.174
0.948,0.225,0.170,-3.845,0.549,-2.991
0.923,0.219,0.167,-2.930,0.671,-2.747
0.937,0.213,0.170,-3.357,0.244,-1.892
0.918,0.205,0.159,-4.395,0.122,-2.136
0.923,0.212,0.153,-5.676,1.160,-1.953
0.943,0.225,0.163,-6.836,3.418,-1.221
0.964,0.211,0.160,-6.470,4.578,0.000
1.001,0.212,0.179,-6.897,4.517,0.732
1.000,0.208,0.176,-7.996,1.648,1.099
0.989,0.218,0.174,-9.155,-1.770,1.587
0.960,0.221,0.168,-9.766,-3.906,1.648
0.943,0.217,0.161,-9.705,-4.089,1.221

1.079,0.072,-1.820,126.892,44.250,-9.399
1.255,0.068,-1.922,160.950,57.617,-12.390
1.486,-0.021,-2.014,205.688,58.960,-13.916
1.679,-0.168,-2.068,257.690,45.837,-15.503
1.808,-0.308,-2.054,308.838,23.499,-15.320
1.891,-0.531,-2.050,357.727,-2.563,-11.292
1.892,-0.720,-2.026,399.963,-25.574,-4.822
1.803,-0.880,-1.931,432.556,-40.039,4.211
1.678,-1.007,-1.816,457.275,-40.161,17.456
1.546,-1.114,-1.624,474.670,-24.597,31.372
1.477,-1.243,-1.403,487.061,1.587,44.617
1.441,-1.342,-1.156,493.774,34.241,54.382
1.419,-1.379,-0.872,494.751,67.810,62.195
1.404,-1.385,-0.566,494.385,95.642,70.984
1.402,-1.401,-0.237,495.361,114.136,80.322
1.379,-1.385,0.108,498.291,120.728,87.952
1.295,-1.418,0.404,503.784,114.624,92.834
1.218,-1.500,0.676,507.080,97.839,96.130
1.146,-1.558,0.971,505.676,74.097,96.436
1.027,-1.594,1.249,497.742,44.495,92.773
0.843,-1.615,1.460,481.445,12.451,86.243
0.615,-1.609,1.589,451.599,-15.442,76.843
0.367,-1.560,1.665,408.569,-32.166,66.406
0.190,-1.466,1.730,356.079,-33.569,56.885
0.109,-1.303,1.765,297.546,-22.400,47.791
0.085,-1.135,1.764,238.708,-5.493,40.649
0.159,-0.990,1.792,181.824,11.536,37.537
0.204,-0.936,1.748,128.906,23.193,35.278
0.225,-0.889,1.795,77.698,28.564,33.630
0.254,-0.761,1.688,22.705,37.598,30.701
0.296,-0.618,1.319,-16.602,46.326,23.621
0.425,-0.462,1.144,-36.377,61.279,10.681
0.716,-0.218,1.002,-42.908,68.420,-2.930
0.923,-0.242,0.785,-38.879,63.293,-3.357
1.012,-0.171,0.618,-35.400,51.514,-5.249
1.144,-0.108,0.484,-33.203,36.438,-9.827
1.266,-0.027,0.410,-31.921,21.973,-17.883
1.396,0.048,0.354,-30.090,4.028,-24.719
1.383,0.073,0.245,-27.405,-17.639,-27.588
1.373,0.154,0.226,-24.475,-36.743,-28.259
1.308,0.186,0.155,-18.494,-53.162,-25.818
1.249,0.216,0.135,-12.817,-59.998,-23.254
1.165,0.183,0.068,-8.606,-59.082,-19.958
1.076,0.198,0.036,-7.080,-51.270,-16.907
1.057,0.212,0.030,-8.057,-37.415,-12.329
1.014,0.215,0.014,-8.057,-21.362,-6.409
1.019,0.213,0.021,-8.606,-5.554,0.610
1.020,0.212,0.050,-8.606,7.751,8.606
0.995,0.203,0.062,-7.568,16.785,15.076
0.962,0.182,0.073,-6.165,21.912,19.226
0.930,0.189,0.081,-4.456,24.963,20.630
0.909,0.180,0.096,-2.075,25.574,20.630
0.903,0.173,0.125,0.732,23.560,19.348
0.922,0.162,0.146,2.930,19.104,17.212
0.913,0.154,0.163,5.066,11.597,13.611
0.908,0.151,0.171,5.981,2.930,9.155
0.887,0.159,0.187,7.507,-5.127,4.822
0.867,0.160,0.199,8.789,-11.841,1.160
0.848,0.157,0.198,9.644,-16.846,-1.709
0.824,0.154,0.195,9.338,-19.592,-3.601
0.801,0.163,0.201,8.484,-19.287,-5.737
0.808,0.169,0.217,7.141,-16.846,-7.751
0.798,0.154,0.212,6.226,-14.587,-8.301
0.861,0.172,0.230,4.578,-11.353,-8.118
0.909,0.190,0.252,2.747,-9.766,-6.958
0.849,0.169,0.223,1.404,-10.620,-4.700
0.843,0.168,0.224,-0.305,-8.667,-2.930
0.858,0.167,0.226,-1.404,-4.456,-3.113
0.911,0.146,0.232,-2.136,0.122,-3.723
0.990,0.150,0.242,-4.333,3.113,-4.761
1.007,0.153,0.253,-6.592,2.686,-4.944
1.018,0.161,0.251,-8.972,0.061,-3.723
0.995,0.175,0.241,-10.498,-2.014,-2.869
0.996,0.170,0.232,-11.292,-2.258,-2.563
0.994,0.169,0.228,-11.108,-1.282,-3.052
1.010,0.163,0.227,-10.864,0.305,-3.296
1.011,0.168,0.231,-10.437,1.709,-3.601
1.012,0.175,0.237,-9.216,1.648,-3.235
1.003,0.172,0.243,-7.751,0.610,-2.014
1.002,0.154,0.239,-6.531,0.061,0.000
0.990,0.146,0.247,-6.042,-0.061,1.221
0.974,0.145,0.251,-6.348,0.427,2.075
0.958,0.147,0.261,-7.385,1.099,2.808
0.955,0.143,0.262,-8.240,1.404,3.174
0.953,0.142,0.254,-8.972,1.770,3.113
0.944,0.150,0.255,-9.705,2.441,2.441
0.936,0.153,0.257,-9.827,3.052,1.831
0.941,0.156,0.265,-9.644,3.357,1.221
0.958,0.150,0.269,-9.827,2.441,1.099
0.942,0.147,0.262,-10.071,0.183,1.099
0.907,0.154,0.251,-11.597,-0.977,1.465
0.886,0.161,0.247,-12.573,-0.183,1.099
0.860,0.154,0.232,-12.695,2.686,0.305
0.931,0.155,0.253,-13.306,5.737,0.305
0.945,0.148,0.251,-14.160,6.104,0.488
0.939,0.157,0.246,-15.686,3.906,0.305
0.907,0.165,0.235,-17.212,1.831,0.427
0.873,0.173,0.226,-17.639,1.282,-0.427
0.895,0.163,0.226,-17.273,2.380,-1.831
0.911,0.161,0.225,-16.846,2.808,-3.052
0.914,0.159,0.211,-17.273,2.014,-3.174
0.921,0.165,0.217,-17.822,2.014,-3.418
0.929,0.170,0.213,-17.944,2.502,-4.639
0.917,0.170,0.212,-17.883,2.563,-5.615
0.940,0.171,0.210,-17.517,1.892,-6.592
0.951,0.165,0.195,-16.296,0.244,-7.263
0.985,0.172,0.195,-15.503,-1.404,-7.263
0.974,0.171,0.172,-14.343,-2.991,-7.263
0.974,0.183,0.174,-13.550,-3.113,-6.775
0.960,0.185,0.169,-12.512,-2.075,-6.592
0.979,0.186,0.178,-11.353,-0.610,-6.409
1.001,0.177,0.188,-10.681,0.244,-6.104
1.007,0.172,0.194,-9.766,-0.732,-5.676
0.994,0.176,0.197,-10.010,-2.625,-5.188
0.975,0.178,0.201,-10.193,-4.456,-5.127
0.959,0.169,0.200,-9.888,-5.554,-5.737
0.955,0.165,0.201,-9.521,-6.042,-7.141
0.953,0.169,0.205,-9.521,-6.592,-8.179
0.949,0.170,0.203,-8.789,-7.263,-8.484

1.198,-0.052,-1.692,145.630,47.302,-18.738
1.292,-0.129,-1.895,178.955,53.467,-19.409
1.381,-0.223,-2.063,217.102,56.519,-19.043
1.464,-0.339,-2.181,257.324,55.908,-16.357
1.571,-0.488,-2.229,299.316,50.659,-10.803
1.631,-0.638,-2.239,342.285,41.687,-6.958
1.623,-0.763,-2.177,382.141,33.875,-4.395
1.559,-0.886,-2.042,418.335,29.785,0.671
1.455,-1.058,-1.905,450.256,31.738,9.216
1.357,-1.148,-1.663,472.961,42.480,17.395
1.311,-1.194,-1.300,488.098,58.777,26.184
1.307,-1.227,-0.935,501.099,71.899,36.072
1.327,-1.266,-0.571,512.390,78.674,43.884
1.349,-1.336,-0.234,520.020,77.148,50.537
1.399,-1.404,0.068,522.095,66.895,58.167
1.452,-1.403,0.389,518.127,50.293,65.491
1.480,-1.404,0.685,512.817,25.391,73.120
1.372,-1.407,0.931,507.202,-7.385,80.444
1.186,-1.385,1.133,498.108,-41.382,87.219
0.928,-1.364,1.238,482.544,-67.505,93.140
0.643,-1.345,1.293,457.581,-77.637,96.375
0.420,-1.260,1.341,420.288,-68.665,95.215
0.296,-1.169,1.392,375.000,-44.373,89.905
0.174,-1.081,1.378,324.524,-12.390,82.703
0.106,-1.001,1.347,272.156,24.414,75.073
0.211,-0.897,1.333,222.656,64.697,65.735
0.385,-0.769,1.366,178.772,98.083,52.307
0.705,-0.554,1.398,142.761,109.741,44.800
0.872,-0.629,1.412,116.333,96.741,49.683
0.754,-0.607,1.138,89.905,71.228,47.119
0.713,-0.489,1.023,70.374,53.406,41.016
0.661,-0.421,0.962,56.213,46.509,27.405
0.760,-0.378,0.961,46.570,44.250,10.620
0.836,-0.360,0.931,37.109,41.077,-2.869
0.965,-0.287,0.888,25.574,35.828,-11.536
1.073,-0.228,0.803,14.282,28.503,-13.611
1.110,-0.165,0.679,5.371,18.921,-12.573
1.139,-0.103,0.565,-1.099,9.705,-10.559
1.152,-0.031,0.479,-5.737,0.977,-9.094
1.161,0.010,0.390,-8.545,-7.568,-9.094
1.163,0.051,0.330,-10.071,-15.259,-10.925
1.181,0.099,0.283,-11.475,-22.644,-13.550
1.176,0.126,0.230,-11.414,-30.273,-15.381
1.165,0.154,0.203,-11.475,-35.950,-15.381
1.089,0.170,0.140,-11.047,-38.513,-12.939
1.023,0.212,0.121,-11.108,-36.499,-8.911
0.944,0.235,0.074,-9.827,-29.236,-5.005
0.921,0.268,0.078,-8.179,-17.212,-2.441
0.922,0.262,0.081,-5.859,-6.592,0.916
0.930,0.263,0.095,-3.845,0.488,4.700
0.906,0.260,0.104,-2.686,4.272,7.568
0.905,0.232,0.100,-1.831,6.042,9.644
0.891,0.232,0.113,-1.648,6.348,10.254
0.883,0.233,0.122,-1.587,5.127,9.338
0.882,0.236,0.135,-0.305,2.686,7.263
0.883,0.234,0.145,2.380,-1.221,4.944
0.873,0.247,0.163,5.554,-5.676,2.319
0.858,0.244,0.178,9.338,-9.155,0.122
0.832,0.231,0.180,12.878,-10.742,-1.770
0.823,0.228,0.193,14.771,-9.705,-3.113
0.814,0.227,0.204,15.503,-7.019,-3.479
0.824,0.230,0.226,15.076,-2.930,-3.357
0.858,0.213,0.243,13.306,0.671,-2.869
0.913,0.203,0.251,10.376,2.686,-1.648
0.919,0.187,0.254,5.859,2.441,-0.305
0.912,0.203,0.249,0.854,1.465,1.282
0.893,0.200,0.240,-2.625,0.977,2.258
0.909,0.201,0.230,-5.676,1.953,2.380
0.943,0.199,0.232,-7.202,3.418,2.014
0.969,0.206,0.238,-7.568,2.930,1.404
0.970,0.208,0.246,-7.751,0.488,0.732
0.966,0.198,0.246,-6.714,-2.441,-0.183
0.964,0.191,0.240,-6.226,-5.371,-1.282
0.958,0.194,0.238,-6.226,-6.714,-2.380
0.953,0.195,0.240,-6.348,-6.165,-2.991
0.946,0.196,0.248,-6.592,-4.761,-3.174
0.950,0.196,0.262,-6.897,-3.235,-2.869
0.953,0.196,0.270,-7.568,-3.113,-1.709
0.938,0.188,0.266,-8.789,-4.028,0.122
0.911,0.187,0.252,-10.193,-4.089,1.648
0.900,0.190,0.247,-11.658,-2.380,2.380
0.911,0.187,0.244,-12.573,-0.122,2.686
0.926,0.186,0.244,-13.611,2.258,2.991
0.916,0.184,0.236,-14.099,3.052,3.296
0.915,0.190,0.240,-14.160,3.235,3.296
0.928,0.181,0.241,-13.855,3.174,3.052
0.937,0.191,0.239,-14.343,2.319,1.892
0.925,0.195,0.235,-14.404,0.427,0.977
0.912,0.195,0.235,-14.404,-0.854,0.061
0.910,0.194,0.234,-14.465,-1.648,-0.732
0.922,0.188,0.238,-14.709,-2.197,-1.648
0.937,0.189,0.238,-15.991,-2.319,-2.686
0.924,0.195,0.235,-17.700,-2.808,-3.174
0.913,0.201,0.227,-19.531,-2.686,-3.113
0.936,0.210,0.224,-21.057,-1.160,-3.113
0.951,0.215,0.222,-21.973,0.610,-3.113
0.939,0.226,0.209,-22.644,1.648,-2.502
0.993,0.229,0.221,-22.644,2.808,-0.793
0.961,0.233,0.201,-21.851,2.258,-0.244
0.969,0.236,0.206,-21.790,1.770,0.610
0.957,0.243,0.203,-21.301,1.587,0.977
0.952,0.240,0.200,-20.813,1.404,1.526
0.925,0.247,0.194,-20.935,1.831,2.014
0.923,0.253,0.195,-21.057,3.784,2.197
0.925,0.245,0.194,-20.386,6.042,2.258
0.947,0.244,0.202,-20.142,7.568,3.052
0.989,0.234,0.213,-20.020,7.690,3.601
0.976,0.235,0.221,-19.592,4.639,3.174
0.943,0.235,0.210,-19.348,-0.244,3.174
0.934,0.247,0.206,-18.921,-3.113,1.709
0.923,0.242,0.198,-17.273,-3.540,-0.793
0.928,0.255,0.212,-16.174,-2.991,-2.441
0.944,0.243,0.215,-14.954,-3.052,-2.502
0.968,0.238,0.230,-14.404,-4.150,-2.502
0.969,0.240,0.239,-14.282,-6.226,-2.380
0.953,0.241,0.236,-13.855,-9.338,-2.014
0.927,0.240,0.228,-13.367,-11.658,-1.892
0.910,0.238,0.220,-13.184,-11.597,-2.441
0.910,0.246,0.225,-12.878,-9.583,-3.052

1.307,-0.089,-1.387,101.868,10.254,-7.080
1.401,-0.082,-1.555,126.648,10.864,-8.423
1.512,-0.120,-1.709,161.255,9.460,-10.010
1.594,-0.216,-1.854,204.041,5.432,-10.010
1.630,-0.360,-2.002,248.962,0.244,-7.812
1.657,-0.530,-2.090,293.152,-1.099,-3.784
1.624,-0.611,-2.045,333.435,1.953,0.916
1.563,-0.760,-1.985,373.108,7.385,8.484
1.435,-0.889,-1.877,409.485,15.381,15.137
1.331,-0.974,-1.679,437.439,29.175,21.362
1.220,-1.043,-1.488,462.280,47.241,26.672
1.147,-1.124,-1.251,483.215,68.726,31.555
1.144,-1.188,-1.010,500.061,88.928,34.790
1.134,-1.185,-0.734,514.648,105.530,36.377
1.155,-1.220,-0.457,529.480,114.746,42.664
1.209,-1.268,-0.196,540.466,115.417,53.101
1.229,-1.326,0.086,546.936,107.666,61.829
1.197,-1.344,0.349,549.133,91.248,66.772
1.117,-1.389,0.555,547.668,67.627,70.923
1.073,-1.429,0.834,539.062,42.542,75.562
0.978,-1.435,1.082,524.475,16.296,74.890
0.788,-1.415,1.246,502.319,-8.118,64.514
0.591,-1.378,1.361,470.520,-23.315,50.476
0.441,-1.311,1.414,427.124,-28.137,39.368
0.363,-1.206,1.440,374.939,-20.691,29.968
0.307,-1.094,1.456,317.932,-5.188,22.827
0.354,-1.002,1.516,260.742,13.611,17.090
0.409,-0.975,1.618,203.674,30.334,11.292
0.592,-1.081,1.968,141.541,40.161,6.409
0.742,-0.979,2.109,62.134,38.818,8.667
0.665,-0.715,1.751,-7.385,26.794,9.277
0.577,-0.505,1.432,-44.983,24.475,3.784
0.586,-0.326,1.101,-56.885,35.339,-2.380
0.800,-0.202,0.893,-53.467,50.232,-5.981
0.970,-0.135,0.674,-40.405,57.800,-8.911
1.137,-0.052,0.520,-25.940,59.082,-9.888
1.257,-0.015,0.363,-12.451,51.086,-8.423
1.315,0.033,0.278,-2.441,35.950,-6.531
1.326,0.082,0.182,3.540,18.188,-5.798
1.258,0.153,0.127,7.080,1.099,-6.226
1.199,0.186,0.049,9.277,-12.695,-7.324
1.151,0.229,0.030,10.681,-21.240,-9.094
1.105,0.244,0.007,11.414,-26.611,-10.986
1.091,0.266,0.023,11.353,-29.053,-13.184
1.063,0.254,0.020,11.292,-29.663,-13.367
1.057,0.250,0.039,10.376,-27.039,-11.719
1.008,0.248,0.061,9.399,-23.376,-9.094
0.948,0.248,0.074,8.545,-18.311,-5.249
0.894,0.229,0.065,6.592,-12.573,-1.526
0.848,0.213,0.059,3.235,-7.019,1.831
0.828,0.222,0.066,-0.732,-1.526,4.578
0.820,0.229,0.071,-2.991,2.625,6.042
0.826,0.223,0.084,-3.052,5.310,5.920
0.839,0.217,0.090,-1.892,6.348,4.822
0.860,0.211,0.105,0.061,6.042,3.174
0.869,0.207,0.139,2.197,5.188,1.587
0.875,0.200,0.157,3.723,4.089,0.305
0.879,0.183,0.173,4.761,3.662,-0.977
0.891,0.185,0.193,3.784,4.883,-2.136
0.897,0.187,0.215,2.869,6.836,-2.808
0.911,0.190,0.235,1.404,8.850,-2.625
0.932,0.193,0.244,0.061,10.132,-2.136
0.949,0.193,0.237,-1.709,10.620,-1.099
0.970,0.200,0.227,-4.028,10.986,0.000
0.978,0.192,0.222,-5.737,11.108,0.977
0.993,0.193,0.218,-7.507,10.437,2.075
1.006,0.188,0.207,-8.789,9.094,3.723
1.014,0.186,0.190,-9.644,7.080,4.333
1.029,0.184,0.172,-10.681,5.798,4.211
1.054,0.185,0.172,-11.597,3.845,4.150
1.062,0.185,0.160,-12.146,0.793,3.967
1.043,0.192,0.137,-11.719,-2.808,4.211
1.036,0.224,0.175,-10.986,-5.676,3.723
1.016,0.202,0.159,-9.888,-9.033,3.052
0.998,0.197,0.169,-9.644,-11.230,3.235
0.956,0.199,0.151,-9.460,-12.756,3.479
0.914,0.182,0.138,-9.155,-11.292,3.784
0.920,0.191,0.145,-9.338,-7.141,2.869
0.931,0.187,0.150,-9.399,-2.869,2.563
0.961,0.192,0.172,-9.399,-0.488,3.479
0.941,0.180,0.169,-9.827,-0.793,5.066
0.955,0.182,0.160,-10.437,-1.343,6.165
0.935,0.177,0.154,-11.169,-2.197,6.104
0.933,0.184,0.154,-12.451,-2.014,5.066
0.947,0.184,0.155,-12.695,-1.892,4.089
0.962,0.189,0.156,-13.367,-2.258,3.174
0.952,0.204,0.157,-13.550,-3.296,2.869
0.927,0.196,0.146,-13.000,-4.089,2.625
0.918,0.191,0.143,-12.512,-3.113,1.404
0.921,0.195,0.148,-12.085,-1.831,-0.610
0.967,0.213,0.179,-11.841,-1.343,-1.892
0.975,0.199,0.179,-11.292,-3.662,-1.526
0.969,0.186,0.172,-11.475,-7.324,-0.610
0.955,0.209,0.164,-12.268,-9.216,-1.038
0.928,0.201,0.159,-12.329,-9.094,-0.366
0.902,0.209,0.138,-12.512,-6.042,-0.244
0.911,0.225,0.160,-11.658,-0.793,-0.305
0.947,0.220,0.179,-10.986,4.150,0.183
0.997,0.211,0.200,-10.620,6.104,1.282
0.990,0.205,0.197,-10.803,3.967,2.502
0.955,0.215,0.193,-11.963,1.709,3.540
0.964,0.219,0.202,-12.634,1.221,3.479
0.973,0.212,0.205,-13.062,1.465,2.136
1.006,0.214,0.220,-14.832,1.160,1.831
1.005,0.218,0.217,-16.418,-0.549,1.831
1.000,0.222,0.218,-17.517,-3.113,2.258
0.982,0.221,0.210,-18.127,-5.249,3.052
0.968,0.218,0.215,-18.799,-6.104,2.747
0.954,0.214,0.209,-19.226,-6.042,1.770
0.942,0.213,0.208,-19.958,-5.310,1.343
0.972,0.212,0.225,-20.386,-4.272,0.854
0.986,0.210,0.234,-20.935,-5.127,0.793
0.993,0.206,0.237,-22.156,-8.118,1.953
0.975,0.208,0.230,-23.437,-11.536,3.418
0.954,0.210,0.224,-24.658,-13.733,4.395
0.945,0.207,0.224,-26.062,-13.428,4.700
0.941,0.198,0.234,-27.161,-12.329,4.700
0.971,0.202,0.235,-28.992,-10.986,4.639
0.980,0.191,0.245,-30.457,-10.925,5.066

1.004,0.048,-1.679,104.919,-23.010,-3.174
1.060,0.051,-1.814,131.653,-17.700,-5.310
1.139,0.025,-1.954,164.551,-15.198,-7.324
1.207,-0.055,-2.041,200.989,-17.029,-9.521
1.281,-0.136,-2.118,237.122,-23.682,-10.376
1.333,-0.272,-2.169,273.437,-33.752,-10.071
1.366,-0.451,-2.216,307.617,-44.067,-10.620
1.377,-0.574,-2.211,335.083,-50.171,-12.390
1.364,-0.658,-2.126,358.582,-50.781,-13.855
1.356,-0.775,-2.037,381.836,-45.349,-13.489
1.325,-0.858,-1.913,403.809,-32.898,-10.620
1.302,-0.950,-1.726,425.903,-15.686,-3.479
1.311,-1.079,-1.529,448.608,2.991,6.714
1.291,-1.227,-1.336,469.177,21.667,16.479
1.297,-1.305,-1.046,483.215,37.842,25.818
1.302,-1.343,-0.714,494.263,47.241,36.560
1.317,-1.397,-0.395,507.019,46.265,47.119
1.368,-1.440,-0.057,520.020,35.889,55.603
1.391,-1.475,0.250,532.227,14.954,62.805
1.327,-1.551,0.467,541.931,-16.052,71.228
1.168,-1.605,0.633,544.006,-52.124,81.116
0.937,-1.609,0.784,537.903,-82.397,91.431
0.645,-1.627,0.902,524.536,-99.609,99.915
0.403,-1.613,1.012,500.061,-99.854,99.792
0.216,-1.550,1.177,465.271,-83.069,89.050
0.129,-1.462,1.323,422.546,-58.289,73.730
0.138,-1.351,1.428,375.549,-33.752,55.969
0.138,-1.288,1.523,326.355,-13.977,38.696
0.164,-1.190,1.679,271.973,-0.488,23.926
0.490,-1.213,2.028,214.600,15.198,12.878
0.477,-1.442,2.408,143.372,7.385,17.456
0.092,-1.216,2.368,48.523,-4.578,13.733
0.262,-0.904,1.909,-21.057,6.592,3.174
0.474,-0.559,1.459,-52.185,20.325,-1.465
0.740,-0.281,1.110,-50.842,25.513,-3.662
0.882,-0.132,0.841,-29.785,17.273,-3.967
0.936,-0.075,0.665,-3.296,2.991,-6.165
1.015,-0.062,0.513,15.076,-9.644,-9.338
1.071,-0.006,0.387,21.667,-21.118,-14.099
1.105,0.055,0.298,19.470,-31.494,-18.616
1.081,0.110,0.228,13.184,-39.978,-22.644
1.137,0.182,0.222,7.385,-46.814,-26.001
1.116,0.205,0.183,4.028,-55.420,-27.649
1.087,0.218,0.157,1.953,-61.218,-27.527
1.049,0.226,0.145,1.648,-60.913,-27.039
1.000,0.228,0.130,2.625,-55.054,-25.146
0.990,0.230,0.145,3.296,-43.701,-20.691
0.962,0.227,0.138,3.906,-30.273,-13.306
0.921,0.234,0.124,2.869,-15.503,-4.150
0.869,0.223,0.109,0.488,-0.305,5.249
0.848,0.235,0.120,-1.282,15.564,14.038
0.849,0.231,0.137,-1.892,29.114,20.508
0.858,0.227,0.152,-1.160,38.696,24.353
0.882,0.213,0.173,0.366,43.091,26.306
0.903,0.203,0.202,2.014,41.931,26.245
0.897,0.201,0.230,4.150,35.767,23.743
0.887,0.190,0.253,7.019,26.062,20.081
0.879,0.185,0.264,9.644,14.832,15.320
0.850,0.178,0.273,12.207,4.639,9.949
0.819,0.181,0.279,14.282,-2.930,4.822
0.824,0.181,0.287,15.747,-6.714,1.038
0.836,0.176,0.299,17.029,-8.118,-1.526
0.845,0.173,0.313,16.968,-7.690,-1.770
0.830,0.165,0.327,15.930,-6.714,-0.549
0.802,0.147,0.326,14.587,-4.272,0.488
0.818,0.149,0.340,12.207,0.549,1.526
0.808,0.129,0.335,9.033,7.446,3.052
0.852,0.138,0.366,5.981,14.771,3.662
0.868,0.130,0.355,3.662,19.165,3.967
0.926,0.130,0.425,2.075,20.691,4.578
1.001,0.107,0.410,0.916,15.503,5.188
0.988,0.097,0.408,-0.610,7.751,4.761
0.961,0.122,0.383,-2.747,1.892,2.258
0.974,0.125,0.398,-3.235,-0.427,0.000
1.005,0.121,0.398,-2.747,-1.770,-0.854
1.004,0.113,0.384,-2.258,-4.028,-0.549
0.990,0.114,0.375,-2.563,-5.249,-0.244
0.976,0.112,0.377,-3.906,-4.517,-0.183
0.989,0.121,0.382,-6.104,-2.991,0.671
0.996,0.115,0.378,-7.996,-2.991,2.563
0.984,0.115,0.365,-10.803,-3.662,3.906
0.964,0.122,0.359,-13.062,-4.944,3.967
0.937,0.140,0.354,-14.160,-5.981,2.991
0.909,0.139,0.337,-14.221,-6.165,2.441
0.883,0.136,0.324,-13.794,-5.188,2.136
0.856,0.137,0.314,-13.489,-3.052,0.916
0.875,0.150,0.337,-13.489,-0.244,-0.916
0.904,0.148,0.339,-13.000,-0.305,-1.282
0.891,0.133,0.328,-12.695,-2.991,-0.061
0.861,0.148,0.310,-13.550,-4.700,-0.488
0.843,0.157,0.305,-13.977,-4.028,-1.099
0.843,0.151,0.290,-14.160,-1.221,-1.648
0.882,0.165,0.308,-14.160,2.380,-2.441
0.925,0.170,0.318,-13.916,4.028,-2.075
0.930,0.171,0.320,-13.794,2.441,-1.160
0.927,0.173,0.318,-14.343,0.000,-0.488
0.932,0.173,0.310,-15.076,-1.282,-0.488
0.923,0.162,0.296,-16.174,-1.465,-0.488
0.950,0.185,0.311,-17.517,-0.488,-0.366
0.948,0.196,0.313,-18.311,-0.061,-0.671
0.953,0.197,0.316,-18.677,-0.366,0.061
0.926,0.191,0.303,-18.677,-1.099,0.366
0.904,0.194,0.306,-18.494,-1.038,0.000
0.901,0.188,0.306,-17.517,0.183,-1.160
0.899,0.182,0.325,-16.418,1.221,-2.258
0.901,0.169,0.334,-16.479,0.244,-2.808
0.883,0.164,0.336,-16.663,-1.038,-2.869
0.868,0.153,0.333,-17.761,-1.465,-2.869
0.860,0.160,0.344,-18.616,-0.793,-3.723
0.875,0.155,0.346,-19.226,0.000,-4.272
0.890,0.150,0.350,-20.081,0.366,-4.822
0.897,0.150,0.354,-20.935,0.549,-5.676
0.925,0.156,0.368,-21.667,0.549,-6.165
0.957,0.151,0.373,-23.071,-0.793,-6.042
0.970,0.150,0.375,-24.780,-3.357,-5.188
0.957,0.157,0.365,-27.039,-6.104,-3.967
0.941,0.164,0.359,-28.809,-7.385,-3.357
0.945,0.168,0.351,-29.785,-6.714,-3.174
0.954,0.179,0.352,-30.457,-5.554,-2.869

1.439,0.034,-1.725,39.917,58.289,-47.485
1.721,0.006,-1.910,77.393,64.209,-41.443
1.966,-0.031,-2.080,120.361,52.979,-33.203
2.077,-0.135,-2.277,167.480,26.245,-23.437
