aX,aY,aZ,gX,gY,gZ
1.041,-0.259,-1.235,146.240,57.495,-19.714
1.131,-0.276,-1.152,175.720,65.857,-25.696
1.225,-0.312,-0.920,238.892,62.683,-29.602
1.339,-0.357,-0.797,269.287,52.368,-27.771
1.381,-0.413,-0.707,296.326,39.185,-24.536
1.377,-0.481,-0.628,320.312,26.978,-21.179
1.337,-0.557,-0.570,339.661,17.456,-17.944
1.288,-0.621,-0.534,355.103,12.085,-14.893
1.265,-0.665,-0.495,366.333,11.353,-10.620
1.260,-0.650,-0.405,374.695,13.245,-5.798
1.270,-0.626,-0.286,384.033,16.663,-2.808
1.284,-0.616,-0.190,393.005,18.066,-0.549
1.283,-0.597,-0.087,400.940,17.944,1.038
1.259,-0.590,-0.026,407.837,15.991,1.282
1.229,-0.590,0.018,412.903,11.047,1.343
1.199,-0.584,0.069,417.114,7.446,0.793
1.159,-0.606,0.084,420.349,4.639,0.671
1.114,-0.620,0.086,420.532,4.028,-0.183
1.046,-0.640,0.091,418.091,8.972,-1.892
0.987,-0.651,0.092,411.438,16.907,-3.235
0.953,-0.661,0.114,401.367,25.208,-4.150
0.925,-0.657,0.142,389.648,32.532,-6.531
0.911,-0.655,0.179,377.136,37.354,-9.766
0.905,-0.658,0.186,362.732,39.917,-14.099
0.905,-0.635,0.190,345.886,41.809,-19.653
0.931,-0.592,0.204,328.247,42.358,-24.658
0.971,-0.548,0.219,311.035,39.734,-28.076
0.986,-0.504,0.229,296.143,31.738,-31.189
0.984,-0.471,0.244,284.180,19.775,-33.752
0.976,-0.431,0.256,273.193,6.531,-35.828
0.969,-0.403,0.278,261.597,-7.141,-36.865
0.947,-0.349,0.311,248.779,-21.790,-36.560
0.909,-0.326,0.333,234.009,-35.583,-36.194
0.838,-0.318,0.351,216.919,-44.922,-37.292
0.822,-0.337,0.384,197.754,-49.744,-38.940
0.826,-0.344,0.436,175.415,-51.086,-39.856
0.986,-0.435,0.807,151.184,-51.941,-40.405
1.010,-0.317,1.070,116.455,-72.327,-34.424
0.763,-0.505,1.195,73.425,-88.135,-19.958
0.484,-0.552,1.015,28.442,-73.242,-10.925
0.505,-0.325,0.813,-8.972,-31.433,-3.784
0.792,-0.128,0.712,-26.001,2.380,2.686
0.947,-0.120,0.629,-28.198,9.521,7.629
0.894,-0.123,0.561,-29.358,8.728,11.536
0.856,-0.081,0.488,-34.546,10.803,12.207
0.872,-0.061,0.414,-39.917,13.550,9.155
0.896,-0.044,0.359,-43.396,17.761,5.127
0.920,-0.043,0.313,-47.363,19.775,1.160
0.945,-0.047,0.282,-52.856,20.691,-2.563
0.962,-0.053,0.266,-60.608,22.522,-4.211
0.988,-0.041,0.263,-69.824,25.024,-3.967
1.030,-0.029,0.267,-82.153,25.757,-2.258
1.045,-0.025,0.238,-96.558,23.499,1.648
1.040,-0.029,0.225,-110.840,19.653,7.202
1.040,-0.023,0.178,-123.901,15.137,12.573
1.058,-0.016,0.142,-132.996,11.475,17.395
1.059,-0.009,0.115,-137.939,7.874,22.400
1.058,-0.009,0.093,-140.076,5.981,26.794
1.063,-0.006,0.063,-140.808,5.676,29.907
1.049,0.003,0.041,-141.418,7.385,32.471
1.043,0.012,0.030,-140.991,10.071,33.569
1.053,0.016,0.020,-140.869,13.184,34.119
1.059,0.018,0.008,-141.968,15.503,33.569
1.053,0.022,-0.012,-143.738,15.991,32.593
1.050,0.030,-0.053,-147.095,14.404,31.616
1.045,0.046,-0.090,-151.550,10.620,31.738
1.027,0.068,-0.109,-155.151,6.226,32.471
1.020,0.092,-0.135,-156.982,1.892,33.264
1.007,0.113,-0.154,-156.372,-1.770,34.851
0.988,0.146,-0.144,-152.466,-4.028,37.170
0.982,0.160,-0.132,-145.203,-4.639,39.307
0.962,0.149,-0.128,-138.428,-3.601,40.710
0.924,0.142,-0.123,-133.118,0.061,39.978
0.902,0.145,-0.107,-129.089,7.874,37.292
0.899,0.138,-0.106,-127.075,17.761,34.485
0.901,0.122,-0.109,-126.587,26.306,31.067
0.914,0.095,-0.099,-128.235,33.691,27.466
0.937,0.075,-0.097,-133.057,38.940,24.292
0.946,0.076,-0.113,-139.282,39.734,21.606
0.951,0.085,-0.137,-143.799,36.987,20.874
0.950,0.105,-0.172,-145.447,32.043,22.644
0.947,0.129,-0.201,-143.860,26.306,26.428
0.945,0.155,-0.207,-139.526,22.644,31.006
0.962,0.171,-0.195,-133.240,20.081,35.034
0.974,0.179,-0.199,-125.854,16.602,38.147
0.964,0.185,-0.204,-118.713,12.634,39.185
0.954,0.196,-0.214,-112.183,9.033,38.452
0.951,0.203,-0.222,-105.164,6.653,36.377
0.946,0.198,-0.232,-98.389,4.639,33.936
0.942,0.201,-0.232,-92.590,2.441,31.311
0.951,0.201,-0.223,-87.646,0.122,28.503
0.963,0.177,-0.223,-83.679,-3.235,26.489
0.967,0.151,-0.223,-82.886,-7.385,25.024
0.965,0.155,-0.214,-84.167,-11.902,24.109
0.966,0.154,-0.217,-86.670,-16.907,24.292
0.964,0.138,-0.232,-89.783,-21.667,25.024
0.969,0.133,-0.230,-93.689,-25.696,26.306
0.984,0.143,-0.212,-98.083,-28.870,27.344
0.993,0.141,-0.203,-101.746,-32.471,27.954
0.999,0.152,-0.183,-105.408,-36.133,28.137
1.008,0.145,-0.182,-107.544,-40.222,28.381
1.014,0.117,-0.180,-109.985,-46.875,29.602
1.012,0.117,-0.143,-115.051,-54.382,29.968
0.999,0.142,-0.104,-120.117,-61.279,28.809
0.971,0.163,-0.094,-123.657,-68.054,27.344
0.933,0.192,-0.099,-125.000,-73.303,25.391
0.905,0.218,-0.109,-122.253,-75.806,23.254
0.888,0.211,-0.137,-116.455,-76.538,22.461
0.859,0.186,-0.151,-111.328,-73.181,22.278
0.844,0.180,-0.140,-107.666,-65.247,21.484
0.841,0.190,-0.134,-104.858,-54.993,20.752
0.840,0.191,-0.135,-102.478,-44.678,19.775
0.859,0.192,-0.128,-100.586,-35.095,18.677
0.894,0.186,-0.120,-98.755,-27.161,17.029
0.931,0.159,-0.118,-96.924,-22.278,15.137
0.963,0.146,-0.110,-98.450,-21.362,13.855
0.995,0.143,-0.108,-101.929,-23.743,12.451
1.007,0.143,-0.111,-105.408,-28.687,11.292
0.997,0.156,-0.118,-108.276,-34.607,10.864

1.776,-1.267,2.861,192.810,-71.594,-45.105
0.813,-1.154,1.617,78.735,-144.592,-35.645
0.536,-0.344,0.979,15.686,-105.530,-6.714
0.586,-0.240,1.010,2.075,-45.288,8.301
0.793,-0.330,0.841,-4.028,-17.029,2.319
0.874,-0.057,0.560,-14.587,-0.793,-0.366
0.846,0.087,0.323,-13.428,7.690,-2.197
0.865,0.138,0.124,-2.258,4.150,-2.075
0.893,0.173,0.013,10.315,0.793,-0.854
0.926,0.209,-0.041,19.043,-0.488,-0.977
0.955,0.229,-0.096,25.269,-2.686,-2.319
0.965,0.235,-0.135,30.334,-6.592,-3.479
0.958,0.239,-0.157,35.034,-10.193,-6.042
0.954,0.242,-0.157,38.330,-10.803,-9.338
0.961,0.232,-0.151,40.527,-9.399,-11.169
0.980,0.219,-0.123,40.710,-6.714,-10.803
0.989,0.203,-0.074,39.978,-4.150,-8.728
0.991,0.174,-0.005,37.537,-1.404,-4.944
0.990,0.139,0.069,33.447,0.549,-1.343
0.962,0.108,0.123,28.503,1.770,2.136
0.927,0.083,0.165,22.095,3.235,5.188
0.906,0.064,0.198,16.663,5.371,7.019
0.907,0.051,0.232,11.963,7.568,8.179
0.920,0.043,0.257,7.629,10.132,8.545
0.938,0.038,0.260,4.333,11.536,8.301
0.968,0.046,0.249,1.404,11.963,7.568
0.992,0.059,0.223,-1.282,10.742,6.226
0.999,0.075,0.197,-2.991,7.446,4.822
0.999,0.086,0.175,-3.479,3.906,3.662
1.004,0.091,0.162,-3.174,1.160,2.014
1.005,0.101,0.133,-2.197,-0.854,0.977
1.003,0.113,0.115,-0.305,-2.197,0.977
1.000,0.119,0.111,2.380,-2.380,1.526
0.985,0.122,0.107,4.639,-2.014,1.892
0.962,0.126,0.101,6.165,-1.160,2.197
0.936,0.123,0.095,6.226,0.305,3.052
0.922,0.121,0.096,5.249,2.808,3.601
0.919,0.114,0.109,3.723,5.859,3.845
0.929,0.103,0.124,1.648,8.301,3.479
0.937,0.094,0.141,-0.793,9.705,2.808
0.947,0.086,0.154,-2.441,10.559,1.953
0.965,0.077,0.160,-4.150,10.803,0.671
0.990,0.071,0.174,-5.432,10.986,-0.488
1.011,0.071,0.189,-6.348,10.620,-1.038
1.025,0.076,0.193,-6.775,8.606,-1.099
1.039,0.079,0.172,-7.385,5.554,-0.854
1.034,0.092,0.140,-9.949,2.808,-0.244
1.010,0.110,0.095,-13.611,0.183,1.465
0.985,0.124,0.056,-16.724,-1.343,3.906
0.960,0.131,0.036,-18.188,-0.916,5.981
0.967,0.130,0.035,-19.165,0.854,6.775
0.977,0.128,0.041,-19.165,2.625,6.287
0.982,0.129,0.053,-18.616,3.357,5.554
0.987,0.123,0.069,-16.541,2.808,4.272
0.987,0.115,0.090,-13.794,2.258,2.625
0.993,0.105,0.116,-10.193,1.587,1.221
1.004,0.094,0.145,-7.019,0.427,-0.061
1.011,0.084,0.166,-4.333,-1.343,-1.038
1.005,0.078,0.177,-3.845,-2.808,-1.526
1.001,0.076,0.186,-5.188,-4.028,-1.404
0.996,0.079,0.188,-8.301,-5.188,-0.610
0.986,0.082,0.188,-11.780,-5.981,0.061
0.974,0.084,0.177,-15.808,-6.409,0.793
0.971,0.085,0.172,-19.897,-6.470,1.465
0.965,0.082,0.172,-23.865,-5.310,2.319
0.971,0.082,0.171,-27.649,-4.089,2.625
0.979,0.085,0.171,-31.250,-3.174,2.686
0.985,0.083,0.183,-33.752,-2.441,2.808
0.991,0.077,0.199,-35.034,-2.869,2.869
0.995,0.067,0.213,-36.377,-4.150,2.380
0.998,0.060,0.227,-38.879,-5.554,1.831
1.000,0.056,0.252,-41.870,-7.751,0.671
1.001,0.049,0.275,-46.021,-10.498,-0.671
0.999,0.047,0.288,-51.941,-14.160,-2.319
0.987,0.043,0.299,-59.204,-17.639,-3.357
0.980,0.038,0.305,-67.261,-20.386,-4.272
0.973,0.027,0.302,-75.745,-22.339,-5.127
0.960,0.013,0.303,-85.266,-24.048,-6.226
0.954,0.001,0.311,-95.642,-24.536,-7.935
0.959,-0.002,0.325,-106.445,-24.902,-9.827
0.966,0.010,0.340,-116.821,-26.062,-11.658
0.967,0.028,0.339,-124.146,-28.259,-12.390
0.969,0.044,0.331,-128.113,-30.884,-11.963
0.982,0.061,0.323,-128.113,-33.325,-9.949
0.993,0.066,0.314,-124.939,-36.133,-5.981
0.997,0.056,0.295,-121.338,-38.940,-2.258
0.977,0.046,0.282,-118.225,-39.795,0.610
0.961,0.042,0.276,-116.882,-37.170,2.380
0.957,0.034,0.258,-118.103,-32.593,3.540
0.956,0.019,0.248,-121.033,-26.489,3.845
0.953,0.012,0.243,-125.732,-20.081,3.906
0.964,0.015,0.237,-132.080,-14.587,4.150
0.974,0.023,0.228,-139.099,-10.864,4.883
0.982,0.027,0.225,-146.240,-9.888,6.104
0.987,0.042,0.215,-152.710,-11.902,7.812
0.991,0.051,0.196,-156.799,-15.991,9.277
1.003,0.054,0.183,-158.875,-20.752,10.437
1.011,0.074,0.171,-159.668,-25.574,11.658
1.001,0.096,0.154,-158.752,-30.029,12.451
0.991,0.114,0.141,-156.250,-32.593,13.245
0.979,0.118,0.127,-152.283,-32.898,13.977
0.964,0.123,0.113,-148.682,-31.067,14.404
0.952,0.125,0.101,-145.813,-27.100,14.221
0.954,0.124,0.092,-143.372,-22.339,13.855
0.968,0.117,0.087,-141.602,-18.494,13.489
0.976,0.111,0.092,-142.090,-16.296,13.672
0.994,0.111,0.105,-144.287,-16.846,14.099
1.006,0.110,0.107,-147.278,-20.203,14.282
1.000,0.112,0.099,-149.963,-25.757,14.099
0.988,0.121,0.091,-151.917,-31.982,13.550
0.978,0.124,0.074,-152.527,-36.804,12.268
0.955,0.134,0.062,-152.893,-39.246,10.681
0.928,0.158,0.048,-152.405,-39.490,9.338
0.922,0.166,0.031,-150.940,-37.109,8.667
0.912,0.174,0.013,-147.949,-32.776,8.240
0.898,0.184,0.004,-144.836,-26.367,7.568
0.904,0.184,-0.006,-141.724,-19.104,7.690
0.902,0.187,-0.012,-139.587,-12.451,8.606
0.898,0.184,-0.020,-138.367,-6.958,10.193

1.336,-0.110,-1.377,120.605,26.672,-26.184
1.376,-0.105,-1.434,148.560,28.503,-27.222
1.382,-0.135,-1.375,183.105,30.884,-24.841
1.372,-0.198,-1.332,219.360,32.471,-21.301
1.373,-0.304,-1.304,254.456,33.142,-17.883
1.325,-0.478,-1.351,283.997,33.569,-14.404
1.252,-0.625,-1.430,307.739,37.842,-12.512
1.173,-0.792,-1.438,344.727,79.163,-16.235
1.255,-0.867,-1.370,363.892,105.713,-18.005
1.335,-0.888,-1.222,384.766,128.296,-19.043
1.387,-0.894,-1.058,405.823,141.541,-18.982
1.445,-0.922,-0.901,427.795,143.860,-19.104
1.473,-0.984,-0.817,449.402,136.536,-22.095
1.458,-0.979,-0.679,469.971,125.244,-26.794
1.449,-0.927,-0.443,493.958,112.305,-31.372
1.443,-0.957,-0.257,523.804,95.093,-35.217
1.410,-1.047,-0.077,550.537,73.730,-37.476
1.380,-1.129,0.153,572.998,49.927,-39.063
1.300,-1.217,0.304,592.163,20.264,-40.527
1.177,-1.341,0.431,600.525,-11.841,-41.748
1.052,-1.378,0.549,594.421,-39.001,-42.297
0.860,-1.342,0.627,575.439,-62.012,-37.415
0.574,-1.302,0.647,543.091,-74.646,-26.489
0.381,-1.354,0.744,501.160,-66.833,-15.991
0.542,-1.669,1.199,450.073,-45.654,-11.780
1.624,-2.742,3.993,382.385,-48.828,-30.884
0.549,-3.608,3.958,163.330,-144.592,-44.861
-0.368,-0.907,1.551,-89.722,-144.531,7.324
-0.507,-0.048,1.044,-114.197,-64.514,16.418
0.397,-0.451,1.077,-87.585,5.432,1.221
1.024,-0.358,0.855,-61.768,35.156,4.822
1.023,-0.088,0.513,-41.931,25.269,9.216
0.831,0.090,0.215,-21.667,6.836,9.705
0.814,0.156,0.041,-5.981,0.549,6.348
0.895,0.216,-0.065,3.967,5.920,2.258
0.965,0.293,-0.127,12.207,10.132,-1.709
1.021,0.336,-0.163,20.813,7.629,-6.165
1.062,0.330,-0.173,28.870,1.404,-10.681
1.091,0.309,-0.162,34.973,-4.150,-14.282
1.111,0.300,-0.150,37.903,-8.057,-16.418
1.095,0.296,-0.152,38.452,-11.658,-15.503
1.071,0.276,-0.150,38.025,-13.489,-11.292
1.049,0.245,-0.124,36.804,-11.841,-5.798
1.025,0.217,-0.076,35.461,-7.812,-0.671
1.010,0.186,-0.020,34.302,-3.357,4.822
0.995,0.162,0.026,33.081,0.732,9.644
0.941,0.136,0.060,32.654,4.272,13.611
0.901,0.107,0.093,33.081,8.362,16.663
0.888,0.070,0.141,33.142,13.000,18.433
0.885,0.049,0.166,32.227,17.029,18.433
0.889,0.038,0.186,28.931,19.775,16.663
0.903,0.022,0.203,24.414,20.691,13.916
0.923,0.011,0.224,20.081,19.165,10.376
0.931,0.024,0.238,15.442,15.625,6.836
0.927,0.034,0.238,10.925,10.498,4.395
0.915,0.046,0.218,7.446,6.042,2.441
0.902,0.063,0.194,5.371,4.517,1.160
0.904,0.080,0.178,4.028,5.310,0.793
0.909,0.093,0.172,4.028,7.019,0.916
0.922,0.093,0.168,4.761,8.301,0.977
0.946,0.091,0.163,5.310,8.606,0.305
0.973,0.106,0.155,5.432,8.362,-0.916
0.978,0.100,0.142,5.310,7.690,-1.038
0.970,0.099,0.126,4.944,7.751,-1.404
1.000,0.124,0.120,4.028,8.667,-2.502
1.001,0.124,0.099,2.991,9.521,-2.502
1.017,0.140,0.086,1.892,10.986,-2.258
1.033,0.140,0.079,1.038,12.329,-0.793
1.041,0.143,0.082,0.671,12.146,0.732
1.051,0.131,0.078,0.061,10.864,2.136
1.053,0.134,0.073,-0.244,8.057,2.441
1.043,0.135,0.072,0.000,5.127,2.930
1.026,0.131,0.079,0.732,2.197,3.723
1.011,0.127,0.076,1.587,0.061,3.784
1.001,0.126,0.078,1.709,-1.099,3.296
0.989,0.127,0.085,1.892,-1.099,3.052
0.990,0.127,0.094,2.075,-0.793,2.930
0.988,0.121,0.103,1.953,-0.366,3.113
0.983,0.115,0.120,1.587,-0.488,3.601
0.976,0.110,0.134,0.427,-0.977,3.845
0.964,0.110,0.145,-1.404,-1.465,4.150
0.954,0.107,0.154,-3.479,-2.441,4.517
0.945,0.106,0.157,-5.554,-3.296,4.333
0.936,0.110,0.159,-8.240,-3.784,4.089
0.922,0.112,0.156,-10.681,-3.723,3.784
0.914,0.114,0.161,-12.512,-3.052,3.357
0.913,0.115,0.164,-14.404,-2.014,2.991
0.916,0.110,0.170,-16.479,-0.977,2.502
0.923,0.103,0.171,-18.799,-0.732,1.770
0.929,0.106,0.164,-20.752,-0.854,0.854
0.926,0.112,0.147,-23.071,-1.038,0.000
0.913,0.117,0.136,-25.391,-0.916,0.000
0.927,0.114,0.129,-28.198,0.427,1.038
0.938,0.115,0.121,-30.945,2.014,2.502
0.952,0.128,0.115,-33.508,3.479,4.089
0.963,0.130,0.104,-35.461,4.333,5.554
0.978,0.134,0.098,-36.865,4.517,6.287
0.987,0.143,0.088,-37.170,4.822,6.226
1.002,0.152,0.090,-36.987,5.127,5.676
1.021,0.163,0.098,-35.706,4.395,4.639
1.030,0.168,0.094,-33.508,2.869,3.418
1.032,0.174,0.079,-32.166,0.793,2.502
1.035,0.179,0.083,-31.006,-0.854,1.953
1.029,0.192,0.065,-29.785,-2.380,1.770
1.024,0.192,0.070,-28.381,-3.845,2.136
1.035,0.195,0.083,-26.855,-5.188,2.197
1.036,0.187,0.084,-26.062,-7.263,2.380
1.030,0.180,0.094,-25.269,-9.521,2.258
1.022,0.179,0.103,-24.658,-12.024,1.953
1.012,0.176,0.110,-24.109,-14.771,1.404
1.002,0.174,0.116,-23.560,-16.113,1.282
0.997,0.166,0.123,-21.790,-16.113,0.977
0.990,0.164,0.141,-20.447,-15.381,0.793
0.984,0.161,0.148,-19.775,-14.099,0.671
0.975,0.152,0.147,-19.409,-12.146,0.916
0.970,0.146,0.146,-20.142,-9.827,1.526
0.968,0.144,0.143,-21.851,-7.568,2.502
0.972,0.147,0.145,-24.536,-5.676,3.723
0.973,0.145,0.155,-28.137,-4.761,5.188

1.170,-1.725,4.000,202.576,50.781,5.554
0.722,-1.200,3.853,70.679,53.101,-16.235
1.243,-0.577,1.909,11.841,72.571,-17.761
1.655,-0.005,1.163,-24.414,47.974,4.333
1.409,0.240,0.724,-15.930,-5.371,13.428
1.156,0.135,0.269,20.752,-50.903,18.250
0.989,0.069,0.045,46.753,-76.233,16.907
0.864,0.034,-0.091,54.810,-83.374,7.996
0.833,0.070,-0.200,50.537,-76.477,-1.892
0.867,0.145,-0.279,41.321,-63.232,-7.751
0.913,0.215,-0.312,33.630,-49.927,-11.047
0.978,0.245,-0.303,30.823,-39.612,-12.329
1.021,0.256,-0.260,31.555,-32.959,-12.512
1.033,0.246,-0.202,33.081,-28.992,-12.268
1.004,0.224,-0.150,33.020,-26.001,-11.353
0.939,0.217,-0.091,29.785,-22.522,-9.705
0.858,0.208,-0.032,22.888,-16.907,-7.507
0.792,0.193,0.010,14.343,-9.888,-5.188
0.742,0.193,0.033,4.517,-2.197,-2.930
0.729,0.202,0.046,-4.944,5.737,-0.549
0.740,0.203,0.045,-11.597,13.000,0.854
0.758,0.207,0.056,-15.381,18.250,1.343
0.798,0.208,0.077,-17.456,22.644,1.709
0.854,0.207,0.089,-17.151,24.963,1.343
0.898,0.208,0.106,-15.747,24.902,1.099
0.931,0.199,0.135,-13.245,23.743,1.343
0.963,0.191,0.160,-11.169,22.278,1.099
0.994,0.183,0.141,-9.888,20.813,-0.122
1.028,0.191,0.113,-11.108,19.348,-0.854
1.045,0.213,0.089,-13.367,17.151,-0.488
1.039,0.238,0.069,-15.564,14.465,0.549
1.036,0.269,0.044,-15.808,12.085,1.404
1.031,0.280,0.017,-13.977,10.254,2.258
1.025,0.282,0.019,-11.047,8.972,2.502
1.024,0.282,0.040,-7.874,7.202,2.014
1.007,0.275,0.046,-5.188,4.517,1.221
0.996,0.268,0.050,-3.845,2.075,0.549
0.983,0.250,0.052,-3.174,0.549,0.183
0.976,0.243,0.063,-3.479,-0.427,-0.854
0.959,0.222,0.087,-4.700,0.610,-0.732
0.966,0.196,0.111,-5.554,1.648,-0.671
0.986,0.171,0.138,-7.629,2.563,-1.160
0.999,0.151,0.164,-11.658,2.319,-1.831
1.006,0.136,0.190,-16.296,1.160,-2.625
1.015,0.122,0.207,-22.034,-0.549,-2.991
1.019,0.127,0.217,-28.259,-2.502,-3.418
1.019,0.142,0.224,-33.752,-5.188,-4.211
1.031,0.148,0.222,-37.537,-8.545,-4.517
1.044,0.148,0.208,-39.551,-12.390,-4.028
1.048,0.167,0.192,-41.016,-17.212,-2.991
1.045,0.165,0.177,-42.236,-22.400,-1.709
1.042,0.166,0.164,-43.213,-27.344,-0.183
1.034,0.168,0.151,-45.105,-31.555,0.122
1.018,0.161,0.132,-47.852,-34.485,0.000
1.000,0.162,0.119,-51.514,-35.400,0.671
0.980,0.176,0.107,-55.664,-34.424,1.587
0.956,0.184,0.090,-59.753,-31.311,2.319
0.934,0.197,0.078,-62.988,-26.306,2.686
0.927,0.218,0.078,-64.758,-20.325,2.869
0.930,0.223,0.073,-64.758,-14.709,3.052
0.946,0.215,0.072,-63.110,-10.620,3.357
0.957,0.217,0.077,-61.096,-9.094,3.845
0.960,0.214,0.076,-59.998,-9.216,4.395
0.963,0.225,0.069,-59.387,-10.864,4.333
0.958,0.224,0.042,-58.533,-12.573,4.211
0.949,0.239,0.018,-58.044,-13.733,4.333
0.946,0.254,-0.002,-57.190,-13.733,3.723
0.959,0.246,-0.032,-55.054,-13.245,3.174
0.976,0.244,-0.053,-53.162,-12.634,2.747
0.989,0.261,-0.057,-51.392,-12.207,2.686
0.995,0.275,-0.055,-48.950,-12.207,3.723
0.993,0.272,-0.060,-45.105,-12.390,4.944
0.987,0.277,-0.064,-41.504,-12.451,5.798
0.982,0.287,-0.069,-38.513,-11.719,6.775
0.964,0.279,-0.083,-35.400,-10.315,7.324
0.950,0.275,-0.084,-32.776,-8.423,8.057
0.945,0.277,-0.075,-31.555,-5.859,8.972
0.955,0.279,-0.051,-30.518,-3.784,9.644
0.962,0.272,-0.020,-28.564,-3.540,9.644
0.971,0.255,0.010,-27.039,-5.188,9.521
0.970,0.246,0.042,-28.076,-8.362,9.277
0.956,0.239,0.071,-29.663,-12.451,8.301
0.944,0.243,0.099,-31.555,-16.235,6.592
0.940,0.232,0.122,-33.081,-19.165,4.517
0.937,0.208,0.149,-34.851,-21.545,4.089
0.930,0.192,0.176,-39.490,-22.705,5.432
0.919,0.181,0.198,-46.204,-22.034,6.409
0.918,0.172,0.219,-53.894,-19.958,7.141
0.931,0.167,0.242,-62.439,-16.907,7.202
0.951,0.156,0.262,-70.740,-14.221,7.019
0.959,0.159,0.270,-79.651,-13.245,7.080
0.968,0.151,0.276,-88.501,-13.062,8.057
0.981,0.135,0.280,-95.947,-13.062,9.033
0.990,0.146,0.274,-103.333,-13.550,10.559
0.999,0.188,0.290,-110.779,-14.709,12.634
1.007,0.203,0.309,-115.234,-17.273,13.916
0.999,0.213,0.273,-115.967,-21.484,14.282
0.967,0.232,0.250,-116.882,-23.804,14.648
0.945,0.249,0.244,-117.371,-22.583,14.282
0.945,0.237,0.222,-117.432,-19.531,13.794
0.958,0.234,0.190,-118.896,-16.602,13.733
0.970,0.251,0.176,-121.582,-14.526,13.672
0.983,0.269,0.181,-124.512,-13.550,12.634
1.006,0.283,0.182,-127.747,-14.771,11.536
1.021,0.274,0.175,-131.042,-18.311,11.108
1.019,0.259,0.129,-133.972,-23.621,11.292
1.000,0.232,0.085,-135.315,-28.931,11.658
0.981,0.219,0.049,-135.925,-33.203,11.658
0.961,0.214,0.041,-136.536,-36.011,11.902
0.940,0.230,0.046,-137.390,-38.025,12.512
0.943,0.277,0.037,-136.047,-39.063,13.611
0.947,0.289,-0.000,-130.615,-40.283,15.503
0.945,0.264,-0.033,-124.207,-41.321,17.578
0.948,0.219,-0.025,-119.385,-41.199,18.494
0.949,0.225,-0.057,-116.272,-41.504,18.860
0.947,0.264,-0.091,-113.342,-42.847,19.775
0.942,0.268,-0.100,-109.863,-44.434,19.104
0.929,0.264,-0.078,-106.812,-45.593,16.235
0.920,0.273,-0.064,-105.103,-46.875,12.207

1.308,-0.892,1.225,164.917,-53.467,-45.654
1.224,-0.933,1.516,101.563,-87.219,-30.212
0.803,-0.691,1.030,13.184,-112.000,-13.062
0.492,-0.444,0.690,-46.875,-89.600,-11.230
0.474,-0.296,0.521,-70.129,-52.612,-13.367
0.721,-0.182,0.297,-71.167,-25.879,-11.475
0.892,-0.080,0.185,-57.129,-2.502,-5.676
0.915,-0.024,0.125,-36.987,12.024,0.183
0.923,0.004,0.062,-17.151,17.151,3.662
0.946,0.031,0.012,-1.648,19.836,5.066
0.963,0.071,-0.021,8.362,22.766,3.967
0.989,0.105,-0.051,13.855,24.231,2.014
1.015,0.128,-0.073,15.503,23.254,-0.244
1.045,0.145,-0.089,15.320,19.226,-2.747
1.066,0.161,-0.098,13.794,13.184,-5.127
1.065,0.174,-0.097,12.329,5.249,-7.080
1.058,0.173,-0.082,11.780,-2.014,-7.690
1.032,0.158,-0.064,11.353,-7.812,-7.812
1.011,0.149,-0.048,9.338,-10.803,-7.690
0.991,0.143,-0.041,7.324,-11.658,-7.690
0.970,0.142,-0.048,5.798,-10.071,-6.653
0.946,0.152,-0.049,5.615,-6.958,-3.845
0.937,0.151,-0.042,6.653,-2.075,-0.671
0.943,0.139,-0.024,7.812,3.113,2.686
0.954,0.128,0.001,8.179,7.812,5.615
0.964,0.111,0.023,7.812,9.827,7.019
0.964,0.098,0.037,6.775,9.949,7.324
0.971,0.086,0.043,5.493,8.911,6.470
0.979,0.079,0.059,3.784,7.263,5.493
0.977,0.078,0.078,2.319,4.822,4.272
0.976,0.066,0.090,0.244,2.625,3.174
0.994,0.057,0.091,-1.587,0.549,1.526
1.002,0.067,0.090,-2.197,-0.610,0.977
1.003,0.073,0.090,-1.770,-1.526,1.160
1.003,0.070,0.081,-1.221,-1.831,1.404
1.008,0.072,0.071,-0.671,-1.465,1.709
1.005,0.076,0.055,0.000,-0.732,2.258
1.006,0.082,0.050,1.648,0.000,3.113
1.010,0.083,0.048,2.930,0.732,3.662
1.014,0.086,0.045,3.845,1.099,3.784
1.017,0.084,0.050,4.944,1.343,3.540
1.018,0.081,0.062,5.920,1.282,3.113
1.017,0.077,0.069,6.226,0.488,2.625
1.016,0.071,0.073,5.310,-0.793,1.831
1.012,0.072,0.078,3.784,-2.075,1.099
1.001,0.076,0.074,1.465,-3.723,0.122
0.996,0.074,0.060,-0.732,-5.737,-0.427
0.996,0.083,0.045,-2.502,-7.690,-0.793
0.995,0.091,0.028,-3.235,-8.911,-0.793
0.991,0.093,0.017,-3.296,-9.094,-0.549
0.986,0.099,0.011,-3.113,-8.240,0.244
0.978,0.097,0.009,-2.686,-6.592,2.014
0.972,0.097,0.007,-1.892,-5.066,3.357
0.969,0.094,0.013,-2.136,-2.991,4.456
0.971,0.087,0.013,-2.197,-1.465,5.005
0.975,0.083,0.017,-2.441,-0.671,4.944
0.973,0.084,0.017,-3.052,-0.366,4.517
0.968,0.087,0.015,-3.662,-0.977,4.272
0.961,0.090,0.016,-3.601,-1.892,3.723
0.962,0.091,0.005,-3.723,-2.686,2.747
0.968,0.092,0.002,-3.845,-3.540,1.953
0.974,0.098,0.007,-3.052,-3.906,1.282
0.980,0.097,0.012,-2.319,-4.089,0.671
0.983,0.095,0.021,-1.282,-4.028,0.305
0.984,0.096,0.027,-0.244,-3.967,-0.183
0.985,0.092,0.035,0.122,-3.357,-0.183
0.988,0.089,0.046,0.244,-2.380,-0.122
0.989,0.085,0.053,0.122,-1.282,0.488
0.992,0.084,0.052,-1.282,-0.305,1.160
0.989,0.086,0.051,-3.113,0.366,1.892
0.995,0.089,0.054,-4.456,0.732,2.075
1.004,0.090,0.061,-5.920,0.854,2.075
1.008,0.090,0.067,-7.263,0.061,1.892
1.011,0.088,0.073,-8.362,-1.160,1.892
1.021,0.082,0.087,-9.521,-3.052,1.709
1.034,0.072,0.102,-11.414,-5.249,1.221
1.039,0.066,0.104,-13.855,-8.423,0.366
1.038,0.063,0.107,-17.151,-11.353,-0.488
1.041,0.058,0.120,-20.447,-14.038,-1.282
1.041,0.060,0.120,-23.865,-16.174,-1.892
1.029,0.062,0.118,-27.283,-17.822,-1.770
1.012,0.064,0.117,-30.396,-18.005,-1.160
1.000,0.059,0.116,-33.691,-16.724,-0.061
0.990,0.048,0.118,-38.086,-14.526,1.160
0.980,0.041,0.125,-43.701,-12.146,1.953
0.975,0.035,0.142,-50.232,-10.254,1.953
0.975,0.026,0.156,-56.885,-9.216,1.465
0.977,0.024,0.147,-64.941,-9.399,0.671
0.969,0.032,0.136,-72.571,-10.376,0.549
0.972,0.039,0.136,-78.369,-11.841,1.099
0.980,0.043,0.133,-82.336,-13.672,2.136
0.990,0.047,0.126,-85.571,-15.808,3.418
0.994,0.056,0.123,-87.952,-18.005,4.211
0.995,0.066,0.127,-88.440,-20.386,4.822
1.000,0.066,0.123,-88.501,-23.132,4.761
0.993,0.070,0.097,-88.745,-25.757,4.456
0.967,0.079,0.071,-89.111,-26.489,4.395
0.958,0.093,0.058,-89.355,-24.963,5.554
0.959,0.103,0.052,-89.539,-22.156,7.202
0.958,0.103,0.043,-89.722,-18.677,9.094
0.962,0.114,0.036,-89.844,-14.832,11.108
0.969,0.127,0.036,-88.196,-11.169,12.329
0.985,0.127,0.041,-85.022,-8.362,12.817
1.007,0.122,0.058,-81.238,-7.141,12.329
1.032,0.121,0.069,-78.308,-7.935,11.597
1.045,0.125,0.081,-76.355,-10.803,10.803
1.053,0.126,0.096,-74.829,-15.198,9.888
1.056,0.129,0.104,-73.608,-21.240,8.911
1.042,0.126,0.105,-73.181,-27.893,7.874
1.027,0.117,0.109,-73.914,-33.752,6.531
1.012,0.109,0.119,-76.416,-38.635,5.249
0.999,0.112,0.118,-80.383,-42.786,3.967
0.973,0.125,0.110,-85.571,-45.105,2.991
0.952,0.138,0.110,-88.867,-45.471,2.930
0.940,0.149,0.101,-90.210,-43.274,3.235
0.935,0.154,0.085,-90.271,-39.307,4.089
0.933,0.166,0.087,-88.684,-33.936,4.822
0.942,0.175,0.088,-84.656,-28.137,5.676
0.951,0.168,0.091,-80.444,-23.071,6.714

1.219,-0.141,-1.343,167.175,23.926,-11.108
1.258,-0.171,-1.399,192.810,35.217,-10.681
1.328,-0.257,-1.450,219.971,44.067,-7.019
1.381,-0.368,-1.528,247.864,51.331,-3.784
1.438,-0.466,-1.583,276.428,61.157,-3.418
1.446,-0.557,-1.554,306.152,74.524,-3.174
1.420,-0.627,-1.447,335.999,90.393,-0.671
1.425,-0.644,-1.251,366.211,106.812,2.502
1.399,-0.678,-1.047,395.569,119.812,6.836
1.355,-0.731,-0.822,422.302,128.235,10.864
1.300,-0.798,-0.614,446.472,132.935,13.489
1.251,-0.873,-0.445,466.309,130.981,13.428
1.233,-0.959,-0.232,482.910,127.502,11.414
1.224,-1.064,-0.023,495.483,122.375,7.996
1.223,-1.166,0.109,499.695,112.061,3.418
1.224,-1.220,0.307,496.521,100.220,-2.441
1.195,-1.221,0.528,489.197,86.609,-7.996
1.154,-1.223,0.728,476.440,69.336,-12.329
1.100,-1.230,0.868,453.918,50.171,-13.367
1.013,-1.185,0.961,418.884,29.663,-13.000
0.928,-1.111,1.000,377.747,11.169,-12.695
0.842,-1.024,0.990,335.327,-0.977,-12.085
0.770,-0.932,0.984,295.898,-4.700,-10.559
0.732,-0.840,0.959,261.841,-1.099,-7.935
0.726,-0.749,0.936,232.178,7.263,-5.249
0.765,-0.693,0.921,207.092,17.029,-3.479
0.864,-0.669,0.966,184.265,22.156,-3.723
0.898,-0.603,0.933,160.278,17.761,-5.859
0.933,-0.566,1.103,135.376,12.329,-8.606
1.272,-0.788,1.581,111.023,-0.488,-13.306
1.407,-0.792,1.744,77.759,-42.297,-21.118
0.979,-0.673,1.333,31.494,-78.430,-18.555
0.756,-0.427,1.024,-3.296,-67.444,-12.268
0.745,-0.334,0.770,-17.822,-44.983,-3.052
0.794,-0.255,0.626,-26.917,-17.700,-2.991
0.863,-0.087,0.470,-36.072,6.409,-3.601
0.917,0.046,0.260,-39.124,14.954,-3.296
0.956,0.119,0.117,-35.156,17.029,-3.113
0.980,0.180,0.028,-28.381,17.029,-2.869
0.998,0.229,-0.039,-21.057,13.672,-3.113
1.010,0.239,-0.082,-14.282,7.996,-4.028
1.016,0.245,-0.110,-8.301,1.831,-7.019
1.032,0.247,-0.132,-3.296,-3.235,-10.376
1.034,0.255,-0.142,0.916,-7.202,-12.817
1.014,0.256,-0.154,4.578,-9.644,-13.489
1.002,0.245,-0.161,7.690,-10.193,-12.695
0.986,0.243,-0.148,10.559,-8.301,-10.376
0.954,0.241,-0.135,13.062,-4.700,-6.897
0.929,0.224,-0.112,14.954,0.854,-3.235
0.907,0.206,-0.081,16.602,7.751,0.183
0.904,0.188,-0.040,18.616,14.465,2.930
0.910,0.168,-0.004,20.325,19.226,4.272
0.924,0.147,0.032,22.156,21.179,4.150
0.942,0.124,0.070,22.705,20.752,3.235
0.946,0.105,0.099,22.461,17.212,1.526
0.961,0.093,0.124,20.508,12.085,-0.732
0.969,0.083,0.147,18.127,6.287,-2.808
0.975,0.076,0.171,15.076,1.282,-4.333
0.983,0.075,0.163,11.414,-3.357,-5.554
0.981,0.076,0.170,7.996,-5.981,-5.066
0.971,0.078,0.171,5.920,-7.263,-3.662
0.970,0.087,0.179,4.333,-6.714,-2.686
0.958,0.091,0.159,2.563,-5.188,-0.977
0.951,0.081,0.145,2.319,-1.709,0.549
0.975,0.102,0.139,2.319,2.502,0.854
0.992,0.111,0.125,2.747,5.981,2.197
1.006,0.106,0.129,3.052,8.118,3.540
1.029,0.107,0.121,3.296,6.836,3.723
1.047,0.111,0.119,2.991,4.272,2.686
1.060,0.105,0.107,2.197,0.977,1.160
1.058,0.110,0.095,0.916,-2.441,-0.549
1.048,0.116,0.083,-0.061,-5.127,-1.526
1.032,0.126,0.071,-1.099,-7.324,-1.404
1.018,0.128,0.061,-2.075,-8.667,-0.427
1.001,0.128,0.050,-2.441,-9.033,0.793
0.987,0.132,0.052,-1.892,-8.240,2.075
0.972,0.130,0.056,-1.038,-6.531,3.479
0.961,0.123,0.068,-0.183,-3.967,4.883
0.961,0.114,0.084,0.854,-1.526,5.249
0.971,0.103,0.096,2.075,-0.183,5.066
0.982,0.100,0.112,3.235,0.183,4.883
0.984,0.094,0.126,4.333,-0.549,4.028
0.981,0.089,0.117,4.272,-1.587,3.174
0.982,0.094,0.106,3.235,-2.869,2.380
0.980,0.107,0.101,2.686,-4.272,1.648
0.968,0.117,0.098,2.014,-5.493,1.221
0.958,0.120,0.090,1.282,-6.897,0.916
0.948,0.119,0.085,0.854,-7.263,0.610
0.943,0.120,0.089,0.610,-6.714,0.488
0.941,0.121,0.092,0.793,-5.737,0.183
0.943,0.114,0.079,1.221,-4.639,-0.244
0.947,0.111,0.080,1.892,-3.113,-0.061
0.959,0.121,0.090,3.113,-1.282,0.549
0.968,0.115,0.100,4.517,0.183,1.221
0.983,0.111,0.103,5.127,0.977,1.831
0.992,0.110,0.102,4.944,0.916,2.075
0.992,0.111,0.101,5.188,0.305,2.014
0.997,0.112,0.101,4.822,-0.488,1.831
1.000,0.109,0.102,4.150,-1.282,1.465
1.000,0.108,0.100,3.845,-2.319,1.404
1.001,0.106,0.106,3.540,-3.296,1.587
0.997,0.105,0.111,3.662,-3.967,1.648
0.993,0.102,0.117,4.089,-5.005,1.648
0.990,0.102,0.130,4.639,-5.920,1.343
0.975,0.101,0.134,5.493,-6.348,0.977
0.968,0.095,0.133,5.981,-6.104,0.854
0.963,0.097,0.137,6.042,-5.066,0.916
0.958,0.097,0.142,5.798,-4.028,1.221
0.958,0.094,0.144,4.822,-2.686,1.343
0.960,0.094,0.143,3.601,-1.831,1.404
0.965,0.093,0.141,2.380,-1.648,1.160
0.970,0.095,0.130,1.221,-2.014,1.099
0.978,0.101,0.117,0.000,-2.502,1.038
0.982,0.107,0.112,-1.038,-2.747,1.343
0.979,0.112,0.109,-1.526,-3.174,1.709
0.983,0.111,0.107,-1.587,-3.296,1.892
0.986,0.112,0.106,-1.282,-3.418,1.770
0.981,0.112,0.110,-0.671,-3.418,1.953
0.982,0.108,0.119,0.366,-3.418,2.258

1.451,0.273,-1.136,87.524,-21.851,13.550
1.506,0.270,-1.309,123.840,-29.114,18.921
1.590,0.182,-1.494,167.480,-29.846,24.597
1.678,0.088,-1.684,211.670,-26.794,28.870
1.701,-0.022,-1.844,256.653,-18.921,33.447
1.694,-0.196,-2.001,302.429,-8.728,40.222
1.689,-0.392,-2.118,345.154,5.005,46.997
1.663,-0.584,-2.196,382.385,24.963,52.368
1.650,-0.748,-2.195,413.818,46.631,57.190
1.640,-0.890,-2.042,442.810,69.153,61.951
1.584,-1.007,-1.841,472.717,89.172,67.261
1.507,-1.131,-1.626,501.892,106.201,73.730
1.441,-1.242,-1.381,531.311,122.620,78.613
1.354,-1.317,-1.087,562.866,137.817,83.130
1.286,-1.451,-0.827,597.778,147.095,86.426
1.263,-1.595,-0.560,631.592,152.161,85.693
1.204,-1.761,-0.307,660.400,152.832,81.360
1.096,-1.949,-0.114,674.805,146.118,75.806
1.039,-2.128,0.151,672.974,138.550,69.641
1.100,-2.240,0.588,661.560,133.667,64.392
1.074,-2.298,0.938,636.963,119.141,66.650
0.891,-2.296,1.209,590.210,97.168,68.359
0.655,-2.213,1.468,521.179,85.632,66.406
0.556,-2.033,1.624,436.157,85.083,64.453
0.590,-1.909,1.769,345.764,92.957,62.134
0.767,-1.945,2.080,262.146,99.854,57.129
1.627,-2.501,4.000,187.622,77.637,29.114
1.132,-2.305,3.380,48.096,-24.536,7.568
0.217,-0.973,1.439,-77.271,-66.284,37.964
0.300,-0.443,1.295,-81.543,4.639,38.391
0.857,-0.591,1.150,-65.674,59.875,17.578
1.135,-0.403,0.745,-66.101,75.989,9.216
1.130,-0.165,0.396,-63.660,76.233,10.071
1.179,0.066,0.162,-54.138,61.646,8.545
1.233,0.199,0.042,-41.382,40.771,3.662
1.270,0.273,-0.028,-25.696,16.296,-0.793
1.277,0.294,-0.067,-8.240,-10.315,-5.005
1.233,0.293,-0.100,8.850,-36.682,-11.230
1.167,0.282,-0.132,21.851,-58.411,-17.578
1.094,0.278,-0.172,29.175,-71.472,-22.522
1.006,0.303,-0.217,32.349,-76.843,-26.001
0.944,0.316,-0.247,33.386,-74.707,-26.367
0.903,0.306,-0.239,34.729,-64.819,-23.499
0.867,0.289,-0.205,36.621,-49.561,-18.005
0.847,0.267,-0.154,39.307,-32.715,-10.498
0.843,0.228,-0.090,42.358,-16.968,-2.869
0.830,0.198,-0.030,44.617,-3.784,3.235
0.815,0.168,0.028,45.166,7.019,7.202
0.823,0.139,0.094,45.532,15.869,8.423
0.852,0.108,0.158,46.021,20.996,7.263
0.869,0.093,0.211,45.776,21.667,4.822
0.870,0.057,0.244,44.067,19.653,2.075
0.881,0.019,0.287,40.894,16.479,-0.916
0.907,0.003,0.351,35.095,12.634,-2.991
0.925,-0.019,0.389,27.039,6.531,-3.601
0.936,-0.031,0.370,17.761,0.366,-4.272
0.924,-0.007,0.339,9.949,-1.892,-4.456
0.937,0.026,0.316,5.798,0.000,-3.906
0.975,0.053,0.296,4.761,3.479,-3.113
0.998,0.068,0.279,4.761,5.737,-1.587
1.004,0.077,0.260,5.859,4.578,-0.305
0.999,0.074,0.235,6.897,2.014,-0.122
0.994,0.083,0.212,7.507,0.122,-0.793
0.991,0.090,0.189,6.958,-0.610,-1.587
0.984,0.103,0.165,5.066,-1.038,-2.380
0.982,0.126,0.159,2.686,-0.793,-2.319
0.988,0.143,0.150,1.404,-1.099,-1.526
0.977,0.159,0.131,0.488,-1.770,-0.305
0.952,0.168,0.118,0.122,-2.075,0.977
0.940,0.170,0.122,0.854,-1.343,2.014
0.938,0.161,0.134,1.709,0.183,2.136
0.931,0.148,0.145,1.953,1.465,1.831
0.941,0.147,0.161,2.075,1.526,0.977
0.945,0.143,0.181,2.563,0.916,0.366
0.942,0.145,0.205,3.235,0.488,-0.427
0.939,0.133,0.209,3.540,0.488,-1.099
0.944,0.131,0.201,2.502,0.793,-1.648
0.965,0.136,0.206,1.831,1.648,-0.977
0.982,0.139,0.215,2.014,2.197,-0.305
0.985,0.132,0.221,1.831,2.197,0.366
0.969,0.130,0.214,1.709,1.343,0.610
0.946,0.128,0.200,0.732,1.038,0.549
0.939,0.118,0.180,-1.038,1.770,0.366
0.949,0.122,0.172,-3.296,3.235,1.160
0.949,0.117,0.176,-3.113,3.296,1.465
0.940,0.118,0.183,-3.174,3.113,0.977
0.917,0.114,0.185,-2.991,2.808,0.244
0.911,0.116,0.176,-3.784,3.113,-0.916
0.930,0.112,0.163,-5.432,3.967,-2.075
0.952,0.114,0.165,-6.653,4.761,-3.052
0.978,0.122,0.169,-6.897,4.150,-3.296
0.991,0.131,0.173,-6.470,2.441,-3.418
0.995,0.129,0.183,-5.493,0.977,-3.357
0.994,0.117,0.190,-4.883,-0.183,-3.235
0.992,0.111,0.193,-4.944,-1.038,-3.357
0.999,0.110,0.188,-5.066,-1.343,-3.784
1.012,0.108,0.188,-5.005,-0.916,-3.235
1.026,0.114,0.200,-4.211,-0.854,-1.770
1.026,0.116,0.206,-3.174,-1.526,-0.122
1.010,0.118,0.208,-2.991,-2.380,1.160
1.000,0.118,0.202,-2.869,-3.418,1.770
0.986,0.119,0.187,-3.052,-3.967,1.404
0.972,0.121,0.181,-3.296,-3.784,0.793
0.971,0.120,0.178,-2.991,-3.479,0.061
0.988,0.111,0.171,-2.869,-3.723,-0.549
0.990,0.113,0.166,-3.662,-4.150,-0.732
0.976,0.119,0.165,-3.723,-5.127,-0.732
0.964,0.120,0.164,-3.235,-5.615,-0.732
0.955,0.120,0.160,-2.686,-5.371,-0.854
0.946,0.119,0.165,-1.648,-4.578,-1.038
0.945,0.113,0.173,-0.244,-3.601,-1.404
0.945,0.110,0.177,0.427,-2.625,-1.526
0.954,0.104,0.180,0.488,-2.197,-1.770
0.959,0.101,0.180,0.549,-2.136,-1.892
0.952,0.099,0.180,0.732,-2.319,-1.831
0.946,0.098,0.183,0.427,-2.136,-2.014
0.954,0.103,0.187,-0.061,-1.587,-2.380
0.960,0.107,0.187,-0.977,-1.038,-2.808
0.961,0.110,0.182,-2.136,-1.221,-2.869

1.428,0.025,-1.304,109.863,40.405,-19.897
1.467,-0.067,-1.450,147.888,23.315,-16.052
1.510,-0.224,-1.644,187.256,4.700,-11.414
1.530,-0.405,-1.829,225.220,-9.521,-7.263
1.569,-0.580,-1.958,258.484,-17.578,-4.028
1.630,-0.760,-2.078,291.504,-20.020,-3.967
1.595,-0.895,-2.140,324.341,-14.954,-5.615
1.495,-0.952,-2.044,353.943,-2.197,-5.005
1.412,-0.978,-1.856,384.460,15.869,-0.549
1.359,-1.013,-1.625,417.908,33.569,7.812
1.356,-1.114,-1.451,449.158,48.340,15.259
1.351,-1.259,-1.391,476.318,60.303,18.311
1.281,-1.302,-1.234,497.192,73.853,18.188
1.220,-1.299,-1.029,517.944,85.999,18.616
1.238,-1.383,-0.875,541.931,94.543,20.630
1.300,-1.467,-0.679,564.941,101.440,21.484
1.331,-1.489,-0.441,585.266,103.760,21.851
1.342,-1.516,-0.175,604.431,96.680,25.452
1.360,-1.586,0.153,624.084,82.214,33.447
1.380,-1.723,0.470,643.127,57.068,42.114
1.427,-1.861,0.846,656.128,23.376,47.302
1.364,-1.958,1.155,658.997,-18.005,51.086
1.030,-2.055,1.341,643.555,-63.904,53.284
0.554,-2.129,1.514,599.487,-94.238,49.683
0.141,-2.139,1.677,525.330,-89.417,41.931
-0.093,-1.958,1.774,429.810,-51.819,32.166
-0.019,-1.685,1.774,329.651,0.916,23.376
0.278,-1.432,1.692,238.342,45.959,19.409
0.519,-1.247,1.573,164.612,69.214,20.508
0.677,-1.103,1.405,106.995,68.970,22.278
0.825,-0.969,1.224,60.120,55.298,20.569
0.955,-0.802,1.039,21.729,36.621,16.418
1.012,-0.663,0.857,-7.507,15.320,12.512
1.022,-0.520,0.699,-27.466,-1.587,7.507
1.000,-0.398,0.559,-37.659,-13.245,0.916
1.007,-0.282,0.469,-36.804,-20.264,-5.798
1.030,-0.190,0.386,-29.236,-24.353,-11.292
1.015,-0.130,0.309,-19.470,-26.062,-14.954
1.001,-0.074,0.247,-10.254,-23.926,-16.663
0.987,-0.009,0.178,-2.625,-18.188,-15.808
0.969,0.052,0.129,5.432,-10.620,-12.756
0.978,0.084,0.099,14.160,-3.113,-8.179
1.001,0.095,0.075,19.958,3.601,-5.066
1.034,0.102,0.055,22.461,8.606,-4.639
1.073,0.105,0.046,22.217,9.399,-5.249
1.079,0.111,0.040,20.447,7.080,-5.615
1.072,0.113,0.039,19.104,2.319,-6.104
1.053,0.112,0.028,17.822,-2.380,-6.287
1.018,0.110,0.009,17.151,-5.737,-5.859
0.987,0.114,0.006,17.944,-5.920,-4.272
0.958,0.120,0.011,20.203,-3.357,-2.380
0.924,0.111,0.020,22.888,2.258,0.732
0.904,0.099,0.038,25.635,9.644,3.723
0.904,0.081,0.057,28.015,17.273,6.104
0.909,0.060,0.083,29.541,23.682,7.874
0.916,0.032,0.123,30.029,27.649,9.033
0.935,0.009,0.169,29.602,28.625,9.277
0.965,-0.011,0.219,28.015,26.245,7.812
0.995,-0.026,0.268,26.184,19.775,5.371
1.001,-0.033,0.312,22.949,10.620,3.235
0.992,-0.030,0.340,19.104,0.732,0.854
0.970,-0.021,0.332,14.038,-6.775,-1.160
0.943,-0.008,0.310,8.301,-9.705,-2.136
0.938,0.011,0.277,3.052,-8.606,-2.258
0.927,0.030,0.244,-1.038,-4.761,-1.709
0.936,0.049,0.215,-3.906,0.244,-0.305
0.958,0.062,0.192,-5.676,5.066,1.709
0.962,0.076,0.163,-6.592,7.935,3.845
0.979,0.086,0.130,-7.263,9.888,5.554
1.002,0.094,0.107,-7.202,11.230,7.080
1.016,0.096,0.097,-6.409,10.986,7.690
1.029,0.097,0.098,-4.761,9.033,7.507
1.054,0.095,0.105,-2.747,5.676,6.165
1.054,0.098,0.102,-0.366,1.343,4.089
1.038,0.107,0.099,1.648,-2.808,2.747
1.007,0.119,0.091,3.357,-5.737,2.319
0.977,0.119,0.075,4.150,-6.592,2.686
0.958,0.114,0.071,4.883,-5.249,3.540
0.953,0.106,0.076,5.188,-2.991,4.089
0.946,0.096,0.073,5.493,-1.282,4.517
0.938,0.088,0.079,5.798,0.061,5.066
0.948,0.077,0.094,6.592,1.282,5.310
0.960,0.062,0.111,7.019,1.892,4.700
0.984,0.052,0.113,7.202,1.648,3.723
1.000,0.053,0.124,7.385,1.160,2.869
1.001,0.052,0.132,7.690,-0.366,2.441
0.999,0.054,0.139,7.263,-1.160,2.380
1.002,0.054,0.140,6.226,-1.404,2.014
1.001,0.056,0.133,4.822,-1.587,1.831
0.993,0.057,0.131,4.089,-1.526,1.648
0.987,0.058,0.132,3.174,-1.221,1.160
0.980,0.056,0.126,2.014,-1.282,0.183
0.970,0.054,0.111,1.099,-1.648,-0.671
0.965,0.060,0.105,1.038,-1.770,-0.854
0.958,0.063,0.106,2.075,-1.465,-0.183
0.951,0.060,0.112,3.052,-0.916,0.549
0.954,0.057,0.116,4.639,1.404,1.099
0.960,0.055,0.130,4.883,1.831,1.648
0.973,0.051,0.138,5.127,2.014,1.648
0.989,0.052,0.145,4.395,1.770,1.343
0.994,0.055,0.146,3.418,0.671,0.793
0.993,0.062,0.141,2.502,-0.549,0.122
1.000,0.066,0.138,1.526,-1.404,-0.488
1.004,0.065,0.129,0.244,-1.892,-0.854
1.006,0.069,0.119,-0.671,-2.258,-0.793
1.003,0.075,0.117,-0.793,-2.441,-0.305
0.997,0.075,0.115,-0.488,-2.625,0.244
0.990,0.075,0.112,-0.061,-2.808,0.610
0.985,0.075,0.112,0.000,-2.441,0.793
0.979,0.076,0.110,0.488,-2.197,0.854
0.979,0.072,0.110,1.099,-1.770,1.221
0.980,0.068,0.113,1.465,-1.770,1.526
0.982,0.062,0.115,1.892,-2.258,1.465
0.977,0.059,0.118,2.380,-2.991,1.343
0.976,0.061,0.121,2.563,-3.418,1.282
0.972,0.062,0.111,2.502,-3.723,1.099
0.967,0.064,0.100,2.136,-3.601,0.916
0.964,0.070,0.093,1.465,-3.418,0.488
0.959,0.079,0.085,0.977,-2.991,0.061

1.436,-0.074,-1.361,22.522,10.437,-30.579
1.478,-0.065,-1.496,54.199,1.221,-30.884
1.509,-0.103,-1.646,92.957,-6.409,-27.832
1.560,-0.193,-1.808,137.695,-11.475,-23.254
1.603,-0.288,-1.966,183.838,-11.780,-18.555
1.626,-0.388,-2.121,228.882,-9.277,-13.000
1.648,-0.503,-2.256,273.254,-4.333,-7.629
1.644,-0.597,-2.255,317.627,5.798,-2.380
1.591,-0.665,-2.155,359.314,20.691,5.615
1.480,-0.717,-1.999,396.545,34.912,15.991
1.362,-0.775,-1.789,429.626,48.584,26.184
1.285,-0.919,-1.631,460.937,62.317,31.372
1.228,-1.035,-1.437,485.352,78.369,29.785
1.175,-1.041,-1.152,506.653,96.680,24.414
1.117,-1.047,-0.878,531.128,109.863,19.409
1.094,-1.079,-0.609,559.753,114.746,16.724
1.168,-1.106,-0.263,592.529,113.831,14.465
1.257,-1.229,0.068,629.883,102.661,12.268
1.260,-1.470,0.317,662.781,75.134,12.878
1.240,-1.723,0.613,681.946,38.025,13.000
1.156,-1.864,0.908,682.617,-1.526,14.160
0.857,-1.876,1.097,664.734,-41.260,20.691
0.441,-1.912,1.151,622.253,-65.186,27.039
0.154,-1.915,1.277,552.063,-53.345,27.832
0.002,-1.891,1.413,465.393,-15.869,26.123
0.142,-2.206,1.957,370.483,32.043,22.339
0.890,-4.000,4.000,253.296,66.956,2.747
0.154,-2.209,3.921,-43.030,40.039,-6.165
-0.423,-0.250,1.411,-221.375,-4.944,4.150
0.138,-0.180,0.983,-182.861,57.068,14.648
0.978,-0.279,1.107,-124.390,122.620,17.090
1.393,-0.173,0.731,-74.890,100.708,18.677
1.309,-0.094,0.337,-41.199,59.326,11.047
1.215,-0.016,0.117,-25.757,33.813,-3.662
1.352,0.089,-0.107,-25.574,14.832,-21.851
1.474,0.245,-0.247,-24.719,-2.808,-36.560
1.474,0.378,-0.241,-13.489,-21.423,-45.471
1.428,0.421,-0.204,3.113,-44.922,-49.622
1.361,0.388,-0.182,18.372,-67.017,-50.293
1.253,0.350,-0.181,26.367,-80.688,-47.791
1.124,0.328,-0.193,25.757,-84.534,-43.091
1.004,0.313,-0.209,20.813,-77.332,-36.133
0.904,0.306,-0.225,14.221,-61.340,-28.442
0.842,0.303,-0.215,8.850,-40.161,-18.860
0.818,0.291,-0.177,6.409,-19.592,-7.263
0.809,0.270,-0.125,6.470,-3.601,3.662
0.793,0.239,-0.080,7.874,7.629,12.573
0.809,0.188,-0.037,9.338,15.503,17.517
0.829,0.155,0.006,10.681,20.264,18.250
0.848,0.126,0.044,12.207,21.851,15.930
0.876,0.103,0.067,13.672,20.630,10.986
0.892,0.091,0.092,14.587,17.395,5.432
0.896,0.087,0.129,15.991,13.428,0.793
0.894,0.073,0.163,17.334,9.888,-2.563
0.900,0.062,0.190,15.137,7.446,-4.272
0.888,0.065,0.206,10.498,6.348,-4.639
0.875,0.061,0.225,6.348,7.690,-3.967
0.874,0.055,0.239,2.686,11.658,-3.174
0.890,0.051,0.243,-1.648,16.357,-2.014
0.910,0.055,0.254,-4.761,21.240,-0.793
0.935,0.057,0.265,-6.836,24.658,-0.854
0.953,0.060,0.270,-7.874,26.184,-2.136
0.964,0.069,0.253,-8.301,25.085,-4.089
1.007,0.084,0.242,-8.423,22.827,-6.287
1.111,0.102,0.210,-8.179,11.597,-6.592
1.090,0.091,0.173,-9.094,3.357,-5.798
1.103,0.111,0.149,-10.559,-2.014,-6.836
1.094,0.136,0.113,-12.146,-6.836,-7.507
1.047,0.130,0.090,-13.184,-11.047,-7.263
1.024,0.165,0.070,-13.672,-13.367,-7.568
1.004,0.159,0.061,-13.062,-13.428,-6.348
1.002,0.137,0.059,-12.207,-11.902,-4.883
1.016,0.139,0.053,-11.292,-10.193,-4.639
0.992,0.149,0.067,-8.911,-8.240,-3.906
0.986,0.124,0.078,-5.310,-6.287,-1.953
0.984,0.096,0.104,-2.319,-5.249,-1.160
0.980,0.098,0.103,-1.282,-6.226,-2.563
0.997,0.104,0.101,-1.221,-7.874,-3.479
0.960,0.106,0.098,-0.793,-9.338,-3.662
0.959,0.092,0.102,-0.549,-10.193,-3.479
0.958,0.086,0.111,-0.793,-10.315,-4.395
0.958,0.085,0.117,-1.099,-10.864,-5.676
0.972,0.086,0.128,-1.099,-11.475,-6.897
0.964,0.087,0.141,-0.793,-11.902,-7.996
0.956,0.080,0.151,-0.244,-12.329,-8.423
0.945,0.070,0.166,0.244,-11.658,-8.362
0.936,0.063,0.172,0.671,-10.193,-8.484
0.929,0.054,0.177,0.000,-7.935,-8.240
0.931,0.053,0.181,-0.488,-5.066,-7.690
0.935,0.051,0.186,-1.892,-2.441,-6.775
0.938,0.051,0.188,-3.540,-1.343,-6.470
0.953,0.048,0.180,-5.859,-1.343,-6.836
0.969,0.059,0.176,-8.545,-1.953,-7.812
0.973,0.067,0.173,-10.986,-4.150,-8.667
0.984,0.063,0.168,-12.634,-7.385,-9.705
0.997,0.063,0.163,-14.404,-10.559,-10.437
1.000,0.073,0.166,-16.052,-14.465,-11.353
0.991,0.072,0.164,-15.930,-18.005,-11.963
0.976,0.079,0.166,-15.381,-20.264,-12.634
0.964,0.074,0.165,-14.160,-20.569,-12.756
0.967,0.073,0.168,-12.451,-18.982,-12.146
0.968,0.069,0.177,-11.353,-16.235,-10.864
0.987,0.064,0.179,-10.437,-13.916,-10.010
0.999,0.065,0.178,-10.376,-12.268,-9.033
0.995,0.066,0.175,-10.620,-11.658,-7.446
0.994,0.065,0.175,-11.230,-11.108,-6.165
1.016,0.058,0.160,-12.390,-10.925,-5.920
1.035,0.065,0.154,-13.977,-11.353,-6.104
1.032,0.077,0.151,-14.282,-13.733,-6.165
1.018,0.084,0.149,-13.611,-16.418,-5.676
1.001,0.088,0.150,-12.390,-19.348,-5.127
0.980,0.088,0.150,-11.292,-21.667,-4.944
0.957,0.086,0.149,-10.132,-22.095,-5.005
0.935,0.084,0.155,-8.850,-20.996,-5.249
0.918,0.083,0.163,-7.080,-18.188,-5.188
0.906,0.077,0.173,-5.249,-14.404,-4.822
0.911,0.071,0.182,-3.540,-9.766,-3.967
0.923,0.063,0.190,-2.625,-5.371,-3.052
0.927,0.061,0.200,-2.258,-1.465,-1.648

1.572,-0.062,-1.298,109.863,23.071,1.587
1.725,-0.113,-1.463,134.949,19.653,1.587
1.883,-0.171,-1.630,165.100,12.268,1.465
1.959,-0.243,-1.734,199.829,4.456,2.441
1.997,-0.333,-1.791,236.633,-0.366,7.629
2.036,-0.485,-1.893,273.315,-5.737,14.893
1.983,-0.561,-1.890,306.946,-5.188,23.682
1.878,-0.592,-1.813,338.440,3.235,36.377
1.885,-0.743,-1.814,370.422,13.916,50.293
1.792,-0.889,-1.748,400.696,29.968,62.256
1.568,-0.959,-1.535,426.025,54.138,73.792
1.417,-1.016,-1.342,448.181,80.566,84.961
1.303,-1.100,-1.222,467.773,106.384,92.651
1.189,-1.201,-0.995,482.483,135.315,97.046
1.182,-1.289,-0.684,492.676,161.804,101.563
1.288,-1.346,-0.480,502.258,162.842,103.821
1.292,-1.432,-0.241,515.503,144.165,96.924
1.247,-1.585,0.054,530.945,120.544,83.923
1.227,-1.719,0.243,536.438,87.158,68.054
1.057,-1.783,0.413,531.494,50.232,51.392
0.769,-1.824,0.524,515.869,21.423,40.039
0.521,-1.782,0.601,487.244,6.592,31.555
0.391,-1.699,0.690,451.172,6.836,24.658
0.403,-1.605,0.812,415.649,16.785,19.775
0.440,-1.534,0.952,386.230,27.710,13.245
0.514,-1.500,1.082,360.046,33.569,9.033
0.636,-1.543,1.310,332.458,33.203,8.118
0.964,-2.079,1.925,301.575,19.653,3.967
1.683,-2.403,3.960,247.314,-39.307,-20.264
0.731,-2.418,3.704,83.801,-173.950,-11.047
-0.232,-1.109,1.700,-90.393,-167.603,19.958
-0.611,-0.333,1.082,-105.896,-65.979,4.272
0.414,-0.305,0.937,-68.909,21.179,-1.465
1.172,-0.320,0.814,-42.419,64.392,-0.061
1.188,-0.243,0.564,-26.184,54.199,8.179
1.025,-0.065,0.215,-21.729,22.644,8.484
0.992,0.062,0.017,-20.752,2.869,2.686
1.070,0.169,-0.068,-18.738,-4.639,-4.883
1.182,0.249,-0.112,-13.733,-13.000,-11.353
1.248,0.298,-0.120,-3.601,-25.574,-17.883
1.262,0.271,-0.116,8.728,-39.673,-23.682
1.251,0.239,-0.087,17.944,-51.086,-27.771
1.214,0.230,-0.085,21.973,-56.702,-28.503
1.146,0.241,-0.112,20.081,-57.129,-24.048
1.034,0.244,-0.155,15.076,-50.903,-14.343
0.947,0.249,-0.182,9.460,-38.086,-1.892
0.890,0.249,-0.142,6.958,-2.563,22.095
0.908,0.173,-0.090,9.399,12.451,28.687
0.927,0.144,-0.033,12.878,22.400,30.945
0.930,0.112,0.019,17.944,26.245,30.029
0.954,0.085,0.073,23.865,24.963,26.184
0.980,0.068,0.119,29.297,19.592,20.264
0.962,0.065,0.152,33.508,11.047,13.428
0.932,0.068,0.166,36.316,1.404,7.385
0.908,0.068,0.169,38.086,-5.615,2.808
0.899,0.065,0.174,37.048,-9.521,0.427
0.890,0.063,0.178,33.569,-10.681,-0.488
0.871,0.058,0.178,28.870,-9.521,-0.977
0.850,0.051,0.176,23.743,-6.104,-1.038
0.836,0.042,0.172,17.517,-0.366,-0.061
0.840,0.044,0.185,11.902,6.592,2.075
0.864,0.047,0.200,7.324,12.329,3.845
0.891,0.053,0.218,4.089,14.709,5.066
0.901,0.064,0.238,3.052,13.245,4.883
0.869,0.021,0.229,2.380,9.888,3.418
0.976,0.107,0.245,1.099,7.568,-1.465
0.993,0.099,0.224,0.122,4.333,-2.014
0.903,0.052,0.152,-1.038,1.221,-1.099
0.941,0.097,0.155,-2.563,4.150,-2.625
0.968,0.092,0.126,-5.127,8.301,-2.991
0.977,0.116,0.104,-8.057,12.146,-1.221
0.956,0.097,0.100,-9.399,16.296,2.625
0.995,0.139,0.087,-10.315,18.677,5.371
1.028,0.119,0.101,-9.033,19.958,8.362
1.064,0.102,0.108,-7.446,17.944,8.179
1.088,0.128,0.100,-5.615,13.123,5.493
1.084,0.144,0.103,-3.418,8.423,4.272
1.079,0.118,0.109,-0.488,2.197,4.272
1.034,0.125,0.101,1.709,-2.808,2.625
1.030,0.129,0.111,3.235,-5.188,1.526
0.991,0.127,0.108,4.517,-4.761,1.282
0.970,0.114,0.104,4.883,-2.502,1.892
0.974,0.105,0.122,4.456,0.549,2.502
0.958,0.099,0.137,3.540,1.892,2.563
0.984,0.091,0.151,2.380,1.221,2.686
0.981,0.092,0.160,0.916,-0.732,2.686
0.960,0.087,0.165,0.427,-2.930,2.930
0.965,0.079,0.166,0.244,-4.211,3.174
0.964,0.077,0.170,-0.488,-4.395,2.930
0.963,0.078,0.171,-1.282,-4.761,2.075
0.963,0.082,0.166,-2.197,-4.517,1.221
0.969,0.084,0.163,-3.174,-4.150,1.038
0.969,0.086,0.160,-4.272,-3.906,0.854
0.968,0.089,0.157,-5.005,-4.028,0.610
0.967,0.094,0.155,-5.798,-4.028,0.122
0.956,0.095,0.157,-6.104,-3.723,-0.122
0.965,0.086,0.166,-6.409,-2.930,-0.183
0.984,0.078,0.178,-7.202,-2.136,-0.671
0.998,0.076,0.189,-8.301,-2.625,-1.526
1.002,0.072,0.193,-10.010,-4.333,-1.770
1.000,0.079,0.197,-11.780,-6.287,-1.404
0.990,0.080,0.187,-13.306,-7.690,-0.610
0.989,0.080,0.182,-15.015,-7.751,0.183
0.992,0.085,0.185,-16.541,-7.385,0.977
0.988,0.084,0.198,-17.883,-7.202,1.587
0.988,0.082,0.210,-19.714,-7.751,1.953
0.990,0.080,0.216,-22.461,-8.118,2.197
0.976,0.078,0.219,-25.452,-8.667,2.686
0.960,0.068,0.226,-28.564,-8.728,3.052
0.957,0.052,0.230,-32.898,-7.935,2.563
0.954,0.049,0.228,-37.354,-6.714,1.587
0.959,0.050,0.232,-41.809,-5.859,1.404
0.971,0.051,0.243,-45.410,-5.676,2.441
0.974,0.059,0.245,-48.218,-5.981,3.235
0.972,0.066,0.231,-50.903,-6.470,4.028
0.965,0.071,0.219,-53.040,-6.714,5.066
0.949,0.077,0.211,-53.589,-6.165,6.104
0.938,0.080,0.203,-54.199,-4.456,7.141
0.941,0.068,0.200,-55.725,-2.197,8.179

0.631,-0.308,-1.858,30.518,345.520,-104.065
0.819,-0.380,-1.849,66.589,362.732,-124.512
0.992,-0.539,-1.829,106.384,359.558,-146.851
1.064,-0.763,-1.855,141.357,341.614,-170.532
1.009,-0.953,-1.899,164.612,316.162,-190.796
1.024,-1.035,-1.916,178.040,287.842,-205.566
1.101,-0.982,-1.885,189.087,251.221,-212.830
1.086,-0.931,-1.804,204.468,206.421,-212.830
1.016,-0.946,-1.797,224.243,162.781,-209.900
0.919,-1.005,-1.773,242.615,129.578,-206.177
0.862,-1.003,-1.656,256.836,109.131,-202.209
0.800,-0.996,-1.554,272.766,99.121,-204.285
0.648,-1.054,-1.496,288.452,104.126,-210.815
0.584,-1.065,-1.356,302.307,129.883,-222.595
0.760,-1.040,-1.151,318.909,172.913,-241.333
1.063,-1.114,-0.887,337.341,216.370,-260.620
1.332,-1.172,-0.572,348.694,243.835,-277.161
1.554,-1.159,-0.301,352.661,250.122,-289.001
1.723,-1.160,-0.167,349.121,237.915,-293.152
1.787,-1.097,-0.079,339.417,217.163,-289.673
1.794,-0.974,0.001,328.003,193.359,-276.733
1.787,-0.857,0.074,314.697,164.124,-253.296
1.803,-0.739,0.116,298.828,128.967,-225.647
2.003,-0.412,0.536,281.189,89.844,-195.923
3.303,-0.658,1.439,280.396,21.606,-169.495
4.000,-0.780,1.338,290.833,-101.013,-187.927
3.319,-0.649,1.012,249.573,-217.407,-169.250
2.354,-0.696,0.629,209.595,-252.258,-123.901
1.833,-0.594,0.513,166.016,-222.351,-91.736
1.505,-0.419,0.426,121.033,-188.538,-48.279
1.125,-0.289,0.272,73.853,-154.602,-7.812
0.679,-0.218,0.108,31.494,-108.276,23.682
0.412,-0.116,-0.028,-4.089,-57.678,42.969
0.319,-0.007,-0.178,-30.396,-11.108,52.246
0.303,0.031,-0.316,-45.715,30.701,56.396
0.359,0.118,-0.477,-51.819,61.829,53.833
0.410,0.174,-0.628,-49.194,83.435,47.852
0.465,0.226,-0.738,-41.504,97.168,39.490
0.385,0.232,-0.793,-32.288,106.323,30.823
0.343,0.233,-0.871,-24.841,109.802,23.010
0.344,0.219,-0.878,-18.677,109.985,16.602
0.350,0.258,-0.865,-13.977,106.018,9.216
0.392,0.272,-0.864,-11.780,97.717,4.822
0.423,0.258,-0.892,-10.742,85.938,1.892
0.438,0.253,-0.885,-10.498,74.219,0.305
0.447,0.256,-0.867,-9.705,62.134,-0.916
0.424,0.249,-0.884,-7.324,49.866,-2.258
0.414,0.258,-0.875,-3.662,42.603,-3.967
0.406,0.267,-0.870,1.038,40.588,-7.263
0.401,0.243,-0.825,5.920,47.058,-11.597
0.469,0.231,-0.770,9.460,56.702,-15.503
0.549,0.203,-0.723,12.024,64.514,-17.883
0.667,0.203,-0.678,13.550,69.397,-18.982
0.769,0.188,-0.634,14.465,67.810,-17.944
0.853,0.179,-0.594,14.160,60.120,-16.968
0.925,0.165,-0.594,12.207,48.096,-15.625
0.950,0.161,-0.599,7.446,34.485,-12.695
0.940,0.170,-0.629,1.892,19.348,-9.277
0.915,0.172,-0.657,-3.967,4.456,-5.676
0.891,0.173,-0.677,-10.193,-8.667,-2.808
0.837,0.172,-0.694,-15.869,-21.118,-0.977
0.794,0.170,-0.716,-21.362,-32.715,0.122
0.774,0.191,-0.791,-25.940,-41.199,0.488
0.690,0.235,-0.841,-28.015,-40.100,2.808
0.578,0.236,-0.865,-24.841,-33.081,7.080
0.574,0.227,-0.868,-20.386,-23.865,10.498
0.547,0.189,-0.818,-15.808,-11.719,12.024
0.563,0.197,-0.818,-13.794,-6.470,11.536
0.576,0.197,-0.784,-12.451,-1.526,12.024
0.568,0.142,-0.799,-10.803,0.305,11.841
0.651,0.193,-0.795,-9.888,0.916,9.094
0.641,0.120,-0.764,-8.057,3.784,9.216
0.656,0.114,-0.712,-10.071,-1.465,5.493
0.792,0.156,-0.643,-13.428,-19.226,2.075
0.835,0.119,-0.643,-15.015,-32.898,2.808
0.850,0.101,-0.612,-18.250,-47.241,2.075
0.862,0.113,-0.615,-22.522,-62.195,2.502
0.882,0.110,-0.625,-27.283,-75.562,5.554
0.859,0.120,-0.629,-32.715,-83.862,11.414
0.818,0.109,-0.640,-38.940,-88.989,20.691
0.802,0.095,-0.682,-45.837,-92.712,29.541
0.772,0.107,-0.688,-51.880,-90.698,35.583
0.748,0.115,-0.665,-56.152,-83.069,39.917
0.761,0.125,-0.671,-58.044,-74.463,42.603
0.787,0.132,-0.668,-56.335,-65.186,42.786
0.814,0.131,-0.643,-52.063,-54.321,40.894
0.846,0.122,-0.613,-46.753,-45.105,38.696
0.890,0.104,-0.580,-42.358,-39.368,36.865
0.945,0.075,-0.544,-40.100,-37.476,36.987
1.002,0.052,-0.506,-41.504,-40.955,39.307
1.057,0.037,-0.487,-46.021,-51.697,43.579
1.091,0.038,-0.496,-52.124,-68.604,48.096
1.060,0.047,-0.520,-58.411,-86.609,52.673
1.016,0.033,-0.536,-64.026,-100.281,56.885
0.980,0.033,-0.537,-69.763,-109.314,60.059
0.950,0.036,-0.535,-75.562,-114.624,61.768
0.931,0.036,-0.526,-80.933,-115.723,63.049
0.914,0.046,-0.519,-84.961,-115.295,63.293
0.904,0.049,-0.507,-87.341,-113.586,63.049
0.894,0.052,-0.505,-89.233,-110.840,62.866
0.850,0.054,-0.513,-89.661,-106.201,61.584
0.807,0.047,-0.523,-89.417,-96.558,59.265
0.805,0.049,-0.516,-89.722,-82.153,57.861
0.825,0.066,-0.498,-89.478,-66.895,57.739
0.845,0.071,-0.475,-88.318,-53.894,58.899
0.887,0.058,-0.447,-87.891,-43.640,61.462
0.956,0.046,-0.407,-88.684,-38.208,64.331
1.033,0.050,-0.354,-89.539,-38.879,66.895
1.073,0.046,-0.318,-90.393,-47.180,69.641
1.086,0.020,-0.301,-92.346,-61.829,72.815
1.063,0.000,-0.315,-95.825,-80.444,75.134
0.993,-0.005,-0.350,-100.220,-97.046,76.233
0.914,-0.007,-0.372,-104.736,-107.178,76.233
0.867,0.002,-0.364,-108.826,-110.657,75.439
0.833,0.013,-0.342,-111.389,-110.107,73.669
0.823,0.011,-0.329,-113.098,-107.483,71.289
0.838,0.006,-0.324,-113.892,-103.394,67.871
0.840,0.020,-0.308,-114.441,-98.999,64.148
0.835,0.033,-0.282,-114.075,-96.619,60.608

1.518,0.032,-1.839,-44.250,-32.166,-12.024
1.788,-0.036,-2.357,-20.508,-14.160,-2.686
2.165,-0.125,-2.865,12.756,8.179,7.507
2.593,-0.121,-3.340,57.068,22.522,20.935
2.881,-0.078,-3.679,116.455,23.560,39.185
2.987,-0.094,-3.965,195.068,11.230,61.584
3.044,-0.186,-4.000,283.813,-4.395,84.900
2.862,-0.364,-4.000,377.197,-9.949,100.403
2.414,-0.696,-4.000,466.431,-3.418,108.887
1.936,-1.073,-3.999,539.551,13.611,122.498
1.550,-1.712,-3.723,591.064,34.790,141.907
1.451,-2.172,-3.156,616.760,61.584,152.893
1.391,-2.432,-2.268,620.117,93.079,153.442
1.338,-2.646,-1.612,620.117,104.736,156.738
1.293,-2.903,-1.000,617.554,101.807,156.616
1.171,-2.954,-0.351,615.479,91.187,145.813
1.071,-3.074,0.288,624.939,72.266,133.301
0.851,-3.267,0.772,636.841,44.434,122.742
0.557,-3.296,1.116,631.348,14.893,111.389
0.128,-3.295,1.357,603.821,-2.747,105.286
-0.116,-3.123,1.517,556.396,-4.517,98.877
-0.239,-2.920,1.638,499.268,16.907,85.083
-0.151,-2.581,1.853,440.430,49.927,70.984
0.062,-2.345,1.977,381.836,80.566,64.453
-0.746,-2.951,3.288,312.683,108.582,52.490
-0.543,-3.233,3.985,186.340,195.923,30.457
1.325,-2.366,3.125,58.350,275.391,35.706
1.953,-1.416,2.184,0.610,253.906,50.659
2.440,-0.816,1.570,8.301,149.963,45.288
2.266,-0.722,1.084,39.490,34.851,22.583
1.634,-0.605,0.479,56.580,-57.861,-1.221
1.392,-0.277,0.187,47.119,-97.961,-19.775
1.296,-0.103,-0.161,39.490,-98.633,-31.921
1.044,0.157,-0.322,30.762,-83.740,-44.678
1.103,0.304,-0.349,25.818,-55.603,-46.082
1.151,0.537,-0.206,35.767,-31.494,-31.433
1.206,0.300,-0.304,46.936,-18.372,-9.766
1.149,0.202,-0.239,51.453,-15.137,0.427
0.951,0.401,-0.191,51.147,-18.982,9.460
0.796,0.382,-0.229,44.617,-18.921,13.184
0.718,0.452,-0.200,41.565,-12.939,9.216
0.745,0.474,-0.141,41.992,-7.446,2.502
0.771,0.426,-0.083,43.823,-8.057,-3.601
0.773,0.386,-0.023,44.006,-13.489,-11.047
0.778,0.367,0.031,42.847,-20.325,-16.968
0.755,0.292,0.040,42.358,-25.085,-18.188
0.723,0.248,0.083,42.114,-23.987,-19.348
0.760,0.173,0.146,45.044,-17.761,-19.958
0.808,0.060,0.213,47.546,-11.169,-18.555
0.799,0.026,0.305,44.434,-5.859,-17.761
0.832,0.005,0.368,38.086,0.305,-16.602
0.856,-0.026,0.369,30.884,5.127,-14.771
0.916,0.011,0.374,21.423,7.629,-14.221
0.984,0.018,0.343,14.099,5.859,-12.573
0.985,0.035,0.311,7.935,-0.916,-11.230
0.968,0.040,0.299,2.625,-9.338,-10.742
0.945,0.020,0.275,-1.770,-17.700,-11.719
0.907,0.014,0.247,-7.568,-23.865,-16.541
0.891,0.038,0.240,-13.855,-25.635,-21.423
0.875,0.033,0.203,-17.334,-24.414,-21.851
0.881,0.038,0.212,-19.897,-20.203,-21.057
0.954,0.002,0.222,-21.484,-14.282,-19.287
1.003,-0.011,0.256,-24.231,-9.460,-19.348
1.052,-0.022,0.282,-28.992,-7.690,-19.043
1.057,-0.045,0.277,-35.522,-7.996,-17.090
1.081,-0.037,0.303,-44.006,-7.263,-14.404
1.076,-0.048,0.316,-52.490,-6.714,-11.536
1.102,-0.034,0.325,-59.814,-7.874,-9.155
1.023,0.007,0.305,-64.758,-10.620,-7.507
1.031,-0.012,0.306,-66.040,-12.817,-5.005
0.973,0.002,0.286,-64.880,-14.893,-4.639
0.943,0.021,0.276,-64.636,-16.724,-3.601
0.956,0.055,0.284,-64.880,-17.456,-2.441
0.951,0.024,0.264,-64.148,-17.944,-1.892
0.940,0.040,0.269,-67.505,-17.151,-1.587
0.957,0.034,0.241,-73.486,-15.137,-0.671
0.963,0.068,0.222,-80.444,-11.780,-0.183
0.992,0.092,0.206,-86.792,-8.240,0.488
1.020,0.096,0.180,-90.637,-6.042,1.587
1.044,0.110,0.162,-94.177,-6.042,1.709
1.061,0.121,0.142,-96.497,-7.507,0.916
1.071,0.108,0.113,-98.022,-11.047,0.610
1.077,0.128,0.115,-98.755,-15.869,-1.404
1.065,0.142,0.100,-96.863,-21.790,-3.967
1.032,0.167,0.086,-94.727,-26.978,-5.798
0.986,0.178,0.072,-91.675,-28.748,-6.348
0.951,0.175,0.067,-88.196,-25.208,-5.310
0.967,0.164,0.084,-87.891,-17.029,-2.686
0.994,0.135,0.104,-89.844,-8.484,1.648
1.034,0.117,0.142,-94.543,-2.686,6.653
1.079,0.113,0.179,-101.318,-0.854,11.108
1.076,0.126,0.179,-108.276,-3.601,14.343
1.047,0.163,0.164,-115.112,-8.362,15.808
1.023,0.169,0.118,-117.493,-11.841,13.977
1.017,0.160,0.081,-116.699,-13.489,10.010
1.029,0.161,0.062,-116.943,-13.550,6.470
1.036,0.182,0.049,-118.652,-13.733,4.883
1.019,0.187,0.022,-119.385,-13.794,6.409
0.981,0.188,-0.007,-120.361,-12.573,10.132
0.945,0.199,-0.022,-122.070,-8.118,14.709
0.896,0.229,-0.034,-123.962,-0.977,19.470
0.850,0.279,-0.049,-125.427,8.362,24.292
0.852,0.268,-0.070,-123.901,19.043,28.259
0.850,0.267,-0.072,-121.460,29.358,29.968
0.874,0.296,-0.050,-121.521,36.682,30.457
0.947,0.298,-0.029,-120.300,38.635,29.419
0.999,0.292,-0.001,-117.004,33.813,26.733
1.015,0.271,0.014,-114.502,21.545,24.292
1.013,0.248,0.022,-115.417,5.798,22.766
0.989,0.224,0.034,-119.385,-8.423,20.996
0.957,0.186,0.039,-128.113,-20.020,19.592
0.934,0.185,0.035,-141.907,-28.748,19.226
0.888,0.188,0.037,-159.790,-33.997,18.677
0.844,0.174,0.010,-178.223,-35.889,18.127
0.774,0.183,-0.063,-195.862,-34.241,15.930
0.710,0.257,-0.139,-209.290,-27.466,11.841
0.687,0.333,-0.170,-214.966,-14.587,8.240
0.704,0.332,-0.207,-211.121,0.122,7.080
0.731,0.332,-0.260,-204.468,15.930,9.155

1.788,0.004,-2.442,27.344,-21.118,-19.592
2.192,-0.018,-3.457,78.674,-8.728,-13.245
2.678,0.000,-4.000,170.349,20.081,-7.324
3.135,-0.110,-4.000,303.284,54.993,0.671
3.479,-0.536,-4.000,452.881,76.172,11.841
3.511,-0.847,-4.000,560.913,66.406,31.799
3.020,-1.035,-4.000,634.644,40.161,60.913
2.164,-1.492,-4.000,686.340,19.043,88.989
1.518,-1.901,-3.720,715.759,11.536,106.140
1.222,-2.142,-2.911,726.013,23.437,116.821
0.916,-2.447,-2.154,729.126,41.687,126.343
0.759,-2.768,-1.547,728.088,54.993,137.817
0.696,-3.056,-0.998,724.609,66.223,147.644
0.538,-3.368,-0.543,718.323,73.730,156.677
0.380,-3.549,-0.076,698.242,79.590,167.603
0.417,-3.550,0.523,669.556,87.341,169.067
0.491,-3.424,1.132,643.982,92.590,149.170
0.524,-3.323,1.564,612.915,89.233,117.126
0.467,-3.184,1.795,556.396,77.820,85.938
0.338,-2.887,2.017,470.459,67.932,57.800
-0.427,-3.256,2.910,365.540,75.500,33.875
-0.900,-3.783,4.000,193.298,173.218,-2.319
1.011,-2.668,3.925,-1.160,274.414,-24.841
1.927,-1.262,2.558,-84.778,251.404,7.935
2.107,-0.586,1.583,-52.795,162.781,15.564
2.022,-0.293,1.158,6.836,66.467,5.859
1.774,-0.345,0.660,62.683,-20.264,2.014
1.397,-0.335,0.247,84.412,-81.299,-4.211
1.160,-0.153,-0.011,71.777,-106.079,-14.465
1.044,0.070,-0.187,47.852,-104.980,-24.963
1.020,0.283,-0.265,29.602,-93.628,-33.020
1.027,0.418,-0.305,19.104,-80.017,-38.269
1.002,0.509,-0.377,14.038,-66.040,-38.513
0.984,0.535,-0.422,11.719,-50.598,-33.325
0.973,0.525,-0.433,12.268,-35.034,-25.879
0.894,0.476,-0.401,15.808,-21.912,-20.447
0.929,0.495,-0.315,20.874,-12.634,-17.517
0.843,0.406,-0.284,28.320,-7.874,-15.564
0.847,0.399,-0.121,33.936,-5.798,-15.869
0.814,0.331,-0.052,39.307,-5.981,-17.090
0.763,0.320,0.090,38.879,-3.479,-20.508
0.756,0.253,0.198,33.875,1.282,-19.775
0.788,0.181,0.279,25.879,8.118,-16.357
0.866,0.127,0.321,14.221,14.404,-11.658
0.886,0.095,0.329,1.526,16.357,-8.118
0.890,0.099,0.312,-9.216,15.198,-5.432
0.903,0.129,0.288,-16.541,13.306,-3.662
0.886,0.155,0.210,-18.799,10.132,-1.709
0.876,0.184,0.137,-15.686,9.033,0.183
0.878,0.185,0.086,-8.362,11.963,-0.061
0.911,0.197,0.070,-0.549,16.296,-1.465
0.947,0.206,0.079,5.615,18.921,-3.235
0.973,0.227,0.112,8.606,19.226,-4.089
0.995,0.223,0.133,10.132,16.541,-3.601
1.009,0.192,0.132,9.338,12.817,-3.296
1.030,0.207,0.173,5.676,9.399,-3.967
1.043,0.177,0.164,2.014,4.578,-4.150
1.002,0.209,0.170,-1.282,0.183,-4.150
1.017,0.208,0.146,-6.287,-2.075,-2.991
1.055,0.216,0.139,-8.972,-5.066,-1.465
0.968,0.227,0.104,-10.986,-8.972,-0.061
0.948,0.218,0.074,-12.146,-9.399,-0.610
0.932,0.249,0.062,-10.986,-7.202,-2.930
0.933,0.277,0.072,-8.423,-4.700,-2.869
0.871,0.228,0.065,-7.019,-1.404,-2.441
0.789,0.197,-0.007,-6.348,2.808,-3.052
1.049,0.248,0.032,-9.277,13.184,-4.639
1.026,0.269,0.122,-10.620,20.264,-5.493
1.024,0.186,0.065,-8.301,9.705,-0.732
0.733,0.169,0.111,-9.827,2.258,-1.465
1.115,0.257,0.209,-12.878,5.188,-8.545
0.707,-0.116,-0.141,-6.104,-0.061,-5.432
1.280,0.377,0.392,-14.893,4.517,-12.268
1.050,0.192,0.043,-1.831,-5.676,-3.723
1.132,0.158,0.110,-1.709,-17.761,0.488
0.968,0.225,0.126,-3.845,-20.447,-2.502
1.045,0.219,0.171,-4.761,-19.470,-5.127
1.048,0.167,0.157,-5.066,-19.287,-6.531
1.035,0.157,0.159,-7.141,-23.010,-6.287
0.951,0.152,0.129,-11.841,-26.978,-6.470
0.919,0.160,0.129,-14.954,-26.794,-7.507
0.902,0.199,0.148,-17.456,-22.705,-9.216
0.943,0.139,0.118,-16.357,-20.325,-5.676
0.948,0.143,0.149,-16.968,-20.203,-3.479
0.934,0.110,0.149,-18.066,-21.545,-2.991
0.936,0.117,0.187,-19.775,-21.851,-3.967
0.964,0.133,0.210,-21.973,-22.827,-4.761
0.936,0.126,0.204,-24.353,-26.062,-4.578
0.923,0.130,0.211,-26.733,-27.527,-5.188
0.948,0.150,0.214,-27.771,-27.283,-7.080
0.957,0.156,0.227,-29.358,-26.672,-9.094
0.984,0.140,0.224,-30.945,-27.893,-9.949
0.995,0.138,0.226,-34.302,-30.212,-10.742
0.992,0.135,0.226,-38.879,-32.654,-11.902
0.972,0.141,0.218,-43.762,-34.546,-12.390
0.946,0.153,0.210,-48.889,-34.424,-12.207
0.942,0.155,0.204,-53.284,-31.799,-10.925
0.949,0.154,0.200,-56.091,-28.137,-9.338
0.958,0.164,0.206,-58.472,-23.743,-7.690
0.974,0.166,0.221,-60.242,-21.057,-5.676
0.975,0.159,0.232,-60.730,-20.203,-4.150
0.972,0.147,0.247,-60.913,-20.508,-3.296
0.993,0.147,0.273,-61.401,-21.667,-2.930
1.015,0.132,0.290,-61.951,-24.170,-1.648
1.021,0.099,0.301,-63.416,-28.198,-0.244
1.005,0.086,0.314,-66.895,-32.654,0.183
0.993,0.074,0.315,-72.083,-36.682,-0.488
0.983,0.072,0.319,-79.163,-38.879,-2.136
0.976,0.091,0.323,-86.548,-39.368,-3.174
0.970,0.142,0.320,-94.543,-39.490,-3.174
0.956,0.144,0.330,-102.783,-38.452,-3.174
0.962,0.116,0.320,-110.352,-35.217,-3.113
0.960,0.125,0.311,-117.432,-30.334,-2.991
0.956,0.130,0.316,-123.474,-24.841,-2.930
0.963,0.149,0.316,-126.770,-19.531,-2.502
0.995,0.143,0.332,-126.709,-15.137,-1.526
1.016,0.140,0.359,-124.207,-13.245,-0.549
1.039,0.144,0.380,-120.911,-14.893,0.488
1.033,0.136,0.397,-117.859,-18.982,1.770

1.277,-0.503,-1.948,70.313,30.029,-49.622
1.560,-0.642,-2.518,77.454,57.129,-60.303
2.007,-0.740,-3.232,93.262,76.599,-75.012
2.571,-0.843,-3.885,127.808,88.074,-87.219
3.254,-0.784,-4.000,188.049,84.900,-90.637
3.825,-0.754,-4.000,275.757,54.382,-73.547
3.767,-0.684,-4.000,380.066,1.831,-38.757
3.054,-0.822,-4.000,485.229,-52.185,0.671
2.153,-1.432,-4.000,573.792,-80.017,34.302
1.380,-1.946,-4.000,621.399,-67.749,55.420
0.957,-2.166,-3.646,635.315,-25.757,64.575
0.736,-2.430,-2.884,639.832,25.024,74.768
0.660,-2.715,-2.216,639.954,70.557,85.815
0.653,-2.893,-1.526,634.521,109.802,92.346
0.665,-3.122,-0.944,632.568,135.620,95.215
0.770,-3.448,-0.379,632.935,144.287,90.454
0.915,-3.618,0.256,626.343,134.399,76.904
0.839,-3.703,0.735,614.136,106.323,61.462
0.719,-3.594,1.154,592.468,70.984,45.471
0.511,-3.431,1.447,557.922,44.739,33.386
0.489,-3.184,1.658,512.817,28.748,24.353
0.488,-2.821,1.839,458.862,21.790,14.587
0.507,-2.392,1.892,398.804,19.653,3.418
0.441,-2.061,1.900,338.257,25.574,-1.892
0.414,-1.702,1.912,279.236,40.894,-3.906
0.561,-1.418,1.900,227.844,67.261,-3.784
0.715,-1.930,3.583,175.842,97.107,-2.686
1.156,-2.035,4.000,74.585,137.146,-13.672
1.770,-1.474,3.572,-27.710,140.442,-41.748
2.159,-0.308,2.093,-78.247,99.854,-13.611
2.052,0.111,1.230,-71.228,21.179,5.859
1.663,0.035,0.601,-32.043,-47.119,6.958
1.461,0.041,0.135,-5.737,-97.107,9.949
1.247,0.155,-0.172,4.211,-129.456,6.409
0.987,0.309,-0.425,6.714,-144.653,-7.141
0.900,0.427,-0.546,10.254,-139.954,-21.362
0.709,0.447,-0.681,16.907,-124.146,-30.518
0.771,0.384,-0.754,20.874,-94.849,-33.203
0.854,0.419,-0.658,23.437,-59.143,-36.133
0.995,0.345,-0.581,28.076,-31.128,-31.250
1.039,0.278,-0.494,29.480,-14.832,-22.888
0.971,0.279,-0.399,28.381,-8.179,-12.512
0.857,0.299,-0.323,28.076,-3.174,-4.456
0.772,0.300,-0.263,30.884,3.174,0.122
0.727,0.258,-0.177,34.790,11.780,1.831
0.737,0.256,-0.008,36.743,19.714,-1.221
0.748,0.171,0.122,36.133,22.766,-3.967
0.766,0.054,0.239,30.334,22.766,-7.446
0.841,0.057,0.327,17.944,23.804,-12.512
0.898,0.035,0.386,6.226,23.926,-13.733
0.957,0.056,0.402,-3.174,21.912,-13.367
0.989,0.094,0.344,-9.827,16.541,-11.047
1.017,0.155,0.269,-12.939,11.414,-5.676
1.015,0.177,0.180,-11.536,7.629,-0.610
1.001,0.208,0.109,-8.179,6.348,1.465
1.016,0.217,0.055,-4.822,7.629,1.282
1.028,0.243,0.028,-2.441,9.277,0.366
1.027,0.230,-0.001,-0.671,9.766,0.305
1.036,0.221,-0.031,-0.061,8.423,0.854
1.035,0.200,-0.054,-0.916,5.432,0.977
1.000,0.215,-0.045,-2.930,0.427,-0.061
0.958,0.219,-0.046,-3.113,-5.188,-2.075
0.905,0.193,-0.055,-1.953,-9.705,-4.761
0.897,0.169,-0.049,-1.526,-11.780,-8.606
0.905,0.158,-0.016,-2.502,-11.963,-11.719
0.915,0.144,0.013,-4.333,-12.024,-13.794
0.937,0.136,0.030,-7.385,-11.536,-15.015
0.966,0.151,0.049,-11.169,-10.254,-15.198
1.002,0.160,0.045,-13.916,-8.789,-13.306
1.003,0.173,0.027,-15.320,-6.958,-10.925
1.005,0.191,0.003,-15.991,-4.517,-8.179
0.978,0.191,-0.023,-15.076,-0.549,-5.310
0.961,0.182,-0.025,-14.465,5.249,-3.662
0.930,0.205,-0.019,-13.733,10.925,-3.235
0.810,0.178,-0.042,-13.611,16.113,-2.930
0.887,0.222,-0.018,-14.282,22.766,-4.333
1.113,0.287,0.058,-13.489,28.503,-6.958
1.033,0.157,0.021,-11.475,20.264,-5.859
0.997,0.107,0.008,-14.771,7.935,-6.592
1.026,0.115,0.006,-17.517,1.526,-11.902
1.176,0.227,0.113,-20.264,-0.183,-19.104
1.177,0.177,0.042,-19.958,-10.803,-18.066
1.108,0.188,0.025,-19.226,-29.114,-13.672
0.945,0.167,-0.084,-18.616,-39.795,-7.935
0.781,0.234,-0.101,-18.921,-32.593,-8.789
1.044,0.385,-0.003,-15.991,-15.869,-9.277
0.914,0.157,-0.088,-12.146,-8.484,-5.249
1.042,0.174,-0.046,-12.512,-7.141,-1.526
0.907,0.120,-0.051,-12.817,-5.310,-1.709
0.959,0.203,-0.004,-15.015,-2.441,-5.615
0.901,0.137,-0.003,-15.259,-0.610,-3.906
0.976,0.154,0.014,-16.113,-0.488,-3.479
0.944,0.132,0.042,-17.212,-0.183,-3.784
0.965,0.082,0.044,-18.982,-3.662,-4.272
1.051,0.103,0.071,-22.461,-7.935,-7.751
0.953,0.114,0.061,-25.818,-14.832,-9.216
0.945,0.108,0.009,-28.259,-22.156,-6.653
0.879,0.104,-0.024,-29.785,-23.132,-5.615
0.872,0.122,-0.021,-30.334,-18.433,-7.141
0.871,0.126,-0.012,-28.870,-12.573,-7.812
0.882,0.127,0.004,-26.306,-7.996,-7.812
0.922,0.089,0.058,-20.569,-3.052,-9.033
0.933,0.076,0.089,-19.043,-3.174,-10.376
0.935,0.072,0.117,-19.592,-4.333,-11.475
0.941,0.059,0.135,-21.118,-4.944,-11.902
0.960,0.044,0.156,-24.231,-4.150,-11.902
0.998,0.039,0.181,-28.931,-2.930,-11.963
1.037,0.035,0.201,-34.241,-2.930,-12.390
1.059,0.050,0.223,-39.978,-5.188,-13.123
1.066,0.050,0.223,-45.044,-8.972,-13.306
1.056,0.048,0.216,-49.622,-12.146,-13.855
1.045,0.059,0.201,-54.810,-13.306,-14.404
1.028,0.078,0.188,-59.753,-11.536,-14.160
1.035,0.085,0.173,-62.988,-7.385,-12.634
1.045,0.101,0.172,-65.063,-1.892,-10.559
1.073,0.097,0.169,-66.223,2.380,-6.958
1.096,0.085,0.173,-66.895,4.639,-3.601
1.113,0.078,0.183,-67.871,4.639,-1.099
1.106,0.070,0.183,-69.824,2.869,1.770

1.179,-0.399,-1.782,82.764,3.967,-4.944
1.299,-0.468,-2.396,102.966,2.747,-8.606
1.510,-0.588,-3.138,145.020,-0.183,-15.747
1.702,-0.675,-3.730,212.036,1.526,-24.597
1.884,-0.642,-3.963,295.532,3.174,-31.189
1.974,-0.707,-4.000,395.386,-2.441,-29.358
1.816,-1.064,-4.000,508.057,-12.634,-15.381
1.415,-1.703,-4.000,663.696,-11.414,1.343
0.553,-2.542,-3.418,689.087,5.859,-5.005
0.531,-2.821,-2.868,698.914,31.555,-16.907
0.557,-3.036,-2.239,696.472,58.472,-25.818
0.790,-3.085,-1.471,686.462,77.087,-23.254
1.116,-3.075,-0.689,684.143,78.003,-12.573
1.323,-3.190,-0.032,692.688,59.875,-2.319
1.431,-3.329,0.505,702.515,24.170,8.789
1.236,-3.364,0.969,705.994,-17.029,19.104
0.895,-3.378,1.321,697.327,-51.270,25.757
0.620,-3.342,1.497,663.208,-70.374,29.480
0.313,-3.072,1.724,599.915,-63.416,23.437
0.089,-2.743,1.827,519.348,-33.752,13.977
0.249,-2.316,1.880,433.533,2.747,7.812
0.461,-2.089,2.122,349.792,34.546,6.104
0.908,-2.508,3.175,257.263,38.086,1.099
1.013,-2.442,3.550,127.991,7.263,2.747
0.484,-1.898,2.943,28.870,-28.381,-17.761
0.643,-1.283,2.309,-17.517,-5.249,-38.391
1.197,-0.619,1.607,-40.588,12.756,-27.832
1.372,-0.274,0.826,-32.837,-2.991,-17.822
1.296,-0.146,0.384,-6.287,-23.376,-15.930
1.279,-0.051,0.109,14.954,-43.091,-9.521
1.241,0.078,-0.098,28.809,-62.561,-4.028
1.111,0.153,-0.261,35.583,-75.989,-8.118
1.052,0.236,-0.344,38.330,-80.627,-17.883
1.032,0.265,-0.371,42.236,-79.712,-23.254
1.094,0.292,-0.343,45.593,-76.050,-28.259
1.132,0.269,-0.318,48.218,-72.876,-34.302
1.156,0.233,-0.267,48.340,-69.092,-37.048
1.139,0.190,-0.236,45.837,-64.209,-34.058
1.062,0.154,-0.204,39.795,-56.458,-27.405
0.993,0.115,-0.158,30.762,-44.861,-16.785
0.917,0.096,-0.105,21.851,-31.677,-5.676
0.859,0.064,-0.044,14.587,-18.555,2.686
0.809,0.014,0.011,8.911,-7.507,7.751
0.800,-0.005,0.071,5.188,0.916,9.827
0.749,0.002,0.122,4.395,7.812,9.766
0.767,-0.059,0.179,5.676,14.282,8.301
0.761,-0.031,0.222,6.042,17.578,3.662
0.782,-0.049,0.250,5.066,19.287,1.648
0.835,-0.014,0.273,2.686,18.188,-0.793
0.870,0.004,0.275,1.038,13.916,-2.808
0.900,0.008,0.251,-1.526,7.751,-4.883
0.922,0.050,0.237,-4.456,1.709,-8.057
0.939,0.086,0.201,-5.920,-4.395,-10.315
0.936,0.106,0.149,-6.348,-9.949,-11.292
0.924,0.135,0.096,-5.920,-13.245,-11.536
0.917,0.164,0.053,-4.395,-13.672,-9.888
0.920,0.178,0.020,-1.404,-11.047,-7.385
0.964,0.160,0.014,2.686,-6.226,-5.310
1.001,0.150,0.025,5.615,-0.916,-4.028
1.038,0.117,0.042,6.958,3.479,-2.991
1.051,0.095,0.064,6.470,6.531,-1.892
1.017,0.083,0.083,5.859,8.972,-0.183
0.951,0.083,0.061,4.456,12.268,1.831
1.050,0.111,0.118,2.441,19.287,3.296
1.051,0.055,0.106,1.038,22.339,3.540
0.656,0.050,0.031,-1.160,20.203,1.587
1.244,0.129,0.156,-4.761,28.442,-1.160
1.099,0.078,0.185,-3.967,28.870,-3.235
1.231,0.038,0.155,-4.822,6.226,0.549
1.197,0.052,0.073,-9.399,-13.977,6.042
0.973,0.101,0.066,-9.460,-24.231,5.249
0.971,0.091,0.033,-7.690,-23.010,5.432
0.940,0.103,0.070,-6.104,-14.221,2.808
0.989,0.109,0.044,-3.845,-8.240,2.319
0.974,0.047,0.042,-1.343,-3.906,4.211
0.804,0.122,0.041,-1.648,-0.549,2.747
0.930,0.167,0.076,-0.305,8.423,4.944
0.934,0.036,0.019,2.686,14.709,7.568
1.030,0.115,0.153,1.831,17.090,4.395
0.988,0.103,0.134,0.305,11.536,1.221
0.865,0.067,0.069,0.977,0.854,3.967
0.921,0.118,0.105,-1.465,1.099,2.136
0.915,0.045,0.111,-0.061,0.610,0.305
1.013,0.102,0.134,-2.747,-2.502,-4.700
0.940,0.106,0.112,-4.272,-7.812,-6.470
0.916,0.136,0.063,-3.906,-10.803,-6.592
0.950,0.128,0.053,-3.113,-7.690,-6.531
0.972,0.133,0.050,-1.953,-3.967,-7.324
1.019,0.130,0.056,-1.343,-2.136,-5.920
1.022,0.125,0.059,-1.831,-1.587,-3.967
1.003,0.125,0.055,-2.380,-2.563,-2.441
1.008,0.114,0.045,-2.747,-2.380,-0.305
0.998,0.099,0.053,-2.930,-0.427,0.916
1.032,0.088,0.072,-3.845,1.282,1.221
1.025,0.089,0.089,-4.517,1.160,2.197
1.019,0.077,0.091,-5.859,-0.610,3.967
0.995,0.076,0.105,-6.836,-2.502,4.333
0.958,0.064,0.116,-7.690,-3.906,3.235
0.953,0.054,0.126,-9.338,-3.845,1.404
0.963,0.051,0.136,-11.719,-3.296,-0.488
0.982,0.054,0.159,-14.221,-3.357,-1.404
0.992,0.050,0.151,-16.968,-5.188,-1.343
0.978,0.051,0.140,-19.775,-7.263,-0.977
0.959,0.062,0.121,-22.644,-8.423,-0.427
0.953,0.064,0.108,-24.719,-7.324,0.549
0.959,0.085,0.096,-25.879,-5.127,0.916
0.971,0.084,0.088,-26.001,-2.686,1.892
0.987,0.092,0.096,-25.818,-0.061,3.418
0.995,0.077,0.093,-25.208,1.953,4.517
1.007,0.075,0.115,-25.940,3.357,4.150
1.023,0.062,0.133,-27.283,3.723,3.296
1.028,0.057,0.156,-28.931,3.357,2.197
1.038,0.039,0.181,-31.433,2.502,1.465
1.054,0.017,0.213,-35.339,0.916,0.244
1.068,-0.001,0.248,-40.405,-1.465,-1.343
1.070,-0.016,0.277,-47.058,-4.639,-1.892
1.075,-0.032,0.299,-55.359,-8.545,-1.770
1.078,-0.031,0.304,-64.758,-12.878,-1.648
1.080,-0.019,0.308,-75.073,-17.029,-1.465

0.555,-0.782,-1.499,-95.520,357.117,-96.619
0.299,-0.896,-1.768,-110.596,408.081,-105.286
0.100,-1.052,-1.990,-118.774,464.661,-120.422
0.073,-1.306,-2.131,-120.667,517.395,-138.794
0.121,-1.516,-2.283,-117.920,547.363,-159.546
0.079,-1.622,-2.337,-111.877,555.481,-189.880
0.093,-1.779,-2.260,-99.121,548.401,-227.600
0.266,-1.991,-2.193,-75.378,508.850,-250.488
0.267,-2.078,-2.059,-40.710,417.419,-252.136
-0.031,-2.145,-1.917,3.845,286.987,-256.897
-0.219,-2.234,-1.915,62.683,150.818,-281.799
-0.378,-2.521,-2.113,132.507,30.396,-312.256
-0.753,-2.873,-2.428,204.956,-52.917,-346.680
-1.016,-2.767,-2.308,254.761,-84.473,-380.615
-1.041,-2.544,-1.985,293.640,-67.749,-408.081
-0.833,-2.509,-1.567,328.796,-23.804,-437.439
-0.352,-2.556,-1.247,346.191,27.649,-467.163
0.259,-2.510,-1.007,339.050,85.571,-494.385
0.809,-2.288,-0.502,308.655,137.207,-509.583
1.626,-1.979,-0.049,271.240,154.480,-507.263
2.582,-1.488,0.235,235.779,127.930,-499.756
3.168,-0.941,0.519,204.712,66.467,-492.920
3.413,-0.457,0.787,187.927,-25.330,-480.713
3.266,0.047,0.833,186.218,-135.620,-455.750
2.898,0.422,0.667,203.247,-241.333,-422.180
2.609,0.520,0.487,239.807,-323.303,-383.850
2.396,0.465,0.322,289.795,-377.258,-352.783
2.846,0.657,0.725,346.985,-404.724,-335.876
2.960,-0.271,-0.001,414.795,-434.692,-329.163
2.248,-0.524,0.277,427.917,-451.660,-332.642
2.180,-0.792,0.261,409.119,-452.271,-282.043
2.324,-0.906,0.464,366.028,-441.040,-206.604
2.265,-0.915,0.233,281.555,-415.039,-114.319
1.531,-0.718,0.255,169.861,-365.967,-13.367
0.742,-0.451,0.050,56.702,-312.744,42.358
0.464,-0.253,-0.106,-22.400,-263.184,56.396
0.325,-0.032,-0.325,-63.110,-216.675,57.190
0.224,0.055,-0.490,-73.486,-169.800,54.077
0.240,0.091,-0.609,-67.200,-128.601,41.260
0.221,0.141,-0.735,-48.828,-95.154,26.611
0.252,0.157,-0.826,-22.156,-65.186,14.099
0.354,0.231,-0.817,5.249,-35.339,1.343
0.474,0.265,-0.798,31.189,-9.766,-7.202
0.520,0.227,-0.806,49.011,7.324,-10.742
0.605,0.176,-0.775,54.443,16.174,-8.850
0.709,0.135,-0.726,49.744,15.137,-3.052
0.790,0.116,-0.654,37.292,5.371,1.038
0.828,0.126,-0.578,21.179,-9.033,2.625
0.874,0.153,-0.531,6.653,-25.452,2.563
0.932,0.152,-0.456,-3.113,-41.321,1.831
0.992,0.161,-0.321,-7.690,-67.810,-2.197
0.940,0.186,-0.294,-2.441,-72.937,-3.845
0.870,0.193,-0.254,4.822,-67.505,-2.258
0.854,0.193,-0.223,11.902,-53.955,3.662
0.839,0.209,-0.176,15.930,-34.485,11.108
0.818,0.223,-0.149,18.066,-11.597,17.212
0.793,0.192,-0.153,19.287,11.047,20.691
0.839,0.152,-0.146,18.066,30.579,20.203
0.857,0.149,-0.170,13.184,42.542,15.869
0.868,0.149,-0.223,7.385,47.180,10.437
0.897,0.158,-0.274,2.258,46.509,5.798
0.916,0.172,-0.334,-2.136,41.748,1.038
0.948,0.176,-0.400,-5.127,33.447,-2.502
0.968,0.189,-0.434,-6.287,22.827,-5.554
0.952,0.194,-0.469,-6.592,12.390,-7.935
0.933,0.193,-0.509,-5.127,3.235,-8.118
0.990,0.186,-0.519,-2.869,-4.456,-5.859
0.931,0.167,-0.534,-0.183,-12.024,-3.418
0.873,0.212,-0.544,2.197,-17.578,-1.770
0.761,0.187,-0.533,7.080,-14.954,2.808
0.755,0.192,-0.498,11.414,-4.333,4.700
0.766,0.147,-0.410,15.442,10.803,6.714
0.823,0.126,-0.326,16.174,23.132,6.470
0.864,0.121,-0.265,13.489,29.907,5.493
0.833,0.113,-0.229,8.423,31.311,4.639
0.467,0.154,-0.153,2.075,29.541,3.723
0.668,0.017,-0.394,-3.418,30.518,3.418
1.174,0.088,-0.364,-12.939,51.025,-5.981
0.720,0.113,-0.241,-19.897,61.768,-14.648
1.007,0.156,-0.346,-25.879,51.392,-13.733
1.185,0.216,-0.355,-30.396,40.894,-6.287
0.842,0.125,-0.475,-31.738,28.748,-1.038
0.948,0.136,-0.500,-34.607,17.334,-1.404
1.004,0.168,-0.530,-33.875,13.245,-2.686
0.898,0.213,-0.506,-31.921,13.733,-5.066
0.901,0.189,-0.556,-27.527,11.780,-2.747
1.057,0.180,-0.477,-23.071,12.268,0.732
0.963,0.106,-0.456,-19.531,9.705,1.160
1.134,0.086,-0.454,-19.409,1.587,0.122
1.084,0.108,-0.378,-19.470,-4.883,-0.061
1.129,0.089,-0.364,-19.226,-15.320,2.258
1.151,0.063,-0.317,-20.874,-25.452,5.737
1.138,0.024,-0.301,-24.780,-36.621,7.446
1.149,0.038,-0.279,-32.104,-47.058,10.376
1.152,-0.001,-0.272,-41.748,-56.152,18.066
1.148,-0.010,-0.262,-55.420,-66.040,25.818
1.133,-0.014,-0.237,-70.557,-75.928,34.058
1.118,-0.009,-0.220,-84.473,-87.036,40.771
1.110,-0.002,-0.236,-95.886,-98.206,44.861
1.088,0.016,-0.258,-104.614,-106.812,47.607
1.044,0.017,-0.294,-109.924,-111.633,48.218
1.038,0.009,-0.366,-111.938,-111.389,46.509
1.030,-0.007,-0.395,-112.915,-103.271,43.823
1.006,-0.029,-0.356,-115.112,-91.492,41.870
1.039,-0.015,-0.295,-119.873,-82.581,42.114
1.128,-0.007,-0.247,-126.221,-80.322,47.424
1.196,0.022,-0.189,-132.446,-85.938,54.932
1.223,0.053,-0.140,-135.620,-99.792,64.087
1.226,0.015,-0.113,-135.803,-120.117,71.899
1.176,-0.001,-0.135,-135.498,-142.578,72.693
1.070,0.014,-0.219,-134.338,-160.583,69.580
0.948,0.019,-0.264,-133.606,-164.062,67.993
0.886,0.008,-0.269,-134.521,-155.823,67.627
0.810,0.001,-0.278,-137.024,-140.381,67.017
0.703,0.020,-0.280,-140.991,-118.286,67.139
0.660,0.055,-0.244,-144.958,-90.027,68.176
0.676,0.078,-0.184,-148.010,-59.204,69.397
0.697,0.109,-0.124,-151.794,-32.043,69.763
0.729,0.128,-0.083,-155.334,-10.742,69.824

1.030,-0.427,-1.248,67.993,-30.334,-12.207
1.018,-0.471,-1.490,65.735,-25.635,-13.489
1.118,-0.494,-1.860,72.144,-21.362,-18.311
1.315,-0.606,-2.274,97.168,-17.883,-26.184
1.529,-0.746,-2.719,137.024,-10.559,-35.583
1.720,-0.916,-3.160,186.157,-5.981,-41.870
1.867,-1.066,-3.498,243.042,-11.292,-41.382
1.953,-1.167,-3.592,302.307,-23.010,-35.645
2.003,-1.205,-3.584,363.159,-37.354,-26.855
2.025,-1.301,-3.641,438.232,-55.176,-14.709
1.878,-1.481,-3.562,525.269,-68.970,2.380
1.480,-1.770,-3.253,606.018,-73.364,20.996
1.093,-2.090,-2.962,666.504,-63.843,30.640
0.818,-2.288,-2.597,707.581,-37.781,31.189
0.679,-2.367,-2.027,739.563,-5.188,32.898
0.666,-2.509,-1.414,779.053,23.804,39.185
0.689,-2.822,-0.979,828.918,40.771,43.213
0.661,-3.182,-0.654,866.211,36.987,45.532
0.609,-3.553,-0.111,891.235,28.931,42.725
0.727,-3.986,0.631,893.372,28.198,34.119
0.841,-4.000,1.263,862.244,13.794,25.513
0.556,-3.874,1.614,794.495,-16.785,18.799
0.148,-3.335,1.770,703.186,-34.485,10.864
0.030,-2.932,1.808,603.577,-25.208,5.005
0.192,-2.667,1.810,500.977,3.174,3.113
0.565,-2.685,2.013,401.001,33.752,1.343
1.285,-3.099,3.140,307.007,31.311,-18.616
1.014,-2.785,3.624,165.771,-49.438,-32.288
0.218,-1.689,2.143,-33.142,-105.774,7.324
-0.081,-0.864,1.033,-151.917,-54.077,13.428
-0.018,-0.463,0.473,-170.349,5.737,9.399
0.440,-0.208,0.154,-152.405,60.486,6.775
0.927,0.038,0.002,-124.634,98.083,3.418
1.138,0.208,-0.078,-92.651,105.835,2.625
1.197,0.254,-0.176,-65.613,89.539,1.221
1.245,0.209,-0.230,-44.189,62.500,-2.502
1.254,0.170,-0.199,-21.851,33.264,-8.545
1.299,0.143,-0.118,2.441,4.333,-18.188
1.254,0.152,-0.092,23.621,-24.719,-29.724
1.150,0.160,-0.099,37.781,-49.072,-36.865
1.105,0.171,-0.116,43.640,-63.171,-42.480
1.068,0.181,-0.170,44.250,-69.763,-45.105
1.029,0.171,-0.234,40.100,-68.420,-43.396
1.014,0.225,-0.243,31.433,-59.265,-41.138
0.963,0.228,-0.297,23.193,-48.035,-35.217
0.955,0.265,-0.269,18.188,-30.762,-28.259
0.946,0.247,-0.231,17.273,-13.245,-15.625
0.946,0.220,-0.133,19.043,4.028,-2.502
0.958,0.152,-0.027,21.973,15.625,8.972
0.990,0.102,0.094,24.231,19.775,15.198
0.994,0.041,0.222,24.780,15.869,17.883
0.948,-0.017,0.284,21.545,5.005,16.846
0.905,-0.041,0.296,15.137,-5.737,12.878
0.879,-0.045,0.304,9.155,-11.536,8.240
0.872,-0.040,0.312,2.686,-13.184,3.967
0.893,-0.025,0.330,-5.066,-13.733,0.488
0.864,0.045,0.300,-12.085,-14.404,-2.441
0.865,0.066,0.281,-17.029,-12.634,-3.418
0.899,0.100,0.241,-20.447,-10.925,-5.066
0.906,0.148,0.197,-21.301,-8.850,-5.371
0.918,0.176,0.143,-19.897,-5.249,-3.784
0.929,0.179,0.094,-16.479,-0.793,-1.770
0.921,0.190,0.057,-12.329,4.883,0.549
0.923,0.205,0.033,-7.751,12.085,1.892
0.951,0.186,0.015,-3.052,17.639,2.991
0.991,0.164,0.014,0.916,21.362,4.272
1.043,0.139,0.025,2.686,22.156,4.272
1.095,0.135,0.027,2.319,19.226,2.808
1.104,0.137,0.031,1.404,12.329,1.587
1.099,0.133,0.036,0.549,4.089,0.244
1.098,0.135,0.044,0.122,-2.930,-0.671
1.077,0.137,0.049,0.244,-8.057,-0.977
1.052,0.127,0.056,0.549,-10.315,-0.122
1.021,0.132,0.064,1.587,-10.742,0.732
0.980,0.115,0.070,2.380,-9.338,1.892
0.944,0.105,0.069,2.563,-6.470,2.563
0.907,0.100,0.072,3.113,-1.709,3.174
0.884,0.081,0.071,3.113,4.639,4.333
0.789,0.086,0.057,3.357,11.536,4.761
0.490,0.143,-0.031,5.310,22.461,10.132
1.149,-0.185,0.219,5.249,42.603,13.000
1.059,0.049,0.233,-5.737,38.269,-9.338
1.128,0.103,0.213,-10.925,20.325,-10.315
0.991,0.033,0.120,-14.343,3.540,-7.568
1.030,0.070,0.089,-17.944,-2.747,-7.324
0.863,0.032,0.089,-20.264,-3.113,-6.714
0.992,0.134,0.051,-25.879,-1.160,-12.329
1.189,0.191,0.078,-27.466,6.165,-11.475
1.159,0.135,0.089,-27.527,1.221,-0.854
1.088,0.028,0.081,-30.151,-9.949,5.188
1.016,0.049,-0.000,-34.729,-23.865,2.197
1.094,0.155,0.053,-35.400,-23.743,-1.831
1.077,0.124,0.040,-35.339,-24.536,1.343
1.048,0.119,0.053,-35.522,-24.292,3.540
1.006,0.089,0.047,-35.278,-23.682,5.432
1.001,0.094,0.061,-34.912,-22.583,5.005
0.995,0.122,0.065,-35.095,-20.752,4.822
0.970,0.110,0.068,-34.424,-18.738,6.226
0.966,0.099,0.072,-34.302,-16.418,7.263
0.955,0.094,0.059,-34.912,-15.381,6.836
0.952,0.112,0.053,-33.630,-12.878,7.507
0.941,0.089,0.053,-32.471,-10.864,8.179
0.926,0.088,0.053,-31.860,-8.667,8.362
0.926,0.097,0.062,-31.494,-5.859,8.179
0.929,0.097,0.079,-30.212,-3.235,7.935
0.937,0.091,0.093,-29.480,-1.648,7.019
0.930,0.098,0.097,-29.236,-1.099,5.737
0.938,0.091,0.104,-28.870,-0.793,5.249
0.942,0.097,0.105,-28.931,-0.671,4.456
0.913,0.096,0.109,-29.480,-0.244,3.479
0.916,0.103,0.095,-30.518,1.953,2.869
0.940,0.104,0.091,-32.776,5.493,3.357
0.980,0.117,0.126,-36.255,9.521,3.784
1.028,0.108,0.144,-41.199,10.193,4.272
1.056,0.128,0.156,-47.302,7.263,3.784
1.043,0.138,0.158,-52.490,2.747,4.333
1.064,0.107,0.157,-56.274,-2.441,5.615
1.115,0.089,0.165,-59.631,-7.324,5.371
1.088,0.110,0.182,-62.866,-12.390,4.272

1.506,-0.128,-1.370,68.787,-2.380,-16.846
1.680,-0.129,-1.448,98.389,-2.380,-15.076
1.783,-0.184,-1.517,135.376,-6.470,-11.902
1.801,-0.217,-1.531,170.715,-14.465,-4.272
1.774,-0.264,-1.569,203.796,-26.428,4.761
1.758,-0.383,-1.725,234.436,-40.527,13.123
1.733,-0.505,-1.856,263.000,-48.279,18.188
1.664,-0.595,-1.898,287.842,-46.509,20.996
1.547,-0.613,-1.870,309.814,-38.025,24.841
1.405,-0.624,-1.805,331.055,-24.902,31.860
1.275,-0.683,-1.707,354.309,-7.507,39.551
1.187,-0.757,-1.566,378.052,16.113,45.349
1.133,-0.831,-1.390,401.184,40.894,49.438
1.082,-0.899,-1.206,424.133,62.622,52.551
1.029,-0.970,-1.049,446.472,78.552,54.443
0.945,-1.008,-0.894,467.468,90.393,54.565
0.861,-1.019,-0.705,489.136,98.999,53.650
0.831,-1.065,-0.537,513.306,103.699,51.453
0.851,-1.148,-0.388,540.039,103.088,45.898
0.873,-1.239,-0.228,569.763,97.595,36.804
0.876,-1.328,-0.091,603.516,87.341,24.292
0.867,-1.505,0.004,640.320,72.021,9.949
0.849,-1.730,0.112,667.542,52.734,-3.784
0.802,-1.881,0.251,674.805,34.790,-16.296
0.699,-1.866,0.376,661.072,22.461,-25.085
0.580,-1.773,0.529,628.723,16.113,-27.954
0.493,-1.667,0.689,581.299,16.907,-26.917
0.446,-1.551,0.797,520.630,22.522,-24.475
0.505,-1.520,0.900,452.209,31.738,-21.484
0.691,-1.621,1.133,383.484,37.292,-22.583
1.162,-2.340,2.056,317.444,24.109,-37.476
1.747,-2.425,3.485,221.252,-52.307,-71.228
0.894,-2.098,2.254,22.034,-153.625,-34.912
0.411,-1.057,1.137,-142.334,-135.742,-9.216
0.141,-0.580,0.649,-188.293,-86.853,-24.475
0.298,-0.574,0.381,-181.824,-30.396,-25.940
0.762,-0.443,0.212,-163.818,30.273,-18.127
1.098,-0.202,0.155,-137.695,61.646,-6.470
1.200,-0.070,0.139,-102.234,63.599,3.052
1.168,-0.017,0.054,-71.106,47.180,8.240
1.120,0.021,0.009,-48.096,32.837,10.376
1.074,0.061,-0.015,-31.433,23.254,10.864
1.042,0.099,-0.045,-18.433,15.747,9.094
1.037,0.125,-0.053,-7.263,9.277,4.700
1.007,0.118,-0.078,1.526,3.418,-0.366
1.063,0.148,-0.062,8.484,0.305,-7.263
1.062,0.125,-0.070,15.015,-2.502,-13.062
1.099,0.070,-0.009,21.301,-5.493,-18.250
1.091,0.126,-0.031,24.658,-13.611,-24.475
1.064,0.179,-0.004,26.855,-20.020,-27.405
1.020,0.155,-0.010,27.832,-24.658,-23.682
0.983,0.175,0.009,26.184,-25.879,-20.874
0.938,0.193,-0.006,22.705,-25.330,-16.418
0.905,0.201,0.009,18.738,-20.691,-10.010
0.877,0.190,0.018,13.428,-14.526,-2.686
0.874,0.178,0.025,7.507,-8.057,4.456
0.861,0.159,0.025,1.526,-0.793,10.986
0.852,0.132,0.037,-3.235,6.714,15.015
0.824,0.125,0.033,-7.141,12.878,16.357
0.762,0.111,0.015,-10.132,18.921,16.296
0.789,0.099,0.027,-12.268,28.015,14.282
0.811,0.091,0.026,-15.381,37.720,11.475
0.786,0.111,0.062,-18.494,44.556,7.812
1.097,0.125,0.110,-21.729,45.654,6.470
1.066,0.067,0.133,-24.963,34.424,6.836
1.076,0.124,0.090,-29.846,15.747,4.089
1.039,0.150,0.057,-30.945,3.113,5.798
0.979,0.094,0.034,-29.785,-2.380,8.484
0.980,0.120,0.000,-29.541,-5.188,7.751
0.954,0.104,0.010,-28.015,-2.869,7.690
0.993,0.114,0.043,-26.672,2.014,6.531
0.940,0.104,0.025,-24.841,7.507,5.737
0.935,0.134,0.026,-22.705,14.526,4.944
0.973,0.088,0.038,-20.752,22.400,6.897
1.005,0.094,0.067,-19.165,27.954,5.737
1.076,0.115,0.045,-18.250,29.846,5.005
1.024,0.129,0.093,-16.602,31.738,6.348
1.067,0.089,0.093,-16.296,29.175,10.803
1.073,0.030,0.102,-17.944,23.315,11.536
1.092,0.079,0.104,-22.400,13.916,7.324
1.099,0.101,0.080,-25.940,5.798,5.127
1.043,0.086,0.071,-28.503,-0.610,5.554
1.018,0.074,0.050,-31.006,-4.456,5.737
1.049,0.070,0.054,-34.058,-6.287,4.578
1.043,0.063,0.080,-37.476,-7.812,2.502
1.055,0.063,0.080,-42.114,-11.414,0.488
1.074,0.072,0.074,-46.265,-16.663,-1.404
1.070,0.094,0.069,-49.194,-22.400,-2.197
1.042,0.089,0.074,-49.866,-27.527,-1.343
1.018,0.080,0.073,-50.110,-31.738,-0.793
1.024,0.086,0.071,-50.415,-34.241,-0.854
1.027,0.091,0.078,-50.842,-34.607,-0.488
1.013,0.079,0.097,-51.331,-34.424,0.305
1.011,0.068,0.108,-53.711,-35.095,0.793
1.001,0.078,0.106,-57.434,-36.438,0.305
0.988,0.085,0.112,-61.279,-36.194,0.366
0.975,0.082,0.119,-65.125,-34.668,0.977
0.981,0.066,0.120,-70.496,-32.776,1.221
1.000,0.043,0.133,-76.416,-31.311,0.671
1.026,0.032,0.148,-84.351,-31.067,-0.366
1.039,0.023,0.155,-93.445,-32.837,-0.671
1.047,0.018,0.169,-102.905,-35.461,-0.366
1.063,0.014,0.182,-113.220,-39.063,1.404
1.072,0.012,0.179,-123.108,-44.739,3.662
1.071,0.001,0.196,-131.409,-51.819,4.944
1.072,0.003,0.202,-139.343,-59.875,5.127
1.066,0.010,0.199,-146.729,-67.444,5.798
1.039,0.016,0.189,-153.076,-72.937,7.080
1.026,0.025,0.195,-158.813,-75.195,8.301
1.017,0.039,0.208,-164.062,-75.134,9.338
0.983,0.063,0.200,-168.457,-73.914,11.169
0.938,0.076,0.189,-170.837,-68.542,13.794
0.922,0.088,0.187,-170.837,-58.472,16.541
0.927,0.105,0.182,-168.579,-46.326,19.592
0.923,0.120,0.181,-165.955,-33.142,23.926
0.913,0.133,0.188,-162.964,-19.714,28.259
0.912,0.149,0.203,-159.424,-6.287,31.250
0.925,0.164,0.210,-156.006,5.859,32.959
0.951,0.171,0.212,-152.710,16.418,33.569

1.358,-0.242,-1.239,61.340,-27.893,11.414
1.391,-0.227,-1.394,75.867,-33.508,13.306
1.436,-0.225,-1.529,97.595,-36.865,15.198
1.505,-0.220,-1.630,127.747,-39.917,17.944
1.686,-0.263,-1.649,164.612,-42.786,20.569
1.918,-0.361,-1.654,207.764,-48.828,20.691
2.034,-0.463,-1.683,251.343,-58.716,20.935
1.966,-0.511,-1.689,292.664,-69.092,25.208
1.801,-0.510,-1.655,330.078,-76.416,34.668
1.668,-0.595,-1.641,364.624,-79.834,48.584
1.555,-0.726,-1.606,393.677,-77.332,64.209
1.404,-0.779,-1.484,412.354,-66.040,78.186
1.214,-0.781,-1.339,426.025,-50.232,90.881
1.010,-0.772,-1.193,441.284,-31.921,103.455
0.828,-0.784,-1.042,461.121,-9.583,113.892
0.713,-0.899,-0.909,485.596,15.808,120.422
0.630,-1.003,-0.737,509.155,41.199,122.681
0.554,-1.017,-0.489,536.194,64.087,121.033
0.496,-1.085,-0.247,574.951,81.055,116.882
0.452,-1.220,-0.096,618.896,87.341,106.812
0.388,-1.437,0.062,664.612,87.463,88.623
0.325,-1.743,0.250,698.364,85.144,67.993
0.399,-2.009,0.511,704.712,78.674,53.711
0.485,-2.164,0.829,682.556,71.289,49.377
0.360,-2.156,1.073,628.235,69.092,43.701
0.274,-2.003,1.258,543.640,73.853,31.189
0.361,-1.754,1.352,446.167,83.496,20.020
0.483,-1.484,1.406,352.478,93.567,14.404
0.581,-1.411,1.448,272.949,97.900,13.062
0.994,-1.652,1.839,204.346,92.346,9.827
1.248,-1.635,2.572,128.357,47.119,0.427
0.862,-1.274,2.196,9.277,-22.034,10.437
0.607,-0.881,1.325,-103.638,-44.617,18.677
0.550,-0.537,0.759,-153.687,-21.729,12.573
0.618,-0.219,0.374,-160.522,7.996,4.272
0.806,-0.002,0.156,-142.700,42.236,-1.892
1.000,0.107,0.092,-111.938,74.585,-5.249
1.149,0.110,0.054,-79.712,91.187,-6.714
1.301,0.121,0.038,-53.711,90.210,-7.141
1.409,0.177,0.036,-35.706,75.134,-6.287
1.414,0.214,0.018,-23.315,50.781,-5.127
1.351,0.228,-0.016,-15.198,24.048,-4.333
1.266,0.238,-0.042,-9.949,0.366,-3.662
1.171,0.228,-0.068,-5.920,-17.700,-3.967
1.089,0.214,-0.084,-3.235,-29.846,-5.310
1.035,0.215,-0.079,-2.625,-36.255,-6.592
0.964,0.218,-0.088,-3.418,-39.368,-6.592
0.888,0.242,-0.096,-3.174,-39.124,-5.859
0.837,0.241,-0.098,-2.625,-35.034,-3.479
0.792,0.227,-0.085,-3.174,-28.442,-1.587
0.786,0.219,-0.079,-4.517,-21.729,0.000
0.804,0.215,-0.068,-4.944,-14.954,1.465
0.782,0.216,-0.056,-4.272,-9.155,4.456
0.778,0.195,-0.031,-2.502,-3.357,6.226
0.813,0.162,-0.016,-0.366,2.441,5.493
0.879,0.158,-0.006,0.610,6.958,1.770
0.934,0.161,0.013,1.892,9.583,-2.502
0.971,0.173,0.038,4.700,8.667,-5.432
0.991,0.176,0.064,7.874,5.188,-7.751
0.966,0.178,0.074,10.559,0.916,-9.766
0.918,0.165,0.069,11.963,-2.014,-11.475
0.874,0.157,0.051,10.925,-2.380,-13.855
0.852,0.139,0.045,8.057,2.014,-17.212
1.134,0.226,0.169,3.906,6.348,-21.484
1.007,0.121,0.089,-0.305,-5.615,-18.372
0.929,0.133,0.103,-3.113,-18.738,-18.250
1.123,0.135,0.115,-5.249,-27.588,-17.090
1.031,0.152,0.085,-7.812,-38.574,-15.259
0.942,0.140,0.056,-9.583,-44.617,-12.329
0.905,0.102,0.048,-9.888,-43.579,-11.414
0.928,0.128,0.043,-10.437,-38.940,-13.672
0.915,0.147,0.055,-9.521,-30.579,-14.221
0.898,0.136,0.073,-7.080,-20.752,-13.794
0.948,0.119,0.086,-4.944,-11.902,-14.221
0.987,0.141,0.093,-3.357,-5.005,-14.160
1.001,0.139,0.093,-1.221,-0.305,-11.658
1.023,0.128,0.108,0.183,3.296,-8.179
1.051,0.091,0.118,0.732,4.089,-5.676
1.060,0.103,0.125,-0.305,1.953,-5.615
1.057,0.114,0.124,-1.038,-1.465,-4.517
1.037,0.106,0.120,-0.732,-4.517,-3.052
1.013,0.098,0.117,-0.671,-6.287,-1.709
0.996,0.100,0.119,-1.099,-6.531,-1.038
1.003,0.107,0.131,-1.160,-5.859,-0.977
1.000,0.107,0.139,-1.404,-5.310,-0.610
1.001,0.099,0.147,-1.648,-5.615,-0.244
1.012,0.092,0.149,-1.587,-6.592,-0.427
1.021,0.098,0.152,-2.014,-7.874,-0.977
1.011,0.098,0.150,-2.441,-8.911,-0.977
1.008,0.102,0.151,-2.197,-9.216,-1.038
1.004,0.100,0.151,-1.953,-9.277,-0.854
1.001,0.106,0.154,-1.526,-9.277,-1.160
0.996,0.106,0.154,-1.099,-9.094,-1.282
0.984,0.103,0.155,-0.854,-8.545,-1.099
0.972,0.102,0.156,-1.038,-7.446,-0.854
0.962,0.102,0.161,-0.793,-6.653,-0.671
0.954,0.102,0.170,-0.610,-5.798,-0.854
0.957,0.095,0.170,-0.488,-5.310,-1.038
0.962,0.092,0.171,-0.854,-5.432,-1.099
0.959,0.102,0.169,-2.075,-5.676,-0.549
0.948,0.105,0.172,-2.930,-5.066,0.549
0.946,0.105,0.170,-4.028,-4.211,1.343
0.958,0.094,0.164,-5.249,-3.296,1.953
0.967,0.094,0.160,-6.592,-2.502,2.136
0.964,0.101,0.159,-7.080,-2.258,2.258
0.956,0.108,0.161,-7.629,-1.709,2.563
0.945,0.108,0.164,-7.568,-0.977,2.808
0.954,0.100,0.160,-7.629,-0.183,2.563
0.974,0.094,0.159,-8.301,0.732,1.221
0.986,0.102,0.152,-8.972,0.916,0.122
0.995,0.114,0.146,-8.850,0.183,-0.244
0.995,0.127,0.145,-8.484,-0.183,0.793
0.990,0.134,0.144,-8.301,-0.305,2.136
0.988,0.135,0.146,-7.812,0.244,3.174
0.991,0.129,0.149,-7.812,0.854,4.028
0.999,0.120,0.154,-8.362,1.160,4.211
1.011,0.113,0.165,-9.338,0.671,3.967
1.016,0.108,0.175,-10.254,-0.854,3.784
1.018,0.094,0.183,-11.230,-3.418,3.723

1.439,-0.072,-1.380,62.622,-14.465,-23.437
1.461,-0.033,-1.615,83.679,-20.935,-18.982
1.518,-0.014,-1.779,114.258,-21.545,-16.724
1.606,-0.051,-1.918,153.015,-15.869,-15.747
1.690,-0.159,-2.026,197.327,-7.141,-14.709
1.775,-0.270,-2.100,241.821,-0.122,-13.916
1.852,-0.378,-2.151,285.034,2.502,-13.123
1.923,-0.510,-2.229,326.355,2.747,-11.902
1.970,-0.684,-2.332,363.525,3.662,-10.742
1.946,-0.821,-2.298,396.301,11.536,-8.911
1.820,-0.849,-2.144,422.913,23.315,-1.343
1.681,-0.879,-1.993,447.754,32.410,11.902
1.577,-0.977,-1.830,470.764,42.236,26.489
1.497,-1.098,-1.706,488.953,54.871,36.804
1.445,-1.194,-1.483,501.953,72.083,41.138
1.405,-1.227,-1.126,514.221,90.698,43.152
1.350,-1.274,-0.765,528.870,99.976,45.166
1.278,-1.351,-0.457,542.969,97.107,45.593
1.163,-1.443,-0.243,549.805,83.435,44.434
1.006,-1.524,-0.042,547.729,62.500,41.260
0.867,-1.577,0.206,541.748,41.992,36.255
0.709,-1.617,0.390,530.518,20.630,33.325
0.565,-1.645,0.540,511.536,1.587,32.532
0.457,-1.698,0.737,490.051,-8.484,30.090
0.364,-1.709,0.880,462.341,-12.146,21.362
0.332,-1.648,1.001,427.368,-10.254,9.583
0.304,-1.536,1.090,387.207,-3.357,0.610
0.298,-1.397,1.137,343.872,4.761,-5.127
0.332,-1.253,1.154,302.002,12.573,-9.277
0.381,-1.139,1.157,262.878,18.005,-11.658
0.462,-1.099,1.175,225.342,20.874,-12.817
0.552,-1.031,1.186,186.768,20.386,-14.404
0.704,-1.322,1.361,147.583,15.686,-17.700
1.116,-1.187,1.827,103.516,-6.042,-33.142
1.181,-1.013,1.586,30.884,-57.068,-26.428
0.878,-0.817,0.937,-39.490,-79.041,-9.827
0.654,-0.534,0.714,-70.801,-51.697,-5.310
0.679,-0.293,0.564,-75.439,-19.592,-7.629
0.886,-0.158,0.401,-68.970,5.371,-11.353
1.019,-0.083,0.291,-58.044,27.039,-10.254
1.104,-0.027,0.195,-46.448,37.415,-8.789
1.179,0.058,0.118,-36.560,37.354,-8.484
1.204,0.137,0.076,-28.259,30.945,-7.935
1.197,0.190,0.042,-22.278,20.386,-6.958
1.154,0.231,0.002,-18.555,8.118,-6.287
1.125,0.227,-0.042,-16.663,-2.014,-5.493
1.121,0.229,-0.050,-15.259,-7.202,-6.714
1.137,0.222,-0.086,-15.503,-12.817,-8.667
1.114,0.268,-0.089,-14.954,-16.907,-10.376
1.070,0.253,-0.104,-12.207,-19.043,-7.141
1.035,0.257,-0.094,-8.606,-19.348,-4.639
1.000,0.266,-0.090,-5.432,-19.226,-2.380
0.969,0.260,-0.078,-2.563,-17.151,1.221
0.922,0.252,-0.067,-0.549,-14.587,5.188
0.885,0.219,-0.049,0.977,-11.108,7.751
0.863,0.205,-0.045,2.319,-8.545,8.118
0.852,0.197,-0.022,4.639,-4.944,7.446
0.858,0.183,-0.000,7.385,-1.282,6.226
0.877,0.165,0.020,10.071,0.549,4.333
0.885,0.155,0.041,12.878,0.977,1.953
0.854,0.150,0.046,14.771,0.916,-0.977
0.865,0.149,0.064,16.174,3.296,-3.784
0.868,0.134,0.066,16.724,6.592,-6.226
0.715,0.107,0.031,15.808,9.766,-8.850
1.055,0.200,0.156,14.893,15.991,-10.803
0.991,0.129,0.139,13.245,10.742,-6.409
0.992,0.126,0.121,9.827,1.221,-4.395
1.062,0.137,0.124,6.165,-5.066,-1.465
0.985,0.120,0.087,2.686,-9.583,1.709
0.957,0.147,0.085,0.183,-9.949,3.967
0.935,0.131,0.092,-1.465,-6.714,6.042
0.890,0.119,0.115,-3.540,-1.892,5.920
0.892,0.144,0.106,-5.005,3.662,4.089
0.870,0.157,0.087,-4.822,9.705,3.845
0.945,0.132,0.093,-4.333,16.663,5.615
0.976,0.115,0.118,-4.456,20.996,5.249
1.013,0.148,0.101,-5.066,20.691,3.601
0.968,0.158,0.143,-4.822,20.569,4.395
1.006,0.120,0.127,-4.883,17.212,6.714
1.029,0.071,0.132,-5.676,12.817,5.066
1.074,0.122,0.133,-8.362,4.456,0.488
1.057,0.113,0.099,-9.644,-2.319,-0.244
1.026,0.113,0.088,-10.620,-6.470,-1.099
1.041,0.121,0.089,-11.536,-7.874,-2.563
1.058,0.129,0.107,-12.451,-8.484,-3.967
1.029,0.137,0.107,-13.245,-11.963,-5.188
1.054,0.139,0.108,-13.794,-15.564,-5.432
1.039,0.151,0.098,-14.404,-18.738,-5.676
1.004,0.151,0.087,-14.771,-20.203,-5.066
0.978,0.147,0.076,-15.198,-19.775,-3.845
0.958,0.152,0.074,-15.625,-17.639,-3.113
0.956,0.148,0.074,-15.930,-14.648,-2.197
0.966,0.144,0.072,-16.785,-11.414,-0.916
0.977,0.141,0.077,-17.395,-9.399,0.183
0.981,0.136,0.086,-18.127,-8.362,0.916
0.980,0.133,0.091,-18.250,-8.118,0.854
0.974,0.131,0.093,-18.555,-8.362,0.122
0.967,0.133,0.096,-18.433,-8.301,-0.549
0.971,0.132,0.104,-18.311,-7.812,-0.916
0.988,0.135,0.109,-18.372,-7.812,-1.343
1.000,0.134,0.107,-19.409,-8.362,-1.831
0.999,0.145,0.104,-21.118,-9.521,-2.014
0.984,0.162,0.084,-21.851,-10.620,-1.160
0.982,0.159,0.070,-21.362,-10.254,0.671
0.976,0.159,0.066,-20.935,-8.911,2.502
0.958,0.163,0.066,-19.958,-7.629,3.845
0.948,0.162,0.066,-19.531,-5.615,4.578
0.951,0.167,0.062,-19.226,-3.052,5.127
0.957,0.168,0.064,-18.311,-0.183,5.493
0.967,0.168,0.069,-17.517,2.563,5.981
0.981,0.170,0.074,-16.785,4.333,5.920
0.993,0.170,0.079,-15.686,5.371,5.615
0.999,0.170,0.081,-15.259,5.127,5.310
1.000,0.170,0.084,-15.198,3.845,4.822
0.997,0.174,0.082,-14.587,1.587,4.211
0.993,0.177,0.073,-13.977,0.000,3.662
0.997,0.179,0.073,-13.184,-1.038,3.784
0.990,0.182,0.075,-12.207,-2.197,4.211
0.977,0.177,0.077,-11.047,-3.174,4.639

1.062,-0.395,-1.308,41.565,29.480,-60.791
1.211,-0.371,-1.421,50.354,44.006,-56.946
1.376,-0.356,-1.517,64.819,41.870,-48.889
1.510,-0.363,-1.617,85.999,23.743,-40.710
1.584,-0.407,-1.760,111.633,-4.395,-34.912
1.589,-0.408,-1.884,140.076,-34.912,-32.349
1.511,-0.378,-2.005,172.791,-63.843,-31.006
1.424,-0.469,-2.253,211.487,-89.417,-27.649
1.412,-0.721,-2.636,254.028,-109.009,-24.109
1.528,-1.151,-3.155,294.006,-120.544,-22.888
1.742,-1.503,-3.625,324.463,-117.493,-26.917
1.903,-1.559,-3.772,345.398,-100.586,-31.250
1.846,-1.251,-3.361,371.704,-78.186,-26.245
1.568,-1.010,-2.774,417.419,-55.237,-3.296
1.273,-1.038,-2.263,475.159,-36.865,30.151
1.047,-1.209,-1.807,525.940,-22.705,59.082
0.862,-1.363,-1.320,564.941,-10.864,75.195
0.777,-1.474,-0.732,600.464,0.610,79.651
0.774,-1.613,-0.130,645.996,0.732,74.036
0.673,-2.005,0.128,694.153,-24.353,63.110
0.630,-2.444,0.878,707.336,-65.552,47.852
0.641,-2.463,1.281,672.668,-112.732,35.400
0.382,-2.332,1.358,613.464,-163.879,41.992
-0.166,-2.307,1.611,542.603,-179.565,53.345
-0.553,-2.152,1.779,456.421,-163.818,51.392
-0.636,-1.899,1.875,365.173,-122.559,46.448
-0.572,-1.614,1.915,283.264,-64.270,41.077
-0.384,-1.365,1.844,212.891,-10.071,35.217
-0.166,-1.163,1.710,155.762,34.119,29.053
0.090,-0.998,1.556,112.915,68.909,23.315
0.406,-0.852,1.408,79.956,92.346,17.517
0.713,-0.706,1.254,54.688,101.807,11.353
0.944,-0.539,1.075,37.048,95.947,4.761
1.115,-0.376,0.918,25.208,80.383,-1.709
1.252,-0.255,0.777,18.860,59.692,-5.920
1.330,-0.138,0.647,17.883,36.377,-9.521
1.344,-0.036,0.487,19.409,13.550,-11.597
1.329,0.037,0.343,21.057,-2.136,-12.695
1.310,0.097,0.233,22.522,-10.498,-14.404
1.272,0.145,0.135,23.560,-15.930,-16.052
1.236,0.169,0.064,24.231,-18.311,-16.724
1.224,0.180,0.029,25.208,-18.494,-17.578
1.223,0.180,0.016,25.757,-18.433,-17.517
1.203,0.172,0.012,26.367,-20.203,-15.930
1.146,0.168,0.012,26.062,-24.963,-13.428
1.086,0.155,0.005,25.146,-31.311,-10.193
1.035,0.135,-0.000,23.926,-37.292,-6.042
0.975,0.120,-0.005,21.606,-41.199,-2.930
0.896,0.117,-0.005,19.226,-42.664,-0.488
0.814,0.112,-0.008,17.212,-40.955,1.343
0.769,0.123,0.017,16.296,-35.828,2.258
0.715,0.108,0.031,16.724,-28.992,3.174
0.688,0.104,0.063,17.639,-19.165,3.052
0.704,0.080,0.089,18.555,-8.362,3.113
0.752,0.057,0.115,18.005,0.549,2.869
0.803,0.062,0.139,16.724,6.653,1.953
0.852,0.072,0.140,14.465,9.460,1.099
0.906,0.073,0.130,10.803,10.620,0.671
0.937,0.096,0.114,6.409,10.559,0.183
0.965,0.121,0.102,3.662,9.766,-0.244
1.000,0.149,0.090,1.831,8.423,-0.122
1.017,0.171,0.090,1.160,6.531,-0.549
1.024,0.196,0.093,1.709,4.883,-0.854
1.016,0.206,0.099,3.479,3.296,-0.732
1.001,0.197,0.092,5.249,2.075,-0.549
1.002,0.179,0.082,6.042,1.404,-1.343
1.017,0.171,0.085,5.432,2.197,-2.380
1.011,0.168,0.090,4.700,2.808,-2.747
0.994,0.165,0.102,4.456,2.502,-2.625
0.947,0.158,0.101,3.540,2.625,-2.258
0.874,0.132,0.073,1.465,3.906,-2.625
0.390,0.056,-0.054,-0.793,9.460,-4.456
1.132,0.119,0.215,-1.465,31.494,-12.024
1.269,0.218,0.078,-2.380,34.546,-7.935
0.998,0.049,0.172,-0.549,18.494,1.221
0.997,0.069,0.169,-1.282,5.310,1.953
0.979,0.162,0.113,-2.563,-7.874,0.488
0.978,0.092,0.102,-1.587,-9.521,2.991
0.904,0.053,0.109,-3.906,-7.324,0.671
0.825,0.112,0.032,-8.423,-2.625,-4.944
1.018,0.187,0.030,-10.498,9.460,-7.446
1.068,0.103,0.092,-8.972,21.240,-3.662
1.078,0.158,0.057,-10.803,19.714,-4.333
1.103,0.150,0.059,-10.986,14.954,-2.563
1.129,0.170,0.051,-9.949,8.423,-1.770
1.054,0.179,0.027,-7.629,1.587,0.305
1.077,0.128,0.072,-4.639,-3.601,1.709
1.099,0.151,0.054,-3.418,-11.841,-1.221
0.986,0.193,0.024,-1.160,-17.517,-2.747
0.969,0.159,0.030,2.380,-16.113,-1.038
0.983,0.150,0.053,4.822,-13.123,-1.099
0.940,0.144,0.066,5.737,-11.597,-2.502
0.969,0.162,0.072,5.737,-10.254,-3.357
0.947,0.161,0.069,5.371,-8.545,-3.174
0.945,0.170,0.060,5.127,-6.531,-2.441
0.951,0.156,0.073,4.761,-3.784,-0.916
0.966,0.155,0.070,3.784,-2.197,-0.427
0.965,0.159,0.064,3.052,-0.793,0.427
0.948,0.147,0.063,2.991,1.465,1.709
0.950,0.128,0.063,2.258,3.418,3.052
0.954,0.116,0.067,1.709,4.639,2.869
0.959,0.110,0.076,0.732,5.798,1.587
0.966,0.107,0.083,-0.427,6.226,-0.122
0.973,0.117,0.085,-1.587,5.554,-1.892
0.978,0.114,0.084,-2.563,3.967,-2.991
0.977,0.121,0.094,-3.052,2.319,-3.662
0.965,0.128,0.099,-3.235,-0.732,-4.089
0.957,0.133,0.097,-4.272,-3.723,-3.784
0.946,0.135,0.093,-4.700,-5.493,-3.540
0.935,0.138,0.085,-4.639,-5.676,-3.540
0.939,0.150,0.094,-4.517,-4.028,-3.357
0.947,0.146,0.092,-4.150,-2.319,-2.747
0.957,0.154,0.086,-3.845,-1.221,-1.709
0.953,0.140,0.077,-4.272,0.610,-0.366
0.938,0.143,0.074,-4.395,2.686,-0.244
0.956,0.135,0.074,-4.517,4.700,-0.671
0.966,0.148,0.088,-4.639,6.165,-1.831
0.977,0.148,0.090,-4.639,5.798,-2.563
1.001,0.143,0.084,-4.395,4.761,-2.747

1.827,-0.443,-1.096,53.223,13.611,-9.583
2.074,-0.531,-1.370,67.078,7.812,-13.977
2.300,-0.596,-1.642,88.623,2.502,-18.494
2.415,-0.605,-1.883,119.385,-2.930,-18.005
2.344,-0.502,-2.018,156.738,-9.827,-6.531
2.181,-0.436,-2.056,199.646,-18.494,16.113
1.998,-0.506,-2.121,248.169,-25.330,42.969
1.779,-0.601,-2.202,295.227,-23.193,67.688
1.507,-0.699,-2.175,336.792,-11.292,85.693
1.246,-0.827,-2.094,373.779,7.812,95.093
1.009,-0.892,-1.935,406.189,36.133,97.351
0.831,-0.978,-1.760,433.228,69.885,97.168
0.719,-1.123,-1.632,455.322,102.234,92.896
0.654,-1.155,-1.405,471.985,133.728,84.717
0.644,-1.167,-1.115,490.295,159.973,77.087
0.728,-1.246,-0.828,514.648,176.758,68.604
0.923,-1.251,-0.420,546.143,182.739,58.472
1.154,-1.237,0.003,595.337,170.471,46.997
1.256,-1.514,0.183,653.992,137.329,36.316
1.175,-1.864,0.374,684.937,91.309,28.992
1.065,-2.009,0.691,677.795,50.537,24.841
0.898,-1.862,0.807,639.709,14.099,28.870
0.718,-1.636,0.799,589.050,-15.320,41.992
0.539,-1.568,0.819,536.804,-24.231,55.908
0.494,-1.615,0.961,480.103,-10.071,61.951
0.545,-1.591,1.129,419.678,17.517,58.594
0.644,-1.462,1.337,358.154,45.837,50.354
0.886,-1.420,1.607,297.363,61.707,43.030
0.934,-1.543,1.867,235.535,54.077,38.391
0.929,-2.271,2.768,162.537,38.513,25.757
1.063,-1.560,2.990,62.683,-17.578,-15.930
0.751,-1.014,2.049,-40.283,-84.900,-19.348
0.293,-0.627,1.016,-93.201,-93.201,-14.771
0.373,-0.366,0.670,-100.830,-44.189,-12.634
0.667,-0.167,0.518,-90.088,3.540,-6.714
0.906,-0.053,0.300,-76.721,26.184,-5.310
1.031,0.083,0.105,-64.575,31.555,-5.249
1.089,0.208,-0.057,-51.331,24.902,-6.592
1.131,0.296,-0.170,-35.767,13.855,-12.390
1.161,0.347,-0.232,-18.127,3.479,-18.799
1.212,0.373,-0.255,-1.038,-7.202,-25.818
1.242,0.374,-0.263,14.221,-18.555,-33.386
1.272,0.380,-0.235,27.283,-29.907,-40.222
1.246,0.363,-0.222,38.818,-41.748,-45.044
1.129,0.369,-0.213,48.706,-52.368,-49.072
1.095,0.359,-0.169,57.068,-55.054,-48.096
0.962,0.338,-0.136,62.744,-54.321,-43.091
0.866,0.312,-0.089,65.613,-47.241,-36.133
0.802,0.285,-0.043,64.636,-33.630,-26.794
0.764,0.255,0.021,60.730,-15.076,-17.761
0.739,0.208,0.068,53.955,2.441,-9.644
0.752,0.182,0.123,45.349,17.456,-4.211
0.770,0.148,0.161,35.828,27.100,-0.793
0.799,0.116,0.193,25.757,31.067,0.061
0.827,0.103,0.213,15.381,29.724,-0.732
0.860,0.107,0.228,5.981,23.987,-2.136
0.873,0.113,0.221,-1.282,15.381,-2.502
0.879,0.126,0.204,-7.324,8.057,-2.869
0.875,0.148,0.165,-12.390,3.540,-3.235
0.864,0.177,0.140,-15.076,2.136,-3.235
0.880,0.219,0.123,-15.442,3.906,-2.991
0.873,0.238,0.105,-13.916,6.653,-2.075
0.864,0.220,0.078,-12.024,11.292,-1.404
0.809,0.188,0.069,-10.193,16.357,-2.625
0.812,0.143,0.102,-8.972,21.729,-6.836
1.325,0.388,0.127,-8.789,23.376,-10.742
0.992,0.151,0.152,-4.150,16.235,-1.404
1.089,0.206,0.154,-3.296,11.719,-2.319
1.132,0.173,0.161,-3.967,3.662,-1.221
1.043,0.197,0.159,-5.615,-1.587,-2.502
1.084,0.192,0.165,-7.263,-3.235,-1.770
1.000,0.196,0.169,-9.094,-2.625,-1.770
0.941,0.174,0.101,-11.292,-0.916,-1.709
0.982,0.249,0.109,-11.536,5.005,-2.136
1.170,0.187,0.159,-10.498,8.118,-0.305
1.065,0.252,0.099,-10.803,-1.099,-0.244
0.911,0.194,0.071,-9.338,-9.766,4.822
0.970,0.195,0.078,-9.521,-12.390,4.761
0.921,0.202,0.092,-9.827,-15.686,2.930
0.978,0.203,0.100,-10.681,-18.677,1.404
0.894,0.206,0.065,-11.414,-20.874,0.549
0.874,0.208,0.065,-10.315,-17.151,0.000
0.954,0.206,0.102,-8.850,-11.047,-0.305
0.926,0.206,0.113,-8.850,-9.521,-0.610
0.921,0.210,0.113,-8.911,-10.071,-0.488
0.951,0.203,0.109,-8.789,-10.193,0.000
0.960,0.194,0.101,-9.033,-10.132,-0.366
0.963,0.196,0.102,-9.277,-10.376,-0.854
0.968,0.205,0.103,-8.606,-10.132,-1.221
0.965,0.204,0.101,-7.629,-9.399,-1.282
0.956,0.200,0.110,-6.531,-7.996,-1.038
0.951,0.214,0.114,-5.859,-6.592,-0.610
0.939,0.215,0.117,-5.310,-4.944,0.183
0.928,0.208,0.118,-4.944,-3.235,0.610
0.934,0.200,0.117,-4.700,-1.831,0.122
0.937,0.216,0.117,-5.127,-0.671,-1.038
0.930,0.216,0.126,-4.944,0.366,-1.343
0.918,0.215,0.133,-4.456,0.916,-1.282
0.913,0.204,0.131,-5.188,0.122,-1.221
0.917,0.193,0.136,-6.104,-0.488,-1.587
0.901,0.206,0.141,-7.324,-0.977,-1.953
0.907,0.219,0.137,-8.484,-1.099,-1.831
0.945,0.214,0.126,-9.155,-0.305,-0.977
0.961,0.201,0.123,-9.521,0.549,0.061
0.950,0.205,0.115,-9.888,0.122,0.549
0.944,0.211,0.110,-9.399,0.122,1.221
0.963,0.208,0.116,-8.972,1.831,1.526
0.979,0.210,0.122,-8.911,3.418,0.916
1.000,0.202,0.123,-8.240,3.357,0.610
1.035,0.188,0.128,-8.118,2.075,0.549
1.042,0.191,0.129,-9.155,-0.427,0.183
1.031,0.197,0.131,-9.460,-3.052,-0.061
1.015,0.200,0.138,-9.338,-5.127,0.183
0.989,0.200,0.143,-9.033,-6.775,0.427
0.973,0.198,0.152,-8.606,-7.812,0.610
0.965,0.189,0.168,-8.789,-8.057,0.977
0.944,0.173,0.187,-9.644,-7.812,0.977
0.932,0.166,0.198,-11.597,-8.118,0.061
0.957,0.176,0.208,-14.587,-8.545,-0.977

1.153,-0.253,-1.301,83.923,-22.034,-17.761
1.166,-0.319,-1.490,101.990,-32.043,-22.034
1.191,-0.307,-1.651,123.474,-41.077,-26.611
1.187,-0.289,-1.746,154.602,-48.279,-30.579
1.207,-0.359,-1.809,193.665,-54.382,-32.593
1.249,-0.469,-1.936,235.046,-60.608,-34.973
1.251,-0.590,-2.042,274.719,-65.247,-35.522
1.240,-0.729,-2.138,311.951,-68.298,-34.302
1.243,-0.870,-2.183,344.543,-68.420,-32.898
1.227,-0.948,-2.130,371.704,-64.453,-31.372
1.219,-1.020,-2.015,397.827,-58.899,-30.212
1.241,-1.115,-1.858,423.889,-51.086,-30.273
1.251,-1.127,-1.585,447.510,-41.626,-28.381
1.250,-1.110,-1.314,472.961,-36.499,-23.804
1.211,-1.111,-1.036,500.305,-35.461,-17.944
1.161,-1.074,-0.681,526.733,-33.936,-10.315
1.094,-1.077,-0.392,555.664,-35.828,-1.465
1.005,-1.181,-0.216,583.008,-46.326,6.165
0.868,-1.343,-0.047,602.112,-58.533,11.353
0.749,-1.465,0.220,610.596,-65.918,15.198
0.705,-1.562,0.488,611.816,-70.740,21.362
0.561,-1.663,0.655,605.469,-74.768,30.823
0.325,-1.738,0.803,583.557,-72.876,37.231
0.103,-1.785,1.003,542.236,-57.800,39.185
-0.035,-1.738,1.121,481.262,-33.997,39.001
-0.021,-1.618,1.198,407.715,-2.563,33.936
0.203,-1.550,1.393,332.336,33.630,24.536
0.730,-1.876,2.144,260.071,48.218,13.855
1.133,-2.091,2.691,176.880,-2.502,2.686
0.727,-1.845,3.040,61.646,-98.022,-4.028
0.155,-1.167,2.040,-76.782,-145.386,-5.920
-0.076,-0.802,0.975,-141.479,-122.253,-19.409
0.069,-0.356,0.743,-119.812,-74.585,-22.278
0.565,-0.160,0.685,-85.693,-21.851,-25.818
1.021,-0.223,0.533,-58.167,10.620,-30.090
1.236,-0.189,0.367,-36.865,18.616,-24.902
1.265,-0.094,0.165,-18.127,3.601,-18.677
1.220,-0.030,0.066,0.061,-6.653,-15.686
1.200,0.043,0.035,13.611,-7.812,-14.404
1.190,0.101,0.006,22.522,-8.057,-11.353
1.164,0.106,-0.004,29.175,-8.423,-7.751
1.121,0.114,0.003,31.616,-9.033,-4.883
1.079,0.104,0.001,29.663,-9.888,-3.113
1.057,0.095,-0.006,25.574,-10.498,-2.625
1.042,0.091,-0.002,20.996,-11.169,-2.747
1.020,0.097,0.006,15.564,-12.207,-2.441
0.987,0.104,0.007,9.705,-14.038,-1.343
0.936,0.112,0.015,5.493,-15.564,1.099
0.874,0.102,0.014,2.930,-15.808,4.333
0.842,0.080,0.015,1.709,-12.878,6.714
0.841,0.062,0.039,2.136,-7.019,7.263
0.843,0.051,0.072,2.991,0.061,6.348
0.855,0.030,0.112,5.554,5.859,5.310
0.881,0.010,0.154,7.812,9.399,4.272
0.894,-0.004,0.201,9.094,10.559,3.479
0.878,-0.016,0.235,8.667,10.071,3.174
0.846,-0.025,0.245,7.019,9.338,2.197
0.809,-0.021,0.227,4.211,9.888,1.343
0.803,-0.017,0.205,1.831,13.306,1.282
0.826,0.009,0.201,0.000,18.799,0.793
0.885,0.024,0.225,-0.549,23.010,0.916
0.906,0.011,0.234,-1.099,22.034,1.587
0.969,0.054,0.232,-2.502,17.334,1.160
1.005,0.018,0.184,-5.005,11.292,2.930
1.028,0.024,0.163,-6.714,7.446,3.174
1.045,0.030,0.138,-7.141,4.883,2.441
1.016,0.049,0.117,-6.958,4.700,1.770
1.029,0.043,0.139,-6.104,7.446,1.709
1.025,0.055,0.139,-5.676,10.010,0.732
1.001,0.057,0.148,-6.226,11.597,0.488
1.039,0.033,0.122,-7.019,11.963,0.916
1.083,0.026,0.113,-7.202,11.169,0.183
1.097,0.027,0.105,-7.324,8.057,-0.671
1.064,0.041,0.092,-6.653,4.333,-1.099
1.071,0.043,0.097,-5.920,2.991,-0.793
1.085,0.033,0.089,-5.615,1.831,0.183
1.072,0.032,0.106,-5.310,0.427,0.427
1.057,0.046,0.107,-5.005,-1.648,0.610
1.016,0.040,0.111,-4.150,-2.808,1.892
0.976,0.034,0.103,-3.174,-2.319,2.686
0.972,0.020,0.107,-2.930,-0.183,3.052
0.971,0.016,0.124,-2.869,1.465,2.686
0.961,0.005,0.127,-3.235,0.854,2.014
0.984,0.004,0.132,-4.272,-0.549,1.282
0.981,0.012,0.131,-4.883,-2.625,0.549
0.946,0.021,0.116,-5.005,-5.005,0.000
0.941,0.025,0.112,-5.005,-4.944,0.000
0.947,0.030,0.114,-4.761,-3.418,-0.610
0.952,0.034,0.115,-4.333,-1.709,-1.160
0.969,0.034,0.115,-3.845,-0.610,-1.587
0.989,0.036,0.122,-3.357,0.610,-1.953
0.984,0.040,0.129,-2.441,0.916,-2.380
0.969,0.041,0.133,-2.319,1.038,-2.258
0.962,0.035,0.128,-2.319,1.465,-2.136
0.954,0.032,0.123,-3.052,2.563,-2.075
0.953,0.036,0.125,-3.784,4.028,-1.770
0.954,0.039,0.130,-4.089,5.005,-1.709
0.983,0.039,0.133,-4.639,5.066,-1.953
1.004,0.041,0.138,-5.188,4.578,-1.587
1.001,0.048,0.145,-5.310,3.418,-0.732
0.998,0.044,0.136,-5.615,1.770,0.488
1.000,0.037,0.133,-6.042,1.648,1.221
1.001,0.033,0.133,-6.836,1.648,1.404
1.011,0.029,0.136,-7.080,1.282,1.160
1.008,0.040,0.133,-7.568,0.122,0.427
0.993,0.049,0.118,-8.179,-1.404,-0.183
0.971,0.060,0.102,-7.996,-2.441,-0.549
0.965,0.057,0.093,-7.080,-2.136,-0.671
0.971,0.057,0.094,-5.920,-0.793,-1.099
0.975,0.060,0.102,-5.188,0.732,-1.465
0.973,0.061,0.111,-4.578,1.526,-1.221
0.966,0.057,0.120,-4.272,1.404,-0.366
0.953,0.052,0.131,-4.089,1.221,0.305
0.945,0.042,0.135,-4.517,1.648,0.610
0.962,0.028,0.142,-5.432,2.441,0.549
0.973,0.023,0.152,-6.836,3.296,0.793
0.983,0.016,0.163,-8.789,3.052,1.404
0.999,0.005,0.170,-10.925,2.380,1.709
1.004,0.002,0.179,-13.794,1.404,1.648

1.682,-0.278,-1.278,97.290,26.794,-13.550
1.872,-0.287,-1.464,118.225,14.771,-15.564
2.003,-0.329,-1.696,147.217,-1.831,-17.700
2.016,-0.358,-1.911,181.091,-15.808,-18.127
2.015,-0.411,-2.092,217.957,-20.508,-13.184
2.009,-0.474,-2.276,258.362,-21.606,-4.578
1.866,-0.472,-2.384,299.500,-21.179,10.437
1.571,-0.473,-2.449,339.600,-18.127,33.936
1.272,-0.597,-2.452,380.981,-7.141,57.312
1.105,-0.806,-2.325,419.617,12.390,70.740
1.000,-0.891,-1.998,449.524,36.316,70.190
0.922,-0.964,-1.622,478.149,57.861,60.730
0.917,-1.127,-1.269,509.705,72.876,44.373
1.008,-1.197,-0.786,540.039,77.454,25.574
1.107,-1.178,-0.324,576.172,62.317,9.827
1.045,-1.322,-0.124,616.333,23.376,-2.380
0.827,-1.590,0.080,638.489,-24.780,-10.803
0.650,-1.787,0.240,630.188,-67.810,-14.160
0.466,-1.754,0.362,595.276,-103.333,-7.874
0.221,-1.658,0.474,553.406,-120.483,2.380
0.007,-1.623,0.604,508.118,-115.662,9.766
-0.069,-1.587,0.753,454.102,-93.994,13.916
-0.077,-1.489,0.858,395.142,-59.753,19.653
0.005,-1.341,0.929,338.684,-20.752,25.452
0.155,-1.190,0.975,289.673,14.282,29.724
0.303,-1.094,1.013,251.282,39.795,33.936
0.476,-1.087,1.073,222.839,54.688,36.560
0.671,-1.122,1.214,198.608,56.458,32.959
0.925,-1.811,2.035,175.720,40.771,20.447
1.302,-1.836,3.549,118.835,-15.503,-19.897
0.716,-1.749,2.207,-18.616,-105.347,-17.944
0.185,-0.715,1.178,-95.520,-92.468,7.385
0.235,-0.225,0.856,-96.191,-40.649,1.648
0.733,-0.305,0.755,-73.669,7.080,-8.667
1.027,-0.223,0.577,-48.401,26.184,-5.676
1.039,-0.058,0.340,-26.245,15.076,0.854
1.000,0.014,0.178,-10.071,2.991,1.831
1.037,0.041,0.076,-1.404,-1.099,-1.038
1.121,0.104,0.012,3.540,-3.113,-3.967
1.176,0.168,-0.027,8.789,-7.935,-7.935
1.201,0.179,-0.053,15.625,-16.235,-12.634
1.226,0.183,-0.052,22.888,-25.085,-18.311
1.229,0.174,-0.067,29.053,-33.691,-22.583
1.222,0.172,-0.069,33.630,-38.208,-24.963
1.179,0.185,-0.069,35.583,-38.635,-23.682
1.119,0.200,-0.065,34.119,-35.583,-17.273
1.050,0.208,-0.067,30.396,-30.334,-7.507
0.983,0.212,-0.060,26.123,-22.766,3.052
0.921,0.198,-0.048,22.644,-14.221,13.428
0.861,0.177,-0.042,20.142,-6.226,21.606
0.813,0.143,-0.023,20.203,2.197,26.001
0.785,0.106,0.021,21.423,10.742,26.855
0.781,0.067,0.064,23.560,16.724,24.109
0.799,0.019,0.122,26.733,19.470,18.677
0.805,-0.034,0.200,29.358,17.944,11.169
0.828,-0.066,0.269,28.625,13.306,2.808
0.849,-0.069,0.324,24.048,8.118,-3.296
0.837,-0.051,0.337,15.442,4.517,-6.348
0.800,-0.012,0.295,6.531,5.066,-7.141
0.774,0.022,0.231,-0.122,10.742,-6.653
0.845,0.068,0.217,-2.808,20.508,-6.042
1.004,0.108,0.235,-3.052,25.330,-4.028
1.000,0.103,0.227,-2.869,19.592,-1.465
1.020,0.147,0.186,-1.770,10.620,1.709
0.993,0.112,0.157,-0.427,5.005,5.737
0.979,0.115,0.130,0.061,5.798,6.836
0.952,0.122,0.121,0.305,9.888,7.263
0.986,0.117,0.140,0.732,16.174,6.470
1.008,0.124,0.152,0.366,20.508,4.761
1.058,0.132,0.163,-0.732,21.423,4.089
1.151,0.115,0.175,-1.343,18.860,4.333
1.127,0.129,0.181,-1.648,11.841,3.113
1.079,0.141,0.152,-1.953,3.113,2.197
1.049,0.145,0.144,-1.587,-1.526,2.380
1.046,0.124,0.136,-1.892,-3.540,2.808
1.012,0.124,0.149,-2.686,-5.493,1.587
1.012,0.133,0.132,-3.235,-9.094,0.488
0.969,0.147,0.117,-2.808,-11.353,0.549
0.916,0.136,0.096,-1.770,-11.047,2.075
0.946,0.124,0.114,-0.549,-7.202,2.563
0.940,0.114,0.130,-0.305,-4.578,2.869
0.934,0.104,0.137,-0.671,-3.906,3.296
0.962,0.105,0.153,-0.671,-3.845,3.601
0.936,0.104,0.156,-1.038,-4.578,4.150
0.920,0.092,0.155,-1.892,-4.578,5.127
0.927,0.088,0.154,-2.991,-3.235,5.127
0.927,0.091,0.149,-4.395,-1.465,4.822
0.927,0.103,0.147,-5.310,-0.122,4.944
0.930,0.102,0.148,-5.981,0.916,5.005
0.938,0.097,0.145,-6.775,1.648,4.944
0.944,0.093,0.145,-8.179,1.648,4.761
0.947,0.092,0.135,-9.155,1.404,4.150
0.953,0.094,0.129,-10.376,1.831,3.479
0.951,0.100,0.128,-10.437,3.052,3.113
0.957,0.095,0.134,-10.010,4.761,2.869
0.970,0.094,0.139,-9.766,6.470,2.258
0.982,0.085,0.149,-9.033,7.080,1.831
0.979,0.080,0.162,-8.301,6.714,1.343
0.975,0.079,0.174,-7.935,5.920,0.854
0.955,0.074,0.179,-7.568,5.432,0.977
0.941,0.089,0.192,-7.812,6.226,1.343
0.976,0.073,0.194,-8.728,7.812,2.625
1.006,0.056,0.215,-10.315,9.094,3.357
1.000,0.062,0.220,-13.245,6.897,3.113
1.002,0.058,0.222,-17.700,3.113,2.686
1.018,0.058,0.212,-22.827,-0.916,1.892
1.016,0.070,0.199,-27.954,-4.272,1.282
0.996,0.076,0.183,-32.288,-6.714,1.160
0.985,0.080,0.166,-35.278,-7.629,1.343
0.984,0.091,0.155,-36.865,-7.263,1.343
0.979,0.098,0.148,-37.598,-5.798,1.404
0.971,0.105,0.141,-37.598,-4.333,1.465
0.965,0.117,0.135,-37.048,-2.197,1.770
0.967,0.128,0.123,-36.133,0.061,2.502
0.969,0.134,0.115,-34.912,2.563,3.479
0.969,0.136,0.113,-33.386,4.883,4.944
0.972,0.129,0.113,-32.410,6.104,6.042
0.992,0.125,0.112,-31.799,6.287,5.981
1.002,0.131,0.107,-31.555,4.944,5.249

0.932,-0.322,-1.665,3.052,243.958,-64.758
0.802,-0.434,-1.979,21.179,241.821,-73.486
0.712,-0.610,-2.268,47.424,246.826,-88.379
0.729,-0.777,-2.556,77.942,251.953,-109.436
0.743,-0.894,-2.712,109.131,250.488,-132.263
0.804,-1.009,-2.732,144.348,241.394,-158.936
0.891,-1.110,-2.762,182.922,219.116,-189.270
0.953,-1.189,-2.750,223.145,186.584,-214.539
0.940,-1.221,-2.676,262.451,147.278,-231.750
0.842,-1.209,-2.512,299.622,110.535,-244.141
0.740,-1.183,-2.329,332.886,83.618,-252.747
0.692,-1.131,-2.132,361.877,63.904,-258.057
0.554,-1.161,-2.045,389.587,54.810,-262.268
0.445,-1.200,-1.846,412.842,62.622,-263.855
0.607,-1.175,-1.523,432.068,79.285,-255.798
0.872,-1.151,-1.208,450.073,90.637,-238.770
1.137,-1.165,-0.823,462.830,91.370,-221.497
1.451,-1.166,-0.426,473.877,79.956,-213.013
1.710,-1.181,-0.115,484.619,49.805,-208.923
1.838,-1.197,0.159,491.760,2.075,-200.378
1.869,-1.203,0.372,493.042,-58.655,-187.073
1.661,-1.184,0.452,484.863,-125.061,-169.434
1.396,-1.157,0.541,465.332,-178.589,-150.330
1.232,-1.065,0.659,433.655,-213.013,-130.920
1.061,-0.968,0.707,396.790,-234.985,-110.535
0.919,-0.898,0.757,357.605,-246.643,-93.872
0.869,-0.809,0.884,317.566,-251.526,-82.947
1.003,-0.830,1.234,274.963,-259.644,-74.097
1.392,-0.911,1.742,217.285,-289.856,-59.814
1.482,-1.270,2.132,133.240,-339.355,-30.334
0.895,-1.224,1.924,32.593,-367.371,-1.343
0.029,-0.933,1.777,-37.842,-333.191,2.258
-0.414,-0.591,1.623,-77.881,-227.051,-11.963
0.125,-0.320,1.125,-85.999,-110.229,-20.996
0.671,-0.029,0.695,-65.491,-37.537,-15.137
0.874,0.135,0.326,-28.259,-10.315,-5.005
0.932,0.125,0.062,10.254,-7.324,7.324
0.960,0.080,-0.105,36.133,-11.841,16.296
0.933,0.107,-0.215,45.105,-19.165,17.700
0.885,0.201,-0.279,42.969,-23.987,11.597
0.888,0.275,-0.311,38.635,-25.879,1.831
0.952,0.318,-0.288,36.072,-25.513,-9.155
1.050,0.320,-0.241,34.790,-25.696,-18.066
1.128,0.292,-0.191,31.250,-27.466,-22.461
1.140,0.291,-0.140,25.635,-30.029,-22.156
1.103,0.288,-0.102,19.653,-31.189,-16.724
1.026,0.264,-0.073,14.465,-29.053,-8.606
0.943,0.242,-0.029,9.827,-23.071,-1.221
0.856,0.222,0.018,6.897,-15.015,4.822
0.800,0.179,0.048,4.272,-6.897,9.521
0.772,0.173,0.088,1.221,1.160,12.817
0.754,0.168,0.121,-1.282,8.362,14.160
0.768,0.157,0.144,-2.441,13.000,13.306
0.807,0.155,0.141,-2.991,13.855,10.376
0.833,0.175,0.136,-3.479,12.085,6.226
0.841,0.191,0.119,-2.502,9.338,2.197
0.859,0.208,0.083,-1.160,8.179,-1.343
0.897,0.230,0.065,-0.366,9.399,-4.089
0.940,0.249,0.045,0.122,10.071,-5.493
0.964,0.265,0.032,0.305,9.521,-6.104
1.002,0.285,0.029,0.244,8.423,-6.042
1.025,0.286,0.029,0.122,6.897,-5.127
1.050,0.291,0.029,-0.549,4.944,-3.540
1.069,0.314,0.018,-1.465,3.113,-1.831
1.057,0.310,-0.000,-1.343,0.061,2.747
1.014,0.306,0.000,-0.488,-2.502,7.141
0.974,0.295,0.008,1.404,-3.662,8.240
0.957,0.301,0.017,3.296,-3.113,6.592
0.957,0.258,0.039,4.028,-0.916,5.859
0.919,0.275,0.043,3.540,0.366,4.639
0.914,0.256,0.021,2.991,3.113,4.822
0.966,0.262,0.055,2.319,7.690,4.211
1.046,0.240,0.072,1.587,9.033,2.930
1.049,0.251,0.069,1.160,3.967,2.258
1.051,0.245,0.051,0.000,-3.479,4.211
1.024,0.252,0.045,-0.549,-9.460,4.517
1.009,0.256,0.040,-0.305,-13.428,2.869
0.999,0.240,0.037,0.183,-16.907,1.221
0.973,0.245,0.036,-0.366,-20.020,0.793
0.943,0.237,0.028,-0.793,-21.729,0.854
0.918,0.239,0.027,-1.465,-21.423,0.488
0.896,0.237,0.031,-1.831,-19.348,-0.183
0.885,0.233,0.037,-2.258,-16.846,-0.244
0.875,0.237,0.033,-2.625,-14.099,0.183
0.873,0.244,0.028,-2.930,-11.108,1.038
0.882,0.244,0.032,-2.197,-8.179,1.648
0.892,0.238,0.047,-1.892,-4.822,2.258
0.906,0.228,0.062,-2.075,-2.197,2.502
0.919,0.224,0.073,-3.357,-0.427,2.014
0.941,0.220,0.080,-5.249,0.977,0.732
0.960,0.219,0.094,-6.897,1.770,-1.099
0.983,0.215,0.107,-8.911,1.465,-2.441
1.005,0.213,0.114,-11.536,0.183,-3.052
1.016,0.226,0.119,-13.794,-2.136,-3.357
1.024,0.232,0.121,-15.259,-5.066,-3.418
1.022,0.236,0.123,-16.113,-8.240,-3.296
1.013,0.235,0.116,-16.418,-11.658,-3.235
1.009,0.238,0.111,-17.273,-14.648,-3.235
1.014,0.243,0.112,-18.494,-17.212,-2.991
1.021,0.234,0.106,-19.104,-20.447,-1.892
1.020,0.231,0.104,-20.874,-23.560,-0.488
1.001,0.235,0.096,-23.315,-26.367,0.183
0.995,0.235,0.085,-23.987,-29.053,0.305
0.981,0.256,0.079,-23.865,-29.846,-0.244
0.973,0.267,0.073,-23.376,-29.724,-0.061
0.957,0.267,0.068,-21.667,-28.503,0.977
0.944,0.261,0.073,-19.531,-26.978,1.831
0.933,0.261,0.085,-18.372,-24.414,1.892
0.928,0.252,0.103,-17.456,-21.912,1.526
0.944,0.236,0.132,-17.517,-19.897,1.404
0.971,0.209,0.158,-19.470,-20.081,2.075
0.986,0.210,0.191,-23.437,-23.193,3.113
0.984,0.198,0.201,-28.564,-28.137,4.395
0.969,0.195,0.208,-34.424,-33.020,4.822
0.952,0.206,0.213,-39.368,-36.255,3.967
0.946,0.208,0.210,-43.335,-37.781,2.136
0.944,0.212,0.211,-46.631,-37.720,0.427
0.936,0.210,0.210,-49.622,-37.109,-0.977
0.927,0.207,0.211,-52.307,-35.950,-1.709

1.481,-0.296,-1.340,94.116,30.151,-20.142
1.542,-0.377,-1.617,121.338,19.287,-25.024
1.605,-0.442,-1.860,154.358,10.803,-30.823
1.726,-0.558,-2.078,195.740,6.470,-36.926
1.855,-0.698,-2.190,243.896,10.254,-42.480
1.992,-0.836,-2.181,291.870,20.691,-42.175
2.131,-0.953,-2.158,337.402,24.963,-36.011
