aX,aY,aZ,gX,gY,gZ
1.849,0.050,-0.974,68.604,27.771,-24.292
1.861,0.038,-1.083,106.201,33.386,-13.733
1.900,-0.037,-1.166,148.987,45.837,0.916
1.961,-0.141,-1.189,193.054,59.631,18.311
1.958,-0.206,-1.169,237.671,70.984,35.522
1.932,-0.280,-1.090,282.654,79.224,52.185
1.905,-0.377,-0.982,328.247,83.923,64.453
1.805,-0.442,-0.835,371.033,87.097,72.083
1.658,-0.490,-0.645,409.851,90.088,78.308
1.540,-0.550,-0.461,444.214,90.393,83.984
1.436,-0.579,-0.287,474.976,85.693,87.219
1.325,-0.570,-0.090,504.272,79.102,88.196
1.224,-0.621,0.051,534.546,68.542,88.806
1.109,-0.717,0.156,562.195,55.908,87.402
0.978,-0.862,0.188,583.374,45.532,83.557
0.847,-1.012,0.222,590.332,38.635,78.125
0.756,-1.122,0.353,584.717,39.612,72.266
0.652,-1.162,0.430,566.040,42.358,70.374
0.534,-1.142,0.435,537.231,44.006,68.481
0.454,-1.149,0.500,498.596,49.988,63.721
0.417,-1.136,0.599,449.402,61.096,58.228
0.418,-1.045,0.697,391.785,74.158,52.795
0.428,-0.958,0.784,331.604,84.839,50.293
0.489,-0.890,0.871,272.156,92.346,51.147
0.555,-0.831,0.983,218.201,93.018,52.734
0.484,-0.740,1.022,170.471,83.923,49.622
0.399,-0.655,1.016,133.850,72.632,41.138
0.308,-0.719,1.030,105.042,70.435,32.715
0.222,-0.819,1.100,74.646,86.426,20.874
0.346,-0.833,1.312,40.588,114.502,7.996
0.613,-0.713,1.419,1.221,124.023,-2.686
0.974,-0.491,1.274,-39.612,109.558,-4.944
1.107,-0.240,0.946,-67.383,79.590,-0.183
1.061,-0.087,0.641,-73.914,50.781,5.005
1.031,0.004,0.397,-64.636,30.090,6.958
1.048,0.070,0.242,-50.110,19.043,4.822
1.059,0.092,0.125,-34.668,14.221,1.038
1.067,0.142,0.053,-20.874,12.207,-4.272
1.095,0.178,0.027,-9.460,11.475,-10.193
1.106,0.193,0.024,0.671,10.010,-15.076
1.103,0.194,0.027,7.812,5.859,-18.005
1.085,0.192,0.032,12.207,1.343,-19.165
1.053,0.178,0.000,13.062,-1.648,-18.005
1.022,0.182,-0.033,8.301,-2.625,-14.587
0.978,0.193,-0.062,1.648,-0.916,-8.728
0.919,0.206,-0.089,-5.920,3.967,-2.502
0.895,0.221,-0.109,-13.611,11.719,4.272
0.906,0.218,-0.124,-19.531,19.836,10.803
0.958,0.200,-0.124,-22.217,26.672,15.442
1.016,0.196,-0.110,-21.606,30.334,16.296
1.056,0.184,-0.071,-16.357,29.968,15.015
1.095,0.167,-0.035,-8.484,24.780,11.719
1.127,0.150,0.000,-0.488,16.602,7.141
1.094,0.088,0.025,6.470,7.324,2.991
1.131,0.152,0.031,11.780,-1.831,-1.709
1.122,0.128,0.052,15.869,-9.094,-1.343
1.007,0.082,0.052,16.418,-16.052,-0.122
0.936,0.073,0.009,14.160,-19.836,0.305
1.107,0.113,0.039,10.803,-15.503,1.770
1.053,0.028,0.079,7.385,-12.390,5.920
0.890,0.078,0.047,0.732,-16.846,3.845
1.037,0.106,0.080,-2.747,-12.695,5.920
0.975,0.082,0.061,-4.944,-12.939,8.362
0.903,0.065,0.075,-6.104,-10.803,8.545
1.002,0.106,0.075,-5.737,-6.287,7.019
0.975,0.073,0.101,-3.845,-1.343,7.568
0.943,0.078,0.087,-3.296,0.305,7.202
0.936,0.068,0.093,-2.380,1.831,7.019
0.954,0.075,0.099,-2.075,2.991,5.554
0.956,0.065,0.117,-1.587,2.869,3.845
0.956,0.057,0.129,-2.380,1.404,2.075
0.974,0.056,0.145,-3.662,-0.793,0.244
0.993,0.038,0.175,-5.493,-3.723,-0.793
1.006,0.023,0.194,-8.972,-7.568,-1.343
1.027,0.021,0.206,-13.367,-11.536,-2.380
1.037,0.022,0.220,-18.127,-15.320,-3.174
1.020,0.026,0.219,-22.705,-18.433,-3.235
1.001,0.032,0.214,-27.710,-20.020,-2.625
0.983,0.038,0.199,-32.715,-19.226,-1.221
0.961,0.038,0.184,-38.635,-15.686,0.549
0.950,0.036,0.168,-44.556,-10.010,2.686
0.959,0.041,0.162,-51.331,-3.662,4.761
0.955,0.037,0.155,-58.594,2.380,6.958
0.994,0.048,0.142,-65.308,7.568,7.874
0.963,-0.001,0.158,-70.801,11.414,7.996
1.082,0.046,0.150,-76.111,11.536,5.676
1.076,0.054,0.159,-77.698,8.179,5.798
1.060,0.091,0.138,-77.942,0.061,5.859
1.132,0.062,0.149,-77.820,-8.423,7.629
1.087,0.062,0.113,-78.491,-19.470,7.568
1.059,0.084,0.072,-79.773,-28.748,7.629
1.058,0.090,0.041,-81.665,-34.790,8.850
1.026,0.097,0.004,-83.313,-38.147,9.827
1.002,0.109,-0.028,-85.022,-37.720,10.437
1.000,0.127,-0.056,-86.182,-34.912,10.498
1.011,0.146,-0.061,-85.754,-31.372,10.986
1.019,0.162,-0.062,-83.191,-28.503,11.353
1.025,0.175,-0.063,-78.613,-26.306,11.597
1.035,0.192,-0.049,-72.510,-25.024,11.719
1.036,0.202,-0.035,-64.819,-25.146,12.329
1.009,0.190,-0.040,-56.885,-26.428,12.817
0.977,0.179,-0.039,-49.988,-25.635,13.367
0.948,0.173,-0.039,-44.556,-22.278,13.855
0.913,0.161,-0.042,-41.870,-17.334,14.648
0.889,0.143,-0.041,-42.664,-11.047,15.503
0.886,0.138,-0.023,-46.448,-4.150,15.625
0.924,0.149,0.003,-51.270,1.465,14.832
0.978,0.149,0.040,-55.847,3.052,13.794
0.995,0.147,0.067,-59.265,-0.977,12.024
0.994,0.152,0.086,-61.890,-8.850,10.254
0.983,0.151,0.094,-63.477,-18.433,8.789
0.975,0.142,0.093,-64.392,-27.771,7.202
0.988,0.140,0.098,-64.270,-35.278,4.944
0.985,0.169,0.094,-63.232,-41.626,2.441
0.917,0.162,0.084,-60.913,-45.471,1.953
0.918,0.163,0.078,-58.411,-45.288,0.977
0.926,0.175,0.087,-56.274,-40.466,0.427
0.914,0.179,0.086,-54.504,-33.691,0.549
0.911,0.165,0.087,-53.345,-26.062,0.977

1.392,-0.167,-1.224,188.416,6.958,-18.555
1.448,-0.221,-1.219,217.224,10.437,-16.602
1.492,-0.302,-1.179,249.390,16.235,-12.939
1.515,-0.360,-1.072,281.311,25.085,-7.690
1.504,-0.410,-0.946,312.744,33.691,-2.014
1.441,-0.441,-0.810,342.407,40.405,4.456
1.368,-0.467,-0.668,369.873,46.204,12.207
1.322,-0.497,-0.535,394.470,49.622,20.996
1.289,-0.534,-0.396,417.603,48.096,29.053
1.252,-0.567,-0.261,439.392,42.236,35.400
1.239,-0.570,-0.112,462.158,34.546,40.588
1.250,-0.584,0.071,487.915,25.574,44.250
1.249,-0.670,0.216,513.733,11.963,46.143
1.187,-0.832,0.237,531.372,-5.005,46.814
1.095,-0.991,0.245,533.142,-18.127,45.044
0.973,-1.051,0.364,519.287,-21.240,42.603
0.832,-1.005,0.469,491.882,-18.372,45.044
0.720,-0.963,0.537,454.590,-9.155,50.598
0.610,-0.905,0.591,411.682,9.338,55.847
0.524,-0.830,0.636,367.126,32.715,60.913
0.517,-0.762,0.668,323.669,55.847,65.125
0.549,-0.711,0.671,283.325,76.477,66.895
0.595,-0.664,0.657,247.498,93.384,66.711
0.645,-0.606,0.630,215.759,105.286,63.171
0.707,-0.566,0.598,187.927,111.755,57.007
0.812,-0.556,0.594,164.734,112.244,48.340
0.869,-0.525,0.632,145.264,104.065,35.706
0.788,-0.538,0.649,127.563,88.684,21.301
0.690,-0.576,0.721,107.544,79.224,8.362
0.708,-0.560,0.807,80.078,85.999,-1.526
0.902,-0.539,0.975,51.636,92.468,-9.094
1.083,-0.402,1.016,21.851,82.336,-12.024
1.207,-0.300,0.921,-4.761,60.913,-6.287
1.177,-0.210,0.693,-24.292,38.574,0.671
1.060,-0.084,0.479,-32.471,22.095,4.578
1.014,0.010,0.290,-30.518,12.512,5.615
1.015,0.069,0.177,-22.034,8.240,5.249
1.007,0.115,0.093,-11.475,4.639,3.052
1.003,0.138,0.024,-2.258,1.465,-0.427
1.002,0.159,-0.032,5.066,-1.099,-3.723
1.000,0.180,-0.070,10.437,-3.540,-6.042
0.993,0.198,-0.091,15.015,-5.554,-7.385
0.993,0.196,-0.085,18.433,-6.836,-7.507
0.995,0.184,-0.065,20.630,-7.874,-7.202
0.982,0.180,-0.043,21.057,-8.545,-7.080
0.974,0.171,-0.025,20.630,-9.399,-6.653
0.945,0.168,-0.019,19.348,-9.705,-6.042
0.911,0.166,-0.006,17.761,-8.301,-5.127
0.901,0.155,0.006,15.320,-5.310,-3.296
0.900,0.144,0.009,12.634,-2.258,-1.648
0.904,0.138,0.017,10.376,0.977,-0.061
0.924,0.138,0.033,8.057,3.845,1.282
0.951,0.134,0.047,6.470,4.761,2.075
0.958,0.127,0.058,5.127,4.578,2.380
0.958,0.117,0.061,4.028,3.357,2.197
0.991,0.117,0.070,3.235,1.526,1.282
1.047,0.132,0.088,2.747,-0.244,0.732
1.015,0.114,0.072,2.869,-3.723,1.160
0.988,0.110,0.052,2.136,-6.226,0.793
1.012,0.145,0.036,1.526,-6.775,0.854
1.012,0.152,0.043,2.625,-4.883,2.930
0.980,0.138,0.048,4.150,-2.991,4.700
0.973,0.134,0.055,5.188,-1.160,5.066
0.974,0.124,0.077,6.104,1.160,4.883
0.981,0.111,0.104,7.385,2.991,4.089
1.003,0.092,0.124,8.240,2.747,2.991
1.033,0.084,0.151,8.728,1.038,1.038
1.056,0.080,0.186,9.949,-2.197,-1.221
1.064,0.063,0.195,10.925,-6.958,-2.991
1.062,0.047,0.167,9.216,-12.329,-4.700
1.056,0.059,0.136,5.371,-16.602,-6.531
1.048,0.082,0.111,0.671,-19.409,-7.629
1.034,0.096,0.091,-3.784,-21.545,-7.385
1.019,0.109,0.078,-7.141,-23.071,-6.104
1.009,0.119,0.071,-9.949,-23.682,-4.395
1.004,0.119,0.065,-11.902,-23.804,-3.235
0.984,0.119,0.054,-12.939,-23.560,-2.563
0.972,0.123,0.044,-13.855,-21.362,-2.136
0.966,0.125,0.044,-14.343,-17.456,-1.282
0.941,0.125,0.042,-14.160,-13.672,-0.610
0.920,0.131,0.036,-13.916,-9.460,-0.427
0.919,0.132,0.031,-13.916,-4.639,-0.122
0.904,0.123,0.017,-13.367,-0.061,-0.183
0.925,0.112,0.000,-14.160,4.150,-1.526
0.953,0.150,-0.019,-15.991,6.531,-3.113
0.952,0.167,-0.029,-16.235,8.118,-2.319
0.925,0.167,-0.039,-15.503,9.888,0.732
0.898,0.147,-0.026,-14.709,12.024,3.296
1.086,0.234,0.016,-13.245,12.329,1.648
1.068,0.064,0.002,-11.047,6.165,2.686
0.997,0.175,-0.001,-8.728,-0.183,-2.930
1.026,0.114,0.063,-3.113,-1.831,-2.502
0.951,0.104,-0.001,0.122,-6.897,-5.554
0.994,0.097,0.099,2.930,-5.615,-8.484
0.993,0.127,0.093,3.906,-7.507,-11.475
0.968,0.122,0.099,3.845,-11.230,-10.742
0.973,0.108,0.125,4.211,-12.207,-7.996
0.981,0.078,0.129,3.174,-13.367,-6.348
0.964,0.106,0.145,0.732,-12.695,-6.958
0.940,0.085,0.137,-1.648,-11.963,-5.432
0.944,0.070,0.137,-4.517,-9.583,-5.127
0.911,0.100,0.131,-7.507,-6.042,-7.202
0.882,0.104,0.124,-8.850,-0.305,-6.714
0.875,0.094,0.119,-9.155,7.080,-5.005
0.998,0.111,0.137,-9.705,14.526,-3.662
1.007,0.072,0.150,-9.644,17.578,-2.930
0.966,0.075,0.141,-10.864,16.174,-4.089
1.139,0.092,0.171,-12.756,13.611,-4.517
1.038,0.073,0.163,-14.526,5.249,-3.967
1.016,0.071,0.135,-17.273,-5.066,-4.395
1.065,0.105,0.126,-19.348,-10.376,-4.517
0.995,0.047,0.111,-21.179,-13.977,-3.296
1.006,0.097,0.089,-25.024,-15.198,-4.944
1.011,0.093,0.102,-28.198,-14.221,-5.066
0.972,0.084,0.085,-30.701,-14.832,-4.456
0.987,0.084,0.074,-32.593,-14.526,-4.028
0.973,0.081,0.070,-33.875,-13.062,-3.906
0.977,0.097,0.060,-33.691,-11.047,-3.662
0.980,0.085,0.055,-32.593,-7.812,-2.441

1.262,-0.377,1.085,-21.362,130.798,1.343
1.319,-0.199,0.897,-40.466,94.238,7.690
1.237,-0.112,0.647,-44.983,53.772,14.221
1.123,-0.031,0.434,-42.542,24.536,16.541
1.010,0.040,0.267,-36.194,9.949,14.099
0.988,0.100,0.139,-28.564,5.676,8.545
1.016,0.168,0.062,-20.691,5.798,2.136
1.019,0.201,-0.007,-12.085,6.653,-3.052
1.061,0.278,-0.057,-4.700,7.141,-8.179
1.015,0.216,-0.118,2.747,6.958,-8.972
0.930,0.289,-0.151,8.728,10.559,-12.268
1.057,0.269,-0.072,13.062,17.151,-10.071
1.075,0.211,-0.086,13.855,15.015,-5.981
1.014,0.215,-0.083,13.428,9.033,-6.226
0.978,0.223,-0.026,13.611,5.859,-5.737
0.946,0.178,-0.008,12.573,2.380,-3.174
0.938,0.161,0.019,10.742,1.038,-1.648
0.931,0.126,0.082,9.399,2.502,-0.305
0.898,0.096,0.110,6.714,2.869,-0.488
0.951,0.109,0.135,3.418,3.540,-0.916
0.993,0.102,0.163,1.343,4.944,0.366
0.969,0.093,0.153,-0.427,4.211,2.136
0.965,0.104,0.140,-1.343,3.479,4.211
0.965,0.094,0.128,-1.099,3.235,5.920
0.997,0.100,0.114,-0.244,3.479,5.554
1.005,0.100,0.093,0.610,2.319,4.578
1.012,0.109,0.080,0.977,0.000,3.967
1.005,0.115,0.079,2.197,-2.075,3.235
1.013,0.113,0.069,3.418,-3.906,2.686
1.018,0.110,0.057,3.723,-5.554,2.075
1.012,0.119,0.055,3.906,-6.653,1.648
1.000,0.121,0.055,3.967,-7.690,1.709
0.997,0.120,0.040,3.113,-8.545,2.075
0.994,0.124,0.032,1.709,-8.423,2.808
0.989,0.126,0.039,0.488,-7.751,3.479
0.987,0.119,0.053,0.061,-7.019,3.784
0.984,0.112,0.058,0.244,-7.019,3.723
0.983,0.104,0.046,-0.427,-6.897,3.418
0.985,0.105,0.044,-0.671,-6.531,3.052
0.988,0.101,0.056,0.183,-5.737,2.747
0.988,0.094,0.072,1.038,-5.554,2.747
0.988,0.090,0.083,1.770,-5.615,2.380
0.991,0.088,0.088,2.075,-5.981,1.831
0.997,0.091,0.080,2.075,-6.470,0.732
0.988,0.096,0.076,2.319,-7.080,0.305
0.980,0.096,0.078,2.991,-6.958,0.122
0.974,0.099,0.068,2.441,-6.165,0.122
0.959,0.099,0.061,1.770,-5.005,0.427
0.947,0.099,0.058,0.671,-3.174,0.244
0.944,0.099,0.049,-0.916,-1.709,-0.244
0.959,0.139,0.025,-2.136,-0.427,-0.916
0.963,0.120,0.043,-1.282,2.808,1.526
0.890,0.072,0.048,-1.160,4.333,1.648
1.112,0.204,0.114,-1.404,4.761,0.122
1.056,0.051,0.011,-0.610,-1.404,2.502
0.955,0.134,0.071,-0.366,-3.601,-1.343
1.042,0.113,0.088,0.916,-3.540,-1.526
1.041,0.131,0.101,-0.122,-5.615,-3.235
1.003,0.113,0.102,-0.549,-8.911,-1.953
0.962,0.115,0.082,-0.916,-11.414,-0.793
0.973,0.132,0.092,-1.099,-9.216,0.183
0.971,0.099,0.117,-1.648,-7.019,1.343
0.957,0.115,0.105,-3.235,-7.324,-0.122
0.941,0.133,0.083,-4.028,-6.287,-0.549
0.911,0.116,0.087,-3.540,-1.953,1.160
0.968,0.124,0.114,-3.479,2.808,1.770
0.988,0.139,0.131,-3.906,2.930,1.770
1.001,0.062,0.118,-4.761,-1.404,2.136
0.948,0.105,0.104,-7.629,-5.859,-2.136
0.991,0.145,0.083,-9.827,-7.935,-4.211
0.985,0.126,0.090,-9.766,-8.057,-3.357
0.938,0.126,0.085,-9.399,-10.071,-1.831
0.949,0.110,0.087,-9.155,-11.292,-0.977
1.023,0.134,0.073,-9.399,-11.108,-0.549
0.988,0.100,0.060,-8.301,-10.376,0.916
0.997,0.124,0.060,-8.423,-9.521,0.671
1.000,0.124,0.053,-7.812,-8.118,1.038
0.974,0.130,0.051,-7.812,-7.141,0.793
0.979,0.139,0.047,-7.141,-5.737,1.282
0.978,0.107,0.053,-5.920,-3.967,2.319
0.964,0.162,0.059,-5.432,-2.747,1.465
0.967,0.138,0.067,-4.089,-1.404,2.808
0.958,0.124,0.079,-3.357,-0.549,2.747
0.985,0.124,0.089,-4.028,-1.038,1.892
0.986,0.120,0.089,-4.272,-1.465,0.854
0.975,0.115,0.090,-4.333,-1.953,0.427
0.970,0.113,0.098,-4.517,-2.136,-0.244
0.958,0.112,0.104,-4.517,-1.587,-0.916
0.963,0.110,0.112,-4.944,-0.610,-1.465
1.001,0.129,0.122,-5.066,0.244,-1.831
0.986,0.108,0.129,-5.005,-0.305,-0.671
0.985,0.101,0.123,-5.066,-1.587,-0.244
0.971,0.105,0.119,-4.944,-2.319,-0.305
0.969,0.106,0.122,-4.639,-0.732,0.183
0.981,0.098,0.142,-4.028,2.014,0.793
0.989,0.103,0.144,-3.906,3.479,1.160
0.974,0.094,0.145,-4.578,4.089,1.892
0.979,0.089,0.149,-5.798,4.395,1.892
0.981,0.095,0.148,-7.751,3.357,1.282
0.962,0.088,0.147,-10.315,2.136,0.610
0.981,0.100,0.140,-13.306,0.488,-0.916
1.029,0.111,0.149,-15.930,-1.526,-1.526
1.024,0.105,0.146,-17.578,-6.531,-1.038
1.009,0.100,0.140,-19.226,-12.634,-0.916
1.012,0.109,0.141,-20.020,-17.395,-1.038
1.016,0.117,0.137,-20.447,-21.057,-0.671
0.998,0.110,0.141,-19.897,-23.987,-0.366
0.983,0.110,0.138,-19.409,-24.902,-0.610
0.970,0.116,0.134,-19.165,-23.499,-1.038
0.953,0.121,0.137,-18.921,-20.691,-0.977
0.953,0.120,0.143,-19.470,-17.395,-0.122
0.953,0.114,0.135,-20.691,-14.221,1.404
0.954,0.101,0.148,-22.156,-10.803,1.892
0.969,0.116,0.147,-24.658,-8.789,1.160
0.987,0.103,0.173,-26.794,-7.996,1.099
0.990,0.111,0.163,-30.090,-9.766,0.610
0.985,0.100,0.162,-33.264,-12.390,0.671
0.963,0.099,0.152,-35.583,-14.587,0.366
0.954,0.107,0.151,-36.560,-15.808,0.061

1.161,-0.318,1.028,18.982,108.765,-12.268
1.264,-0.148,0.805,-6.226,88.928,-10.071
1.238,-0.038,0.528,-15.869,67.505,-6.226
1.281,0.031,0.422,-16.174,49.805,-6.226
1.250,0.063,0.198,-13.306,29.114,-8.667
1.093,0.245,0.104,-5.676,12.634,-10.559
1.122,0.162,0.037,3.784,1.465,-6.226
1.241,0.237,-0.073,7.629,-6.897,-10.315
1.198,0.238,-0.101,10.132,-15.625,-11.353
1.062,0.251,-0.129,10.925,-26.489,-14.343
1.051,0.273,-0.151,12.268,-36.377,-15.625
1.028,0.284,-0.134,14.526,-42.908,-15.808
0.970,0.257,-0.113,17.273,-47.485,-15.930
0.915,0.259,-0.090,19.958,-49.255,-17.395
0.909,0.256,-0.059,22.705,-46.814,-17.639
0.878,0.244,-0.037,24.658,-40.894,-16.479
0.846,0.235,-0.038,24.902,-35.217,-13.489
0.806,0.222,-0.043,24.902,-27.100,-9.033
0.798,0.196,-0.032,23.071,-15.381,-4.822
0.808,0.198,-0.019,19.043,-4.028,-2.380
0.810,0.197,0.001,14.648,5.676,-0.610
0.828,0.190,0.012,10.742,11.963,0.610
0.856,0.182,0.026,8.118,15.259,0.549
0.870,0.171,0.047,7.019,16.724,-0.305
0.928,0.161,0.075,7.080,16.418,-1.892
1.003,0.163,0.112,8.179,13.489,-2.991
0.975,0.134,0.122,9.033,7.568,-2.686
1.012,0.164,0.124,8.850,1.343,-3.052
0.999,0.156,0.105,9.094,-3.662,-2.380
0.979,0.143,0.090,8.606,-5.554,-1.770
0.972,0.147,0.066,6.775,-5.859,-1.831
0.978,0.160,0.061,4.700,-3.357,-1.892
0.990,0.173,0.038,2.319,0.000,-1.404
1.002,0.168,0.038,1.160,3.906,0.000
1.040,0.166,0.038,0.732,6.348,1.038
1.049,0.163,0.034,0.549,6.165,1.343
1.065,0.174,0.026,1.099,4.883,0.977
1.070,0.175,0.030,2.747,3.235,0.916
1.070,0.173,0.033,3.235,0.305,1.038
1.050,0.163,0.045,3.479,-3.906,0.854
1.030,0.165,0.047,3.235,-8.057,-0.183
0.997,0.169,0.042,2.991,-12.024,-0.977
0.965,0.167,0.035,3.052,-13.855,-1.526
0.954,0.173,0.041,3.418,-13.855,-1.709
0.955,0.183,0.040,3.357,-12.268,-0.916
0.943,0.171,0.036,3.174,-9.888,0.732
0.924,0.164,0.034,2.319,-6.897,1.892
0.919,0.163,0.036,1.465,-3.784,2.075
0.922,0.160,0.041,0.854,-0.793,1.404
0.952,0.167,0.035,-0.244,1.831,0.366
0.984,0.176,0.036,-0.793,3.845,0.244
0.972,0.174,0.037,-1.404,3.662,1.892
0.974,0.178,0.033,-1.892,1.892,3.845
0.986,0.158,0.039,-1.953,1.221,4.822
0.973,0.173,0.037,-2.930,0.427,3.662
0.960,0.174,0.042,-3.113,0.122,3.235
0.957,0.161,0.041,-3.601,-0.488,3.784
0.935,0.156,0.035,-4.761,-0.854,3.967
0.994,0.179,0.039,-6.165,0.183,1.587
0.986,0.175,0.051,-6.714,-0.061,1.038
0.954,0.158,0.046,-6.531,-2.319,0.671
0.982,0.175,0.046,-6.958,-4.028,-0.549
0.992,0.177,0.051,-7.202,-4.944,-0.183
0.978,0.181,0.043,-7.935,-6.287,0.854
0.959,0.174,0.028,-9.155,-7.202,2.075
0.964,0.173,0.015,-10.742,-7.019,1.770
0.960,0.182,0.005,-11.963,-7.690,0.916
0.957,0.185,-0.000,-12.268,-7.629,-0.061
0.966,0.178,0.001,-12.085,-7.019,-0.793
0.980,0.179,0.005,-11.841,-6.775,-2.197
0.993,0.191,0.006,-11.597,-7.996,-2.991
0.975,0.175,0.013,-10.742,-9.644,-2.991
0.979,0.175,0.011,-9.338,-11.902,-3.235
0.975,0.175,0.014,-7.935,-13.062,-3.174
0.952,0.163,0.018,-6.592,-13.306,-2.869
0.924,0.157,0.021,-5.493,-12.085,-2.686
0.906,0.152,0.029,-4.578,-9.216,-2.930
0.915,0.150,0.036,-4.272,-5.432,-3.235
0.941,0.149,0.058,-3.723,-1.526,-3.723
0.954,0.136,0.070,-3.784,1.282,-3.967
0.960,0.158,0.091,-4.150,2.502,-4.822
0.995,0.149,0.103,-3.723,2.686,-4.333
0.990,0.129,0.116,-3.906,1.526,-3.418
1.001,0.120,0.126,-4.944,0.183,-3.235
1.016,0.134,0.124,-6.897,-0.732,-3.479
1.010,0.134,0.121,-9.827,-0.977,-3.113
1.018,0.145,0.117,-12.146,-1.343,-2.808
1.025,0.152,0.116,-13.611,-2.014,-2.563
1.021,0.148,0.108,-14.038,-2.747,-2.502
1.026,0.156,0.110,-13.672,-3.357,-2.625
1.025,0.157,0.121,-13.184,-3.479,-2.441
1.025,0.140,0.125,-12.512,-3.479,-1.404
1.025,0.125,0.130,-12.329,-3.601,-0.854
1.038,0.119,0.141,-12.939,-4.028,-1.038
1.040,0.111,0.160,-13.550,-5.249,-0.977
1.028,0.106,0.175,-14.465,-7.751,-0.916
1.001,0.105,0.183,-16.174,-10.864,-1.282
0.969,0.104,0.183,-18.127,-13.916,-1.404
0.940,0.103,0.184,-20.386,-15.930,-1.648
0.927,0.113,0.179,-22.461,-16.479,-2.563
0.925,0.125,0.170,-25.269,-15.625,-2.747
0.920,0.127,0.162,-27.771,-15.320,-2.136
0.915,0.131,0.152,-30.579,-16.052,-1.282
0.923,0.131,0.137,-33.325,-17.151,-0.549
0.927,0.138,0.115,-35.583,-18.860,-0.122
0.933,0.142,0.102,-36.133,-20.142,0.122
0.938,0.143,0.098,-35.400,-21.667,0.122
0.937,0.143,0.094,-34.058,-23.437,-0.488
0.938,0.141,0.095,-32.471,-24.475,-0.977
0.940,0.142,0.103,-31.189,-25.085,-1.465
0.945,0.144,0.113,-29.358,-25.574,-2.014
0.944,0.135,0.123,-28.503,-26.306,-2.380
0.944,0.127,0.129,-29.175,-27.344,-2.808
0.935,0.120,0.130,-30.518,-28.198,-3.113
0.936,0.115,0.121,-32.715,-28.809,-3.357
0.929,0.127,0.098,-34.912,-29.114,-3.418
0.937,0.145,0.087,-35.583,-28.381,-1.648
0.943,0.145,0.090,-35.522,-27.039,1.587
0.954,0.143,0.072,-36.255,-24.963,5.249

0.017,-2.408,3.686,158.691,170.044,24.658
0.821,-1.162,3.016,-43.396,198.120,5.249
1.496,-0.103,1.571,-144.470,166.382,16.663
1.231,0.123,0.643,-136.719,110.901,36.194
1.049,0.330,0.163,-82.153,64.819,36.377
0.918,0.464,0.097,-18.921,39.795,26.123
0.854,0.341,0.000,40.405,32.959,5.676
0.941,0.173,-0.049,76.904,33.508,-14.221
1.072,0.185,-0.003,82.458,32.959,-29.419
1.258,0.268,0.049,71.289,26.611,-35.278
1.372,0.327,0.043,55.481,11.475,-33.020
1.359,0.365,-0.022,40.649,-9.827,-27.100
1.302,0.401,-0.072,29.175,-30.273,-21.790
1.237,0.409,-0.086,23.376,-45.044,-17.578
1.149,0.403,-0.074,21.729,-54.321,-15.625
1.036,0.393,-0.017,21.667,-57.678,-13.855
0.940,0.373,0.055,22.827,-55.176,-11.475
0.867,0.345,0.122,23.682,-48.340,-8.728
0.825,0.333,0.171,24.475,-39.429,-6.409
0.805,0.327,0.198,25.696,-31.860,-4.272
0.786,0.313,0.179,26.855,-27.039,-2.747
0.771,0.298,0.146,26.001,-23.865,-1.953
0.768,0.311,0.112,24.414,-21.484,-2.563
0.781,0.321,0.075,22.644,-18.982,-3.357
0.803,0.334,0.041,20.752,-16.357,-4.333
0.822,0.346,0.032,19.104,-13.550,-5.615
0.834,0.354,0.039,18.005,-10.803,-5.554
0.841,0.345,0.043,16.663,-8.667,-5.005
0.849,0.342,0.059,15.259,-5.798,-4.028
0.872,0.337,0.080,13.306,-2.075,-2.502
0.867,0.331,0.088,11.841,0.977,-0.854
0.891,0.348,0.107,10.803,4.211,0.366
0.906,0.337,0.086,10.986,6.470,3.601
0.891,0.310,0.135,11.658,8.606,7.324
0.971,0.336,0.160,11.108,6.897,5.798
0.890,0.311,0.162,11.414,4.822,5.920
0.904,0.285,0.173,11.169,4.883,6.897
0.940,0.334,0.182,10.315,5.249,4.211
1.002,0.313,0.191,10.864,5.432,3.540
1.063,0.302,0.173,10.559,0.977,3.601
1.036,0.313,0.176,9.949,-4.639,2.869
1.031,0.340,0.167,9.216,-9.521,1.587
0.996,0.329,0.138,8.789,-13.916,2.502
0.963,0.340,0.126,8.118,-17.029,3.235
0.922,0.342,0.120,7.385,-17.639,3.540
0.891,0.337,0.116,7.263,-16.663,3.906
0.881,0.328,0.121,7.507,-14.709,4.211
0.873,0.318,0.133,7.812,-12.512,3.784
0.873,0.308,0.152,7.812,-10.498,3.296
0.870,0.303,0.168,8.179,-9.338,3.052
0.876,0.304,0.177,8.423,-8.362,2.869
0.888,0.301,0.175,9.583,-7.629,2.075
0.893,0.302,0.177,9.216,-6.775,1.648
0.891,0.312,0.175,8.728,-6.409,1.465
0.886,0.310,0.164,8.667,-5.676,1.587
0.890,0.309,0.158,8.423,-4.517,1.587
0.883,0.313,0.153,7.385,-2.747,2.380
0.870,0.316,0.146,6.348,-0.549,2.808
0.859,0.313,0.136,5.493,2.380,2.258
0.856,0.315,0.130,4.822,6.287,1.465
0.851,0.307,0.128,4.578,10.071,1.038
0.876,0.329,0.126,4.028,13.794,0.427
0.880,0.270,0.147,3.845,17.700,1.160
1.009,0.332,0.204,3.174,18.494,-0.610
1.038,0.272,0.247,3.723,13.916,1.709
0.974,0.255,0.207,2.625,4.150,3.235
0.951,0.301,0.232,-0.427,-0.732,3.296
0.903,0.286,0.207,-2.441,-0.977,2.747
0.943,0.313,0.229,-4.700,0.916,2.197
0.942,0.297,0.225,-7.385,0.671,3.662
0.953,0.283,0.199,-11.292,-1.404,4.883
0.928,0.304,0.178,-16.602,-3.723,4.517
0.884,0.313,0.144,-20.630,-5.920,4.883
0.853,0.334,0.129,-22.522,-5.737,4.456
0.869,0.347,0.128,-21.912,-3.967,3.662
0.914,0.334,0.121,-19.226,-3.479,3.296
0.922,0.330,0.112,-16.235,-5.249,2.197
0.913,0.333,0.086,-13.855,-7.385,0.671
0.911,0.343,0.073,-11.597,-7.996,-0.610
0.911,0.354,0.071,-9.216,-6.592,-0.610
0.900,0.349,0.057,-6.409,-4.700,0.305
0.872,0.337,0.048,-4.211,-1.770,0.793
0.858,0.347,0.057,-2.625,3.174,0.427
0.904,0.339,0.084,-0.549,8.423,0.427
1.035,0.335,0.136,1.221,10.559,-0.183
1.015,0.313,0.144,1.465,5.737,-0.061
1.009,0.319,0.159,1.038,-2.625,1.526
0.985,0.314,0.158,0.610,-8.911,3.052
1.006,0.332,0.136,-0.305,-10.681,2.808
0.960,0.323,0.133,-0.977,-9.460,2.991
0.982,0.322,0.144,-1.343,-9.644,3.052
0.971,0.329,0.162,-2.319,-8.972,2.441
0.954,0.319,0.183,-2.136,-8.972,1.770
0.948,0.309,0.199,-2.319,-10.193,1.099
0.921,0.292,0.216,-2.930,-11.292,0.244
0.911,0.288,0.234,-4.639,-11.841,-0.732
0.894,0.276,0.245,-6.409,-11.902,-1.587
0.891,0.281,0.252,-9.399,-11.414,-2.808
0.886,0.281,0.253,-11.841,-10.620,-3.479
0.885,0.281,0.259,-13.489,-9.888,-3.784
0.888,0.279,0.259,-15.381,-10.132,-4.211
0.892,0.278,0.260,-17.761,-10.559,-4.883
0.889,0.268,0.264,-19.897,-10.986,-5.798
0.878,0.256,0.272,-22.644,-11.169,-6.836
0.885,0.256,0.290,-26.672,-10.925,-8.240
0.895,0.252,0.313,-31.921,-11.047,-9.399
0.879,0.234,0.311,-37.659,-12.756,-10.925
0.852,0.237,0.312,-44.373,-13.733,-12.634
0.907,0.279,0.349,-50.964,-13.245,-13.977
0.884,0.227,0.330,-55.725,-15.015,-13.794
0.903,0.219,0.337,-60.974,-17.700,-14.648
0.932,0.253,0.357,-66.650,-20.996,-16.479
0.906,0.223,0.348,-70.557,-24.536,-16.235
0.882,0.188,0.328,-75.012,-28.625,-15.930
0.868,0.195,0.329,-81.360,-29.968,-17.761
0.880,0.211,0.346,-88.257,-30.029,-19.775
0.912,0.194,0.348,-94.421,-31.982,-20.630
0.938,0.188,0.342,-101.379,-36.621,-22.034
0.958,0.215,0.341,-108.032,-43.396,-23.743

1.482,-0.179,-0.863,258.667,82.520,49.072
1.443,-0.243,-0.852,272.827,90.027,56.641
1.393,-0.290,-0.810,288.269,98.328,63.965
1.292,-0.384,-0.770,306.213,106.567,69.885
1.228,-0.492,-0.696,324.097,115.417,72.998
1.204,-0.583,-0.581,341.248,126.038,72.205
1.193,-0.674,-0.457,358.215,135.498,67.871
1.210,-0.755,-0.322,372.864,142.212,63.904
1.215,-0.821,-0.196,384.033,144.165,63.904
1.182,-0.911,-0.105,391.235,142.151,64.880
1.147,-0.989,-0.030,393.982,140.564,64.148
1.082,-0.978,0.094,390.259,140.686,64.026
1.013,-0.921,0.248,385.803,139.526,65.247
0.936,-0.888,0.366,382.996,135.437,67.078
0.852,-0.870,0.483,381.897,129.944,68.481
0.595,-1.695,1.615,376.831,125.244,69.031
-1.549,-3.977,4.000,253.601,161.133,60.181
-2.372,-2.783,4.000,-74.646,313.599,-39.551
0.766,1.412,3.175,-283.264,379.700,-95.032
3.064,1.365,1.372,-210.388,323.059,-3.662
2.615,0.756,0.512,-64.636,209.595,20.813
1.910,0.651,0.553,19.348,78.552,3.784
1.781,0.373,0.141,75.562,-48.462,-1.465
1.642,0.084,-0.302,101.929,-139.954,-9.644
1.260,0.221,-0.460,93.079,-194.885,-26.001
1.078,0.309,-0.540,74.829,-223.206,-30.029
0.863,0.389,-0.412,59.204,-220.764,-29.785
0.760,0.349,-0.345,47.058,-196.228,-26.489
0.690,0.319,-0.309,36.072,-153.687,-24.048
0.789,0.412,-0.112,24.353,-100.891,-19.348
0.866,0.417,0.020,22.583,-60.242,-11.841
0.895,0.409,0.141,26.367,-37.354,-4.456
0.911,0.365,0.206,30.762,-29.602,2.869
0.863,0.327,0.222,32.471,-30.823,8.911
0.813,0.322,0.236,30.029,-35.217,13.000
0.718,0.247,0.167,25.269,-40.039,14.648
0.857,0.385,0.200,17.700,-40.344,13.123
0.783,0.256,0.069,14.954,-42.969,15.076
0.800,0.258,0.024,8.179,-43.213,13.428
0.798,0.317,0.008,1.465,-38.513,8.667
0.800,0.341,0.029,-0.977,-30.579,5.615
0.827,0.308,0.062,0.549,-22.949,6.165
0.797,0.299,0.089,2.380,-15.564,5.493
0.754,0.295,0.118,3.296,-7.141,4.272
0.756,0.307,0.151,4.395,2.319,3.418
0.759,0.296,0.177,6.592,11.475,3.784
0.787,0.290,0.215,7.812,18.066,4.639
0.774,0.290,0.213,8.362,20.508,4.639
0.757,0.296,0.208,9.033,21.973,4.456
0.711,0.268,0.172,10.376,25.085,2.869
0.722,0.265,0.153,11.169,32.288,-2.197
0.925,0.379,0.259,12.085,40.405,-7.874
0.996,0.300,0.230,16.602,36.743,-7.507
1.132,0.328,0.262,17.639,26.245,-4.822
1.174,0.292,0.266,16.602,13.794,-0.671
1.168,0.279,0.259,14.343,-0.244,2.625
1.114,0.297,0.249,10.132,-11.292,4.883
1.067,0.319,0.241,7.141,-18.005,6.287
1.033,0.321,0.232,5.615,-20.508,7.202
0.997,0.322,0.230,5.249,-21.301,7.080
0.973,0.369,0.242,6.165,-20.874,6.470
0.963,0.361,0.260,8.850,-20.020,8.118
0.957,0.341,0.268,12.390,-21.362,9.216
0.936,0.339,0.283,15.137,-23.010,9.033
0.926,0.340,0.298,16.724,-24.658,8.301
0.938,0.344,0.310,18.066,-26.367,7.568
0.929,0.332,0.284,19.043,-29.175,7.507
0.921,0.299,0.237,17.395,-31.494,7.812
0.902,0.309,0.205,13.672,-32.898,8.240
0.870,0.310,0.179,10.010,-33.081,9.338
0.841,0.309,0.161,7.080,-31.494,9.766
0.811,0.312,0.151,5.920,-28.320,9.094
0.805,0.309,0.155,5.859,-23.743,7.690
0.814,0.300,0.174,7.019,-19.348,6.287
0.839,0.305,0.213,8.606,-16.052,3.967
0.844,0.299,0.247,10.437,-14.526,2.625
0.831,0.287,0.261,11.597,-14.648,2.258
0.809,0.284,0.273,11.047,-13.428,2.502
0.766,0.270,0.263,8.911,-10.498,2.502
0.784,0.292,0.244,5.188,-4.761,0.793
0.791,0.307,0.253,1.709,3.723,0.671
0.780,0.262,0.190,-0.916,8.789,1.160
0.687,0.283,0.159,-5.554,16.907,-1.587
0.962,0.437,0.291,-9.460,28.198,-2.808
0.916,0.361,0.191,-9.888,27.771,0.732
1.048,0.411,0.217,-12.695,20.996,4.333
0.971,0.347,0.188,-15.930,9.155,8.850
0.880,0.317,0.123,-17.883,-1.221,11.475
0.773,0.356,0.113,-19.531,-0.854,9.338
0.820,0.367,0.126,-17.578,6.775,4.395
0.880,0.381,0.176,-13.428,14.832,0.000
0.930,0.346,0.182,-8.545,16.357,-0.488
1.016,0.387,0.256,-5.005,12.817,-0.366
1.019,0.333,0.256,-2.380,5.554,2.991
0.976,0.338,0.266,-0.488,-2.502,4.333
0.885,0.335,0.243,-0.732,-6.409,5.615
0.882,0.332,0.263,-0.610,-3.784,5.798
0.897,0.329,0.263,-0.488,1.221,3.479
0.852,0.290,0.249,-1.404,5.554,1.221
0.849,0.277,0.256,-4.333,10.620,-1.221
0.934,0.367,0.300,-6.897,13.916,-3.418
0.950,0.313,0.272,-7.996,11.353,-0.183
0.910,0.295,0.246,-10.010,5.310,3.296
0.850,0.317,0.213,-11.658,1.587,3.662
0.858,0.351,0.228,-12.146,3.418,2.563
0.867,0.308,0.202,-10.376,5.554,1.587
0.873,0.326,0.214,-9.949,7.019,-0.916
0.948,0.355,0.253,-9.033,7.812,-2.502
0.997,0.343,0.260,-7.507,4.395,-1.953
0.959,0.306,0.249,-6.836,-2.319,0.305
0.935,0.338,0.249,-8.057,-7.568,0.427
0.905,0.345,0.257,-9.399,-8.118,-0.793
0.899,0.333,0.253,-9.827,-7.568,-1.831
0.908,0.340,0.268,-11.230,-6.409,-2.625
0.905,0.338,0.274,-12.695,-6.104,-3.052
0.891,0.335,0.279,-13.611,-6.287,-3.296
0.864,0.317,0.281,-15.259,-6.714,-3.418
0.856,0.319,0.281,-17.944,-5.981,-4.333
0.857,0.320,0.304,-20.508,-4.272,-4.944

1.217,0.042,-1.354,153.931,34.485,-9.277
1.331,-0.077,-1.453,179.443,47.485,-10.864
1.484,-0.191,-1.512,203.125,59.082,-11.475
1.634,-0.268,-1.533,226.379,66.223,-11.230
1.756,-0.380,-1.517,249.817,68.848,-8.057
1.826,-0.456,-1.490,273.621,69.641,-2.808
1.797,-0.431,-1.392,297.791,72.571,4.883
1.712,-0.443,-1.272,324.463,78.125,19.653
1.629,-0.498,-1.127,354.675,87.097,37.659
1.573,-0.593,-0.950,385.559,99.243,52.979
1.520,-0.683,-0.760,415.283,111.877,62.256
1.452,-0.756,-0.549,442.932,121.643,67.261
1.449,-0.873,-0.321,467.773,127.258,72.144
1.498,-1.038,-0.090,486.328,128.357,75.928
1.537,-1.121,0.198,495.178,123.596,79.468
1.544,-1.149,0.534,493.286,109.558,87.524
1.492,-1.231,0.771,481.567,86.121,99.670
1.303,-1.284,0.888,455.933,58.899,107.788
0.990,-1.239,0.973,415.039,39.551,108.643
0.707,-1.112,1.031,366.516,35.828,102.417
0.474,-0.948,1.045,319.580,48.706,88.989
0.372,-0.799,1.050,280.457,73.853,72.449
0.435,-0.678,1.021,249.451,102.539,54.993
0.558,-0.658,1.180,225.159,125.671,37.292
0.620,-1.092,1.801,190.063,129.578,22.888
0.528,-1.191,2.600,106.873,109.558,1.282
0.497,-0.397,2.664,-3.052,73.608,-31.494
0.500,0.076,2.197,-71.411,40.466,-38.025
0.556,0.468,1.529,-88.684,22.278,-31.616
0.652,0.600,1.066,-62.805,22.766,-23.560
0.806,0.562,0.814,-20.996,29.480,-18.616
0.990,0.399,0.632,15.320,30.640,-19.043
1.070,0.261,0.426,34.729,20.203,-20.996
1.091,0.246,0.224,38.025,0.305,-20.874
1.097,0.286,0.068,32.593,-21.118,-17.578
1.072,0.307,-0.054,26.001,-41.626,-13.489
1.017,0.320,-0.137,20.935,-57.617,-11.536
0.985,0.340,-0.168,16.907,-65.674,-10.864
0.960,0.354,-0.156,14.465,-66.589,-10.620
0.943,0.380,-0.101,14.099,-62.439,-9.644
0.931,0.407,-0.036,16.663,-55.908,-7.507
0.899,0.418,0.022,22.461,-47.974,-4.883
0.889,0.393,0.075,29.480,-39.001,-1.587
0.910,0.331,0.118,33.630,-30.457,2.625
0.908,0.297,0.150,33.936,-24.170,5.676
0.909,0.287,0.188,29.663,-19.653,8.484
0.900,0.271,0.205,24.048,-17.883,11.719
0.889,0.263,0.197,17.883,-17.395,13.000
0.863,0.271,0.190,11.780,-16.785,13.000
0.822,0.275,0.185,7.874,-15.015,12.390
0.696,0.243,0.149,5.798,-11.292,10.132
0.766,0.345,0.170,4.028,-2.319,4.456
0.738,0.318,0.216,5.981,8.301,0.671
0.882,0.375,0.210,7.935,10.010,-1.343
0.807,0.289,0.156,9.094,6.042,1.892
0.770,0.294,0.131,7.202,4.883,2.625
0.876,0.320,0.154,5.615,8.423,0.427
0.864,0.312,0.169,5.615,10.315,-2.075
0.947,0.333,0.173,5.493,6.470,-3.418
0.996,0.343,0.173,5.859,2.625,-3.662
0.920,0.286,0.155,6.409,0.061,-3.479
0.975,0.313,0.186,5.798,-1.465,-3.662
0.957,0.326,0.183,5.066,-2.319,-3.662
1.117,0.384,0.267,4.700,-2.563,-2.319
1.110,0.303,0.245,5.127,-9.155,3.174
1.111,0.320,0.259,3.601,-18.799,7.324
1.013,0.309,0.232,1.648,-26.367,10.498
0.993,0.336,0.224,0.183,-27.283,10.193
0.939,0.323,0.209,-0.793,-23.499,9.583
0.930,0.316,0.204,-2.014,-19.714,8.667
0.919,0.323,0.192,-3.845,-17.212,7.629
0.903,0.331,0.186,-5.005,-15.686,6.836
0.904,0.335,0.177,-5.493,-15.381,6.287
0.892,0.328,0.176,-5.188,-16.174,5.981
0.865,0.321,0.173,-4.517,-17.212,5.981
0.860,0.341,0.197,-3.296,-17.029,4.883
0.849,0.342,0.224,-1.160,-16.174,4.211
0.847,0.327,0.233,1.526,-15.747,3.601
0.833,0.325,0.237,3.052,-14.648,1.770
0.841,0.331,0.247,3.479,-12.390,-0.122
0.850,0.333,0.244,3.113,-10.193,-1.648
0.851,0.326,0.229,2.136,-8.667,-2.563
0.852,0.343,0.217,0.366,-6.897,-2.930
0.864,0.344,0.205,-1.221,-5.005,-2.502
0.864,0.326,0.184,-2.136,-3.052,-2.441
0.844,0.320,0.166,-3.113,-0.427,-2.808
0.809,0.324,0.144,-4.700,3.174,-3.235
0.798,0.346,0.120,-5.676,9.338,-3.662
0.786,0.329,0.118,-6.165,18.005,-3.845
0.843,0.333,0.147,-6.287,25.269,-5.310
0.799,0.324,0.098,-6.653,29.236,-7.324
1.003,0.422,0.248,-6.714,32.349,-7.446
1.007,0.330,0.205,-5.493,23.682,-3.845
1.075,0.324,0.269,-6.348,12.512,0.244
1.010,0.322,0.222,-6.836,-0.183,4.272
0.926,0.328,0.213,-8.301,-7.507,5.432
0.866,0.353,0.196,-10.010,-7.935,3.784
0.846,0.358,0.206,-9.827,-3.479,1.831
0.897,0.363,0.213,-9.338,1.770,0.061
0.963,0.381,0.250,-8.301,3.906,-1.343
0.986,0.354,0.239,-6.714,0.244,-0.061
0.990,0.355,0.243,-6.409,-5.615,1.953
0.911,0.349,0.196,-6.531,-11.169,4.089
0.917,0.353,0.174,-7.202,-12.268,6.042
0.884,0.336,0.170,-7.629,-9.338,6.287
0.861,0.339,0.161,-8.301,-7.141,4.272
0.844,0.352,0.165,-8.972,-4.395,2.930
0.803,0.337,0.152,-8.606,-1.221,1.404
0.840,0.377,0.168,-8.362,3.723,-1.221
0.864,0.357,0.181,-6.592,7.202,-1.404
0.892,0.354,0.184,-5.005,7.141,-0.732
0.897,0.345,0.196,-3.906,4.822,0.916
0.869,0.352,0.201,-3.418,2.197,1.465
0.886,0.358,0.209,-2.869,1.465,2.075
0.907,0.327,0.206,-2.258,1.587,2.625
0.940,0.341,0.221,-3.113,1.221,0.793
0.974,0.353,0.229,-3.906,-1.099,0.549
0.946,0.319,0.207,-4.456,-4.883,2.075
0.939,0.335,0.204,-5.615,-7.385,1.465

1.754,0.032,-1.090,114.563,79.956,-27.039
1.851,-0.015,-1.281,151.428,79.895,-19.836
1.880,-0.116,-1.487,195.435,81.360,-10.132
1.854,-0.274,-1.678,242.493,89.600,0.061
1.827,-0.454,-1.782,288.025,105.896,10.803
1.818,-0.597,-1.777,330.566,127.380,22.705
1.775,-0.676,-1.655,370.972,147.888,34.790
1.672,-0.703,-1.424,410.034,164.368,47.607
1.551,-0.727,-1.130,447.205,174.744,60.242
1.463,-0.736,-0.778,480.835,178.772,70.007
1.389,-0.745,-0.455,511.902,173.340,74.524
1.336,-0.734,-0.194,542.297,156.677,74.341
1.291,-0.755,0.006,575.989,130.737,71.106
1.208,-0.794,0.117,608.154,96.252,67.261
1.019,-0.913,0.196,634.827,62.500,65.979
0.746,-1.087,0.242,643.372,45.288,68.359
0.553,-1.224,0.401,629.150,50.903,69.885
0.512,-1.250,0.654,596.863,74.585,68.420
0.555,-1.187,0.891,552.002,102.722,63.049
0.652,-1.136,1.110,501.587,128.235,55.786
0.745,-1.091,1.332,447.021,144.653,45.288
0.789,-0.995,1.449,387.634,147.522,35.461
0.803,-0.870,1.435,328.796,139.526,28.809
0.814,-0.765,1.359,274.048,129.822,23.682
0.828,-0.655,1.290,224.243,122.742,19.226
0.752,-0.573,1.236,179.565,117.615,13.977
0.755,-0.620,1.212,138.428,119.690,8.484
0.840,-0.679,1.317,98.206,123.474,6.653
0.952,-0.724,1.396,49.316,119.629,6.165
1.134,-0.494,1.442,-6.592,108.398,1.404
1.235,-0.163,1.009,-57.190,68.054,-2.441
1.218,-0.008,0.562,-80.750,25.452,-2.808
1.125,0.096,0.290,-78.796,3.662,-2.747
1.042,0.220,0.129,-65.186,-4.150,-3.357
1.014,0.283,0.028,-45.410,-4.944,-5.066
0.956,0.292,-0.030,-26.123,-3.052,-7.935
1.100,0.326,-0.002,-11.108,-1.099,-12.817
1.151,0.355,-0.060,-1.221,-6.531,-14.709
1.011,0.367,-0.137,5.249,-15.076,-12.512
0.863,0.345,-0.166,9.583,-17.761,-9.888
0.989,0.463,-0.171,12.756,-15.930,-8.789
1.188,0.310,0.000,16.113,-22.766,-5.310
1.082,0.272,0.038,18.616,-36.987,-8.423
0.985,0.289,0.049,22.095,-52.063,-10.925
0.911,0.244,0.074,26.001,-60.425,-9.216
0.900,0.236,0.098,28.625,-60.730,-7.935
0.830,0.215,0.095,28.931,-54.138,-4.944
0.758,0.214,0.101,24.963,-42.603,-2.441
0.693,0.210,0.076,18.188,-26.550,2.075
0.773,0.223,0.089,10.498,-7.751,6.775
0.772,0.208,0.080,3.906,7.568,11.902
0.814,0.205,0.090,-1.099,17.700,13.977
0.860,0.186,0.093,-4.211,23.010,13.306
0.957,0.217,0.125,-4.272,24.048,10.803
0.980,0.180,0.144,-1.526,20.264,8.789
0.945,0.160,0.142,1.892,13.428,3.662
1.018,0.204,0.145,4.578,8.606,-1.709
1.056,0.209,0.167,6.958,3.723,-3.601
1.029,0.208,0.152,7.080,-3.174,-3.540
0.997,0.220,0.147,6.226,-8.972,-2.991
1.066,0.230,0.173,5.188,-12.695,-1.831
1.052,0.211,0.158,3.174,-18.738,0.061
1.015,0.194,0.156,0.793,-22.827,0.305
1.006,0.199,0.165,-1.282,-24.048,-1.038
1.000,0.200,0.176,-3.845,-23.499,-2.441
0.997,0.207,0.171,-6.714,-22.156,-3.479
0.981,0.204,0.166,-8.667,-20.569,-3.662
0.965,0.202,0.155,-10.132,-18.738,-3.784
1.000,0.209,0.171,-11.902,-16.418,-3.296
0.974,0.212,0.155,-12.695,-16.785,-2.380
0.933,0.223,0.141,-12.817,-17.212,-1.587
0.906,0.230,0.131,-12.207,-16.357,-0.549
0.905,0.240,0.116,-11.169,-14.221,0.183
0.901,0.238,0.113,-10.681,-10.864,1.099
0.909,0.245,0.106,-10.315,-7.690,1.526
0.919,0.248,0.111,-9.277,-4.944,1.404
0.918,0.247,0.115,-8.118,-2.991,1.038
0.928,0.251,0.118,-6.287,-1.526,0.610
0.939,0.244,0.117,-4.456,-0.977,0.183
0.936,0.249,0.120,-3.601,-0.488,-0.732
0.928,0.247,0.126,-2.930,-0.244,-1.160
0.922,0.245,0.131,-1.465,0.427,-1.465
0.908,0.241,0.141,-0.122,1.709,-1.526
0.885,0.239,0.149,1.038,3.967,-1.465
0.969,0.254,0.172,2.502,6.775,-0.793
0.970,0.214,0.195,3.845,7.263,0.122
0.916,0.177,0.168,2.991,4.944,-1.526
0.871,0.206,0.147,1.526,4.333,-3.540
0.828,0.135,0.068,1.465,5.127,-0.793
1.097,0.299,0.245,1.099,16.052,-1.770
1.009,0.191,0.217,0.366,13.184,2.808
0.943,0.183,0.229,-1.343,5.615,1.892
1.035,0.214,0.181,-4.028,-4.333,0.549
0.877,0.257,0.166,-4.028,-9.033,0.366
0.912,0.262,0.179,-3.723,-6.714,0.366
1.014,0.236,0.229,-4.639,-5.493,-1.282
0.940,0.184,0.189,-5.310,-7.690,-1.526
0.937,0.201,0.178,-7.324,-9.583,-2.197
0.970,0.239,0.167,-7.629,-9.277,-0.793
0.930,0.215,0.168,-7.141,-7.202,2.319
0.903,0.213,0.153,-7.324,-3.723,3.418
0.862,0.222,0.139,-7.568,0.793,2.991
0.895,0.222,0.142,-7.629,6.348,2.197
0.957,0.216,0.155,-7.690,10.315,1.465
0.969,0.235,0.141,-8.179,8.545,1.343
0.939,0.226,0.127,-8.301,5.066,2.747
0.959,0.241,0.124,-7.996,1.892,3.174
0.928,0.225,0.120,-7.751,-0.549,3.845
0.885,0.228,0.117,-7.507,-0.977,2.747
0.913,0.230,0.122,-7.629,0.610,1.465
0.954,0.243,0.129,-7.507,2.625,0.305
0.957,0.235,0.136,-7.202,2.747,0.000
0.960,0.235,0.122,-7.263,0.793,0.122
0.965,0.240,0.118,-7.324,-1.038,0.061
0.955,0.246,0.119,-6.714,-1.587,0.000
0.945,0.244,0.126,-5.615,-1.221,0.488
0.947,0.236,0.126,-4.395,-0.671,0.549
0.956,0.234,0.130,-3.113,0.488,0.122
0.946,0.229,0.141,-1.831,2.014,-0.183

1.635,0.030,-0.875,175.842,64.575,9.521
1.679,-0.041,-0.917,204.712,68.115,16.663
1.660,-0.076,-0.954,231.995,71.472,24.414
1.635,-0.140,-1.003,258.667,74.463,32.593
1.565,-0.201,-1.037,284.546,77.881,39.917
1.445,-0.223,-1.039,307.922,83.923,47.791
1.339,-0.264,-1.020,328.430,90.942,56.030
1.247,-0.303,-0.963,346.863,98.267,61.890
1.199,-0.327,-0.881,363.403,105.286,65.369
1.141,-0.320,-0.776,381.531,110.229,66.040
1.074,-0.319,-0.630,403.687,112.183,66.101
1.019,-0.348,-0.482,429.565,112.244,64.209
0.987,-0.407,-0.348,456.421,109.619,58.411
0.958,-0.506,-0.235,482.361,102.783,49.988
0.903,-0.611,-0.179,502.686,93.262,40.222
0.856,-0.731,-0.152,516.357,84.473,30.518
0.848,-0.844,-0.099,519.958,78.674,21.423
0.847,-0.922,0.033,511.963,77.209,13.672
0.818,-0.930,0.125,490.845,76.538,9.583
0.764,-0.894,0.234,458.496,78.247,9.033
0.729,-0.858,0.371,419.556,85.022,13.550
0.732,-0.812,0.494,376.465,91.797,19.531
0.787,-0.775,0.610,334.839,96.558,24.109
0.866,-0.759,0.686,299.866,96.130,25.757
0.889,-0.712,0.755,269.592,91.736,24.536
0.878,-0.676,0.809,246.399,86.182,23.437
0.870,-0.661,0.833,227.783,80.383,20.874
0.861,-0.631,0.861,211.426,75.317,16.602
0.860,-0.595,0.882,195.862,71.106,12.390
0.873,-0.574,0.917,178.467,67.322,8.118
0.879,-0.537,0.991,158.569,61.951,3.479
0.709,-0.552,1.140,133.362,55.054,-0.793
0.627,-0.811,1.391,100.342,60.364,-6.042
0.779,-1.001,1.697,50.659,75.928,-4.761
1.072,-0.639,1.622,-17.944,77.820,-1.099
1.171,-0.348,1.181,-72.388,46.936,1.892
1.083,-0.178,0.695,-99.976,14.709,4.700
0.916,0.051,0.296,-104.187,1.831,4.639
1.287,0.141,0.218,-92.529,3.235,2.136
1.058,0.322,0.042,-75.867,-7.568,-2.136
0.929,0.276,-0.073,-55.359,-15.015,0.732
1.045,0.359,-0.191,-37.476,-11.658,0.427
1.084,0.324,-0.013,-21.790,-0.977,-3.601
1.261,0.334,-0.069,-13.550,-12.512,-3.052
0.970,0.308,-0.075,-6.409,-21.423,-3.967
1.025,0.344,-0.070,-2.747,-26.978,-6.165
1.044,0.347,-0.041,0.610,-29.236,-5.371
0.952,0.295,-0.013,2.502,-32.593,-3.113
0.919,0.247,-0.018,1.770,-34.851,-2.441
1.014,0.249,0.034,-1.282,-33.081,-2.808
1.078,0.251,0.074,-5.188,-33.203,-0.793
1.007,0.228,0.077,-9.949,-37.048,3.540
0.911,0.224,0.050,-14.954,-39.307,7.874
0.895,0.255,0.035,-19.775,-35.950,12.451
0.866,0.239,0.033,-23.437,-28.442,18.738
0.834,0.214,0.036,-27.588,-20.447,24.536
0.840,0.201,0.044,-31.189,-13.123,28.931
0.828,0.188,0.047,-33.569,-6.653,30.884
0.786,0.172,0.065,-34.851,-0.183,28.564
0.897,0.203,0.082,-34.912,5.371,23.743
0.956,0.170,0.136,-32.898,6.531,21.729
0.974,0.168,0.140,-31.860,0.244,17.090
0.963,0.173,0.142,-29.419,-7.690,12.634
0.989,0.199,0.138,-27.405,-17.212,9.155
0.967,0.193,0.113,-26.611,-26.855,7.935
0.932,0.194,0.097,-26.794,-33.813,6.531
0.913,0.199,0.086,-27.039,-37.048,4.578
0.904,0.218,0.075,-27.527,-37.170,2.991
0.893,0.229,0.084,-26.306,-34.485,1.404
0.917,0.230,0.089,-24.231,-30.518,-0.122
0.943,0.228,0.094,-21.301,-26.672,-1.953
0.942,0.226,0.099,-17.273,-23.926,-3.723
0.956,0.228,0.109,-12.878,-21.912,-5.981
0.982,0.230,0.113,-9.521,-21.240,-8.362
0.983,0.235,0.116,-6.897,-22.156,-9.949
0.985,0.234,0.120,-4.700,-23.865,-10.315
0.997,0.234,0.129,-3.357,-25.391,-10.315
0.990,0.234,0.135,-2.991,-26.489,-10.071
0.976,0.235,0.129,-2.625,-26.917,-9.094
0.966,0.239,0.129,-2.441,-25.391,-7.385
0.952,0.236,0.137,-2.197,-22.278,-5.676
0.940,0.227,0.141,-1.953,-18.738,-4.517
0.945,0.224,0.141,-1.648,-14.832,-3.845
0.934,0.225,0.139,-1.465,-11.597,-3.540
0.914,0.223,0.143,-1.038,-8.118,-3.174
0.914,0.217,0.148,-0.305,-3.967,-3.052
0.948,0.213,0.165,0.366,0.183,-3.113
0.958,0.270,0.163,1.587,2.136,-2.258
0.856,0.153,0.173,3.784,2.869,1.221
0.974,0.255,0.169,3.967,4.578,-0.610
1.046,0.236,0.226,4.150,5.432,2.502
0.855,0.203,0.153,2.136,0.244,2.075
1.020,0.249,0.191,0.732,3.174,-0.183
0.911,0.184,0.138,0.244,1.343,0.916
0.938,0.240,0.229,-0.366,2.075,-0.610
0.937,0.241,0.145,-1.160,-4.211,0.854
0.941,0.173,0.189,-0.427,-3.967,1.343
1.005,0.234,0.199,-0.366,-3.845,-1.343
0.965,0.189,0.206,0.610,-8.362,-0.732
0.953,0.195,0.216,1.587,-11.841,-2.014
0.991,0.213,0.242,2.136,-13.733,-3.418
0.911,0.194,0.238,2.197,-16.785,-3.540
0.996,0.198,0.252,1.221,-18.188,-3.845
0.996,0.219,0.256,-0.244,-19.348,-4.028
0.946,0.198,0.224,-2.686,-21.423,-2.563
0.916,0.211,0.193,-5.981,-20.325,-1.282
0.891,0.222,0.180,-8.911,-15.686,-0.366
0.910,0.236,0.193,-11.047,-8.728,0.977
0.910,0.229,0.186,-13.611,-4.211,3.967
0.907,0.231,0.170,-14.771,-1.282,5.432
0.889,0.225,0.165,-14.893,1.160,5.981
0.957,0.247,0.173,-13.977,2.930,5.554
1.007,0.211,0.184,-12.085,2.441,5.981
0.989,0.224,0.185,-10.620,-1.343,3.906
1.010,0.228,0.187,-8.667,-6.653,2.686
0.978,0.218,0.172,-6.714,-12.817,2.747
0.956,0.223,0.156,-6.226,-17.334,2.258
0.936,0.221,0.158,-5.798,-18.433,2.014
0.935,0.234,0.152,-6.226,-17.761,1.648

1.458,-0.111,-1.238,97.168,26.062,-5.737
1.429,-0.064,-1.331,122.437,25.146,-5.310
1.401,-0.082,-1.369,154.419,26.428,-2.075
1.395,-0.184,-1.384,191.895,27.466,3.540
1.369,-0.321,-1.352,228.455,30.212,9.399
1.345,-0.456,-1.319,259.521,36.865,14.465
1.321,-0.568,-1.290,285.706,47.485,17.822
1.298,-0.633,-1.219,309.631,61.279,18.494
1.302,-0.668,-1.097,332.397,79.041,16.968
1.303,-0.637,-0.920,353.516,97.656,13.733
1.312,-0.612,-0.715,375.000,113.037,10.986
1.304,-0.598,-0.516,396.362,123.047,9.277
1.282,-0.593,-0.319,416.321,128.357,10.071
1.245,-0.618,-0.188,432.556,126.892,13.977
1.225,-0.675,-0.087,441.895,117.065,18.066
1.216,-0.760,-0.053,443.604,104.553,20.081
1.139,-0.821,-0.055,436.462,95.581,18.555
0.982,-0.787,0.014,421.753,95.642,15.686
0.885,-0.710,0.133,406.311,100.647,15.137
0.916,-0.660,0.285,394.165,104.797,14.709
0.944,-0.646,0.417,386.108,103.882,11.902
0.956,-0.633,0.525,377.930,97.900,7.690
1.009,-0.624,0.689,371.460,88.623,2.502
1.089,-0.657,0.835,369.568,72.693,-4.700
1.108,-0.673,0.922,365.356,47.424,-13.489
1.065,-0.666,0.993,356.323,21.362,-21.362
0.955,-0.640,1.049,342.957,-1.160,-26.611
0.837,-0.611,1.036,324.524,-18.372,-30.396
0.754,-0.574,0.999,302.429,-27.466,-33.508
0.660,-0.531,0.962,278.381,-25.696,-33.386
0.631,-0.499,0.956,251.831,-18.066,-31.921
0.517,-0.494,0.953,223.267,-9.521,-30.151
0.372,-0.570,1.082,191.589,8.179,-26.001
0.659,-0.767,1.375,150.024,38.391,-23.010
0.863,-1.018,1.649,90.088,49.622,-20.569
1.085,-0.654,1.574,11.658,49.255,-10.986
1.057,-0.395,1.091,-52.551,31.067,-3.723
0.979,-0.223,0.653,-85.815,11.169,-1.465
0.914,0.032,0.282,-96.619,-0.244,-0.183
0.893,0.234,0.049,-88.989,-0.427,2.258
0.901,0.311,-0.081,-71.106,5.859,6.714
0.869,0.314,-0.156,-53.284,11.902,8.850
0.996,0.379,-0.198,-40.161,16.235,7.996
0.960,0.327,-0.239,-29.968,16.724,7.385
0.940,0.411,-0.316,-21.851,16.113,2.197
1.092,0.385,-0.204,-11.963,17.517,-0.610
1.232,0.298,-0.168,-3.845,6.592,-5.249
1.178,0.276,-0.141,4.883,-5.737,-12.451
1.152,0.296,-0.106,13.855,-19.836,-18.860
1.118,0.292,-0.077,22.156,-30.945,-20.264
1.011,0.289,-0.060,27.466,-37.903,-17.334
0.895,0.279,-0.057,29.175,-38.879,-12.207
0.809,0.259,-0.043,27.954,-31.433,-6.470
0.772,0.251,-0.034,24.841,-19.470,-1.770
0.771,0.222,-0.011,22.034,-4.822,2.991
0.791,0.177,0.019,19.775,8.911,6.287
0.885,0.152,0.069,18.066,18.799,6.470
0.950,0.135,0.119,17.151,21.606,5.737
0.954,0.107,0.139,15.686,18.372,3.845
1.012,0.113,0.151,13.550,12.573,1.221
1.013,0.106,0.137,9.766,4.089,0.244
0.964,0.109,0.111,5.310,-2.563,0.183
0.911,0.111,0.081,1.160,-4.517,0.061
0.959,0.141,0.087,-2.930,-2.747,-0.488
1.000,0.161,0.092,-6.165,-2.014,0.549
0.969,0.135,0.090,-7.080,-3.845,2.625
1.000,0.146,0.052,-7.629,-6.409,3.662
1.014,0.158,0.063,-6.958,-6.897,5.005
0.995,0.149,0.065,-5.493,-6.714,6.165
1.000,0.151,0.049,-4.395,-6.042,5.981
1.014,0.157,0.047,-4.333,-3.601,5.371
1.021,0.162,0.056,-3.296,-1.282,4.700
1.039,0.168,0.053,-2.319,-0.793,4.028
1.026,0.175,0.047,-2.747,-1.587,3.479
1.010,0.184,0.041,-3.296,-2.930,2.991
0.997,0.186,0.042,-3.906,-4.456,2.319
0.983,0.189,0.036,-4.822,-5.554,1.892
0.977,0.188,0.034,-5.188,-6.226,1.404
0.989,0.190,0.044,-5.249,-6.348,1.343
0.990,0.191,0.053,-4.822,-7.141,1.526
0.972,0.178,0.052,-4.089,-8.484,2.258
0.964,0.183,0.047,-3.235,-8.728,2.258
0.943,0.187,0.045,-2.319,-7.568,2.319
0.926,0.188,0.044,-1.526,-5.554,2.380
0.931,0.190,0.046,-0.916,-3.113,2.197
0.929,0.193,0.049,-0.671,-1.404,1.831
0.924,0.189,0.054,-0.122,-0.427,1.282
0.939,0.183,0.055,0.549,0.122,0.549
0.931,0.174,0.057,0.732,0.732,-0.549
0.928,0.169,0.063,0.732,1.282,-2.319
0.954,0.162,0.071,0.549,2.319,-3.967
0.986,0.167,0.076,-0.183,2.380,-5.798
0.986,0.191,0.066,-0.977,0.916,-6.470
0.990,0.190,0.057,-1.526,-0.244,-5.310
0.902,0.201,0.028,-3.052,-0.549,-4.456
0.942,0.216,0.038,-3.662,3.845,-3.601
0.903,0.196,-0.005,-3.662,10.071,-1.587
0.932,0.188,0.059,-3.540,16.357,-1.099
1.010,0.220,0.060,-3.113,15.503,-0.732
1.009,0.179,0.083,-1.709,11.292,1.526
1.002,0.176,0.064,-0.732,5.676,1.953
0.978,0.154,0.077,0.488,2.502,1.343
0.971,0.178,0.066,0.793,2.991,1.709
0.989,0.209,0.078,0.671,5.188,3.540
0.991,0.158,0.086,-0.366,5.981,6.836
1.013,0.155,0.074,-3.540,4.761,6.836
0.984,0.156,0.090,-6.287,3.296,5.310
0.948,0.198,0.056,-8.240,1.160,3.845
0.958,0.197,0.058,-8.728,3.174,5.188
0.957,0.198,0.056,-9.399,5.554,6.836
0.941,0.192,0.047,-10.620,5.615,8.362
1.017,0.198,0.052,-12.390,5.493,8.850
0.998,0.184,0.037,-13.245,2.258,8.118
0.969,0.203,0.016,-13.428,-2.197,6.226
0.958,0.203,0.005,-12.695,-5.676,5.371
0.942,0.209,0.011,-10.925,-7.263,4.333
1.001,0.221,0.017,-8.118,-7.690,3.906
0.980,0.197,0.027,-5.127,-7.568,4.211
0.969,0.205,0.024,-2.686,-7.629,3.540

1.815,-0.119,-0.994,80.322,33.691,6.165
1.821,-0.128,-1.156,96.558,32.349,14.526
1.848,-0.156,-1.323,116.211,30.273,23.987
1.865,-0.150,-1.419,140.686,30.090,32.043
1.868,-0.169,-1.490,170.532,31.494,38.757
1.917,-0.276,-1.561,205.017,34.790,45.044
1.982,-0.388,-1.597,241.821,43.030,48.645
1.985,-0.490,-1.592,278.564,55.664,51.941
1.914,-0.551,-1.516,312.012,69.275,59.143
1.764,-0.589,-1.441,341.919,80.383,70.190
1.586,-0.647,-1.371,368.774,87.280,83.557
1.443,-0.704,-1.239,394.958,96.130,95.215
1.254,-0.735,-1.008,422.607,109.802,103.088
1.088,-0.784,-0.772,450.195,124.329,106.445
1.054,-0.818,-0.496,479.919,139.099,101.624
0.850,-0.964,-0.199,511.841,151.550,91.919
0.772,-1.070,-0.022,537.231,153.625,75.989
0.903,-1.151,0.060,556.885,154.846,59.265
0.995,-1.305,0.322,566.833,159.424,47.058
0.946,-1.378,0.645,565.002,156.555,34.241
0.885,-1.403,0.855,553.223,138.123,23.437
0.946,-1.401,0.989,530.884,115.784,15.015
0.987,-1.379,1.147,498.291,95.764,7.568
0.898,-1.285,1.263,456.848,77.454,1.038
0.776,-1.147,1.278,406.433,61.218,-1.892
0.684,-1.037,1.261,351.929,54.077,-0.916
0.664,-0.898,1.220,298.950,54.321,-0.854
0.676,-0.767,1.195,252.075,59.692,0.305
0.709,-0.679,1.139,212.524,64.819,3.845
0.763,-0.669,1.151,179.382,66.284,6.042
0.706,-0.723,1.307,150.269,62.805,5.981
0.453,-0.898,1.509,112.671,62.561,-0.732
0.559,-1.080,1.809,59.509,80.383,-5.981
0.904,-0.712,1.760,-13.489,79.895,-9.094
1.028,-0.298,1.116,-76.416,42.786,-11.169
0.935,-0.052,0.536,-101.074,11.353,-8.850
0.850,0.189,0.187,-93.140,3.479,-6.348
0.865,0.304,-0.014,-70.618,7.202,-5.005
0.943,0.339,-0.117,-45.410,14.587,-6.653
0.978,0.362,-0.165,-22.766,20.569,-9.399
1.010,0.395,-0.203,-6.042,21.851,-11.719
1.077,0.387,-0.199,6.836,19.958,-13.062
1.152,0.348,-0.152,17.273,14.526,-14.832
1.208,0.308,-0.096,24.170,3.662,-17.456
1.201,0.283,-0.046,27.771,-9.766,-18.982
1.156,0.256,0.009,28.687,-20.874,-17.517
1.084,0.201,0.052,27.649,-26.611,-13.977
0.981,0.169,0.053,22.400,-28.137,-9.277
0.870,0.206,0.046,14.893,-22.339,-3.296
0.829,0.187,0.064,9.521,-10.132,3.662
0.815,0.139,0.099,5.737,1.404,8.728
0.811,0.157,0.111,2.380,7.446,11.169
0.798,0.118,0.083,1.343,10.925,12.695
0.942,0.116,0.104,2.686,16.052,11.047
1.031,0.114,0.122,3.174,15.320,7.874
0.991,0.117,0.105,3.052,8.423,5.554
0.961,0.120,0.067,3.357,2.197,4.089
0.959,0.126,0.037,3.723,2.136,2.563
0.961,0.145,0.028,4.028,5.615,0.793
1.012,0.155,0.068,3.845,8.118,-1.404
1.017,0.182,0.032,2.014,3.906,-1.892
0.895,0.137,0.019,1.282,1.221,-1.404
1.016,0.218,0.025,1.282,2.502,-2.319
1.080,0.179,0.034,2.502,2.441,0.916
1.001,0.150,0.021,3.662,-0.122,2.686
1.066,0.175,0.035,4.639,-2.808,2.136
1.087,0.173,0.046,5.371,-5.554,2.625
1.018,0.152,0.036,5.615,-8.728,3.296
1.007,0.168,0.010,4.700,-10.742,3.174
0.976,0.152,0.035,4.944,-9.033,3.357
0.968,0.156,0.049,4.578,-7.263,2.258
0.987,0.151,0.061,3.662,-6.226,1.404
0.991,0.149,0.067,2.502,-6.165,0.671
0.988,0.148,0.078,1.160,-6.531,0.061
0.984,0.155,0.085,0.427,-7.080,-0.977
0.983,0.157,0.081,-0.061,-7.874,-2.075
0.974,0.161,0.076,-0.305,-7.935,-2.380
0.958,0.168,0.067,0.061,-7.263,-2.197
0.940,0.174,0.054,-0.183,-6.165,-1.038
0.964,0.181,0.050,-0.183,-4.089,0.305
0.936,0.187,0.039,0.122,-2.197,1.892
0.911,0.158,0.056,1.099,-0.366,2.686
0.947,0.183,0.049,1.160,0.305,1.038
0.970,0.172,0.061,1.892,1.282,0.793
0.956,0.170,0.064,1.526,0.854,0.916
0.968,0.167,0.075,1.343,0.488,0.366
0.989,0.167,0.061,1.099,-0.671,-0.549
0.975,0.159,0.073,0.916,-1.404,-1.770
0.988,0.168,0.074,0.732,-2.563,-2.747
1.009,0.166,0.090,0.916,-3.357,-3.418
1.027,0.156,0.108,0.610,-4.395,-4.211
0.951,0.197,0.036,1.221,-6.165,-3.784
1.003,0.155,0.109,3.540,-2.625,-1.770
0.967,0.161,0.084,2.808,-3.906,-1.526
0.938,0.168,0.068,1.770,-4.761,-2.197
0.901,0.189,0.072,0.977,-4.333,-2.686
0.850,0.197,-0.007,1.160,-2.441,-0.671
0.811,0.117,-0.001,2.869,8.057,-0.610
1.115,0.255,0.126,2.136,15.320,-3.845
0.946,0.171,0.074,0.916,4.089,1.343
0.877,0.094,0.052,0.427,-2.075,2.991
0.966,0.161,0.039,-0.793,-1.221,-0.916
1.039,0.169,0.135,-0.977,2.441,-2.319
1.031,0.183,0.090,-2.563,-3.479,-2.014
0.981,0.141,0.084,-1.892,-4.761,0.061
0.980,0.189,0.072,-2.075,-2.502,0.366
0.941,0.146,0.051,-1.892,0.854,2.869
0.908,0.142,0.032,-2.319,5.798,2.930
1.067,0.183,0.124,-2.869,10.193,0.549
1.067,0.181,0.097,-3.357,4.395,1.770
0.954,0.133,0.077,-3.662,-3.235,4.395
0.996,0.178,0.060,-4.211,-6.592,3.418
1.000,0.179,0.088,-3.113,-6.226,2.930
0.970,0.151,0.084,-3.784,-7.080,3.418
0.967,0.165,0.075,-4.761,-7.385,2.930
0.963,0.164,0.087,-4.639,-6.531,2.625
0.942,0.161,0.088,-4.639,-6.104,2.014
0.916,0.171,0.068,-4.639,-4.150,1.160
0.969,0.193,0.069,-4.272,0.244,1.282

1.772,0.165,-1.251,52.673,86.975,-13.367
1.933,0.141,-1.300,98.938,101.807,-6.104
2.032,0.070,-1.302,149.414,115.662,2.075
2.046,-0.011,-1.317,199.280,127.441,11.108
2.016,-0.135,-1.331,245.483,138.306,19.897
1.955,-0.271,-1.336,286.743,149.597,28.564
1.858,-0.345,-1.282,321.350,160.278,37.537
1.792,-0.357,-1.165,349.792,166.504,47.119
1.750,-0.407,-1.030,376.404,165.710,56.152
1.658,-0.466,-0.907,401.794,158.142,62.439
1.541,-0.471,-0.755,426.636,148.865,65.063
1.457,-0.540,-0.646,452.209,137.390,66.772
1.372,-0.648,-0.550,475.525,123.291,65.674
1.277,-0.719,-0.451,495.850,110.046,60.425
1.168,-0.816,-0.395,511.230,99.670,54.565
1.055,-0.881,-0.323,516.724,93.140,51.758
0.940,-0.937,-0.247,512.695,89.172,53.467
0.832,-1.010,-0.107,471.619,96.375,58.655
0.770,-0.970,0.288,446.411,103.333,59.753
0.771,-0.964,0.437,424.683,106.445,57.068
0.776,-0.948,0.623,404.297,107.361,51.025
0.800,-0.946,0.752,386.597,103.699,44.250
0.812,-0.933,0.839,367.859,95.886,34.973
0.796,-0.881,0.912,343.872,88.257,25.452
0.732,-0.798,0.945,317.139,82.825,18.433
0.656,-0.712,0.935,290.283,80.078,14.771
0.615,-0.650,0.930,264.526,82.031,14.099
0.645,-0.613,0.940,240.112,88.196,14.221
0.701,-0.538,0.955,216.553,94.238,12.573
0.752,-0.480,0.966,194.519,97.656,9.766
0.873,-0.490,1.050,173.279,94.543,6.348
0.911,-0.511,1.183,151.611,78.003,-0.244
0.855,-0.762,1.632,122.070,58.777,-7.812
0.918,-0.830,1.856,67.688,40.894,-18.555
0.994,-0.577,1.498,-1.282,7.080,-23.254
0.982,-0.197,0.922,-53.772,-15.564,-19.836
0.991,0.020,0.548,-74.890,-13.794,-18.555
1.021,0.190,0.324,-70.984,-7.874,-16.113
1.052,0.327,0.137,-55.359,-7.690,-14.404
1.051,0.394,0.027,-33.813,-8.423,-13.123
0.950,0.423,-0.082,-12.695,-6.042,-11.169
1.070,0.436,-0.015,3.967,-0.427,-12.390
1.159,0.411,-0.017,14.160,-2.014,-10.864
0.709,0.330,-0.203,22.583,-3.235,-8.789
1.166,0.291,0.121,30.090,6.531,-12.146
1.367,0.314,0.066,28.748,-4.211,-10.132
1.145,0.225,0.075,25.513,-23.682,-10.925
1.094,0.260,0.085,21.301,-43.030,-15.686
1.062,0.274,0.093,17.761,-57.373,-14.771
0.951,0.275,0.102,13.855,-66.895,-11.230
0.865,0.250,0.115,10.681,-68.176,-7.690
0.754,0.248,0.103,7.812,-63.049,-5.005
0.702,0.228,0.112,6.226,-50.049,-2.075
0.719,0.218,0.126,5.615,-32.593,-0.183
0.774,0.212,0.139,5.127,-16.663,1.831
0.799,0.193,0.141,4.456,-6.348,3.235
0.810,0.191,0.145,3.540,-0.183,2.686
0.795,0.189,0.146,3.418,3.601,0.977
0.870,0.223,0.166,2.625,5.859,-1.404
0.949,0.234,0.192,1.831,4.822,-1.465
0.950,0.213,0.194,-0.183,-0.549,0.671
0.918,0.190,0.189,-1.526,-7.263,1.953
0.952,0.219,0.206,-2.930,-11.414,1.343
0.983,0.217,0.231,-2.502,-13.733,1.038
1.002,0.200,0.240,-2.563,-15.625,0.916
1.006,0.189,0.248,-2.625,-17.090,0.183
1.011,0.198,0.259,-1.709,-18.127,-1.404
1.022,0.211,0.260,-0.366,-18.250,-2.502
0.998,0.214,0.249,-0.244,-17.761,-2.319
0.991,0.234,0.228,-1.221,-17.090,-1.038
0.975,0.240,0.215,-2.747,-16.235,1.160
0.930,0.244,0.198,-4.517,-15.747,3.418
0.891,0.247,0.187,-5.249,-14.587,5.066
0.868,0.240,0.184,-4.761,-12.695,5.493
0.877,0.230,0.185,-4.211,-10.498,4.700
0.905,0.228,0.198,-3.418,-8.972,2.380
0.924,0.243,0.215,-2.258,-9.399,0.305
0.904,0.223,0.222,-1.587,-11.108,-0.183
0.924,0.233,0.221,-1.831,-12.451,-0.916
0.924,0.244,0.217,-2.502,-13.550,-0.427
0.912,0.243,0.207,-3.540,-13.733,0.488
0.888,0.250,0.192,-4.761,-12.329,1.343
0.871,0.266,0.188,-6.042,-9.521,1.648
0.869,0.269,0.188,-7.263,-6.470,2.563
0.893,0.272,0.196,-8.179,-3.906,3.845
0.890,0.267,0.192,-8.545,-2.808,5.249
0.866,0.247,0.190,-7.935,-1.709,6.104
0.857,0.253,0.203,-7.019,0.732,4.822
0.893,0.243,0.243,-5.249,4.028,2.869
1.066,0.237,0.303,-3.967,4.883,2.563
0.883,0.322,0.273,-3.540,-0.793,3.479
0.903,0.220,0.227,-2.808,-4.578,7.385
0.829,0.255,0.234,-3.113,-2.075,3.540
1.001,0.238,0.287,-2.991,5.493,2.747
0.924,0.181,0.295,-4.944,2.686,-0.061
1.004,0.320,0.295,-7.629,-1.892,-2.686
1.031,0.179,0.302,-8.179,-8.362,1.892
0.885,0.183,0.238,-9.399,-14.343,2.197
0.967,0.263,0.271,-10.315,-13.916,1.282
0.975,0.226,0.279,-10.010,-13.000,2.625
0.929,0.220,0.249,-10.925,-12.695,1.587
0.961,0.236,0.251,-11.292,-10.620,-0.427
0.974,0.267,0.261,-10.803,-9.949,-1.465
0.941,0.247,0.250,-11.353,-12.573,-0.122
0.898,0.245,0.215,-12.390,-13.306,-0.610
0.909,0.267,0.199,-13.000,-11.108,-1.587
0.918,0.268,0.207,-12.634,-9.216,-1.831
0.879,0.267,0.199,-12.024,-8.972,-2.258
0.856,0.261,0.190,-11.108,-8.301,-2.197
0.881,0.256,0.195,-9.766,-6.714,-2.869
0.907,0.255,0.217,-8.911,-5.249,-3.540
0.911,0.254,0.232,-7.385,-5.310,-3.845
0.904,0.219,0.266,-5.554,-5.554,-3.723
0.966,0.256,0.256,-5.432,-7.324,-4.211
0.977,0.211,0.296,-5.554,-10.071,-4.028
0.953,0.234,0.288,-6.897,-13.428,-5.188
0.947,0.221,0.285,-8.057,-14.526,-5.737
0.951,0.243,0.285,-9.766,-14.893,-7.263
0.953,0.242,0.277,-11.353,-15.259,-7.568

0.896,-1.714,2.534,139.465,17.334,-11.658
0.767,-1.329,2.465,30.579,-17.029,-28.076
0.635,-0.366,1.233,-72.876,-68.542,-22.705
0.501,-0.055,0.534,-100.342,-61.096,-15.076
0.639,0.045,0.321,-80.933,-10.254,-14.099
0.867,0.150,0.181,-49.133,18.677,-15.442
1.015,0.253,0.107,-17.822,23.193,-18.738
1.074,0.297,0.043,5.981,16.296,-20.569
1.076,0.286,-0.015,21.423,5.432,-21.423
1.073,0.282,-0.007,29.114,-2.808,-21.973
1.056,0.277,0.053,32.104,-10.559,-22.095
1.020,0.250,0.141,31.860,-18.677,-20.264
0.972,0.197,0.235,29.602,-25.452,-17.334
0.911,0.135,0.299,24.597,-30.579,-15.564
0.904,0.120,0.321,17.578,-31.860,-15.015
0.893,0.113,0.332,11.658,-28.442,-13.245
0.882,0.119,0.336,8.118,-23.376,-10.315
0.853,0.114,0.316,6.958,-19.104,-6.836
0.806,0.105,0.281,7.874,-14.221,-5.127
0.763,0.118,0.244,9.460,-6.897,-5.066
0.844,0.150,0.286,11.475,2.625,-4.883
0.943,0.148,0.306,11.597,5.188,-2.319
0.899,0.109,0.271,9.216,0.244,1.709
0.853,0.121,0.235,6.165,-3.479,2.380
0.875,0.163,0.220,3.479,-3.540,1.709
0.890,0.153,0.228,1.770,-0.793,2.075
0.901,0.148,0.220,0.854,0.122,1.404
0.952,0.156,0.233,0.671,1.282,0.549
0.993,0.159,0.247,0.916,1.587,0.977
1.018,0.145,0.261,1.587,0.183,2.075
1.021,0.133,0.282,1.892,-2.441,2.625
1.009,0.130,0.306,1.526,-5.920,2.808
0.986,0.120,0.316,1.465,-9.277,2.502
0.955,0.109,0.315,1.282,-10.986,2.014
0.943,0.115,0.320,1.038,-10.742,1.526
0.943,0.107,0.319,1.160,-9.705,1.709
0.934,0.106,0.309,0.183,-8.728,2.014
0.921,0.114,0.297,-0.488,-7.629,2.258
0.925,0.124,0.285,-0.854,-6.653,2.686
0.924,0.135,0.272,-1.099,-5.615,2.747
0.922,0.144,0.265,-0.671,-4.517,2.869
0.933,0.145,0.265,0.793,-3.967,2.686
0.952,0.147,0.270,0.977,-4.150,2.441
0.951,0.146,0.270,0.854,-5.554,1.587
0.937,0.145,0.258,0.427,-7.812,0.854
0.915,0.149,0.250,0.488,-9.094,0.305
0.896,0.144,0.246,1.038,-9.216,0.061
0.894,0.143,0.249,1.526,-7.812,-0.305
0.864,0.138,0.248,1.465,-5.493,-0.122
0.876,0.144,0.255,2.075,-1.831,0.244
0.922,0.136,0.288,2.808,2.563,1.587
0.917,0.128,0.296,2.930,3.601,2.380
0.852,0.104,0.270,2.991,3.052,2.075
0.893,0.143,0.291,2.808,6.714,0.427
0.913,0.135,0.298,2.502,9.766,1.648
0.912,0.124,0.281,1.343,9.949,2.747
0.954,0.139,0.273,-0.610,10.559,3.479
0.997,0.146,0.296,-2.014,10.315,4.150
0.986,0.123,0.260,-3.723,4.883,3.479
0.938,0.149,0.243,-5.005,0.488,1.404
0.924,0.154,0.244,-4.822,-0.732,-0.122
0.940,0.162,0.261,-3.601,-0.610,-0.977
0.928,0.144,0.266,-2.502,-0.793,-0.671
0.962,0.127,0.292,-1.526,-1.160,-0.610
0.958,0.118,0.311,-0.366,-2.197,-0.488
0.953,0.139,0.310,-0.183,-3.845,0.610
0.846,0.111,0.296,-0.427,-4.456,3.113
0.928,0.123,0.319,-0.854,-0.244,2.930
0.960,0.109,0.317,-2.502,1.038,2.808
0.932,0.105,0.301,-4.700,-0.061,1.587
0.945,0.135,0.298,-6.042,-0.488,0.000
0.955,0.158,0.275,-7.996,-0.366,0.671
0.927,0.151,0.262,-9.460,0.305,2.808
0.881,0.162,0.239,-9.949,0.977,4.089
0.880,0.179,0.237,-9.583,4.822,4.700
0.922,0.188,0.256,-8.423,9.644,5.920
0.950,0.137,0.265,-7.202,11.169,7.141
0.952,0.162,0.262,-7.324,9.949,5.188
0.966,0.153,0.265,-7.385,7.629,4.944
1.000,0.159,0.271,-7.812,3.967,4.517
0.971,0.146,0.260,-7.751,-0.427,4.822
0.924,0.136,0.258,-7.507,-2.502,3.662
0.949,0.158,0.268,-6.714,-3.174,0.916
0.957,0.157,0.282,-6.042,-3.235,0.061
0.928,0.140,0.291,-5.066,-4.639,0.061
0.949,0.138,0.304,-4.028,-5.615,-0.305
0.948,0.138,0.319,-3.723,-6.775,-0.610
0.940,0.143,0.318,-4.700,-8.179,-0.488
0.911,0.137,0.306,-5.615,-9.033,0.366
0.905,0.134,0.299,-7.385,-8.179,0.854
0.918,0.144,0.290,-9.644,-6.592,0.122
0.938,0.152,0.282,-11.719,-5.432,-0.366
0.940,0.165,0.273,-13.000,-4.883,-0.244
0.956,0.168,0.260,-13.367,-4.761,0.671
0.967,0.184,0.247,-13.428,-4.761,1.587
0.945,0.189,0.236,-12.817,-4.639,2.869
0.920,0.192,0.225,-10.681,-3.906,4.456
0.896,0.184,0.230,-7.263,-1.160,5.005
0.911,0.181,0.241,-4.028,2.075,4.700
0.933,0.179,0.260,-1.099,3.906,4.333
0.936,0.162,0.274,0.732,2.930,4.028
0.942,0.151,0.283,1.282,0.732,2.686
0.944,0.145,0.290,0.916,-2.075,1.099
0.931,0.141,0.291,-1.099,-4.150,0.183
0.925,0.140,0.283,-3.052,-5.920,-0.427
0.944,0.144,0.277,-4.761,-6.836,-0.793
0.954,0.154,0.273,-6.958,-7.080,-0.427
0.956,0.160,0.266,-8.423,-7.446,0.427
0.955,0.164,0.260,-9.216,-7.935,1.282
0.932,0.173,0.250,-9.033,-8.362,1.587
0.947,0.183,0.248,-7.812,-7.690,2.197
0.937,0.176,0.246,-5.981,-6.897,3.357
0.901,0.169,0.233,-4.517,-5.798,3.967
0.881,0.172,0.229,-3.052,-2.991,3.723
0.889,0.175,0.239,-1.770,0.549,2.869
0.899,0.179,0.251,-0.854,2.808,2.075
0.901,0.167,0.260,-0.427,3.357,2.075
0.898,0.158,0.263,0.671,2.747,1.831
0.906,0.157,0.276,0.977,2.747,0.977

1.192,-0.160,-1.362,128.906,15.015,6.470
1.214,-0.190,-1.426,152.588,20.996,6.348
1.250,-0.230,-1.418,181.580,26.123,7.080
1.261,-0.253,-1.324,215.759,27.893,8.057
1.253,-0.349,-1.224,252.258,26.123,9.644
1.226,-0.503,-1.163,285.522,21.973,10.803
1.135,-0.572,-1.110,312.988,20.630,11.169
1.018,-0.667,-1.016,336.182,23.499,13.184
0.960,-0.745,-0.922,354.614,31.921,17.273
0.933,-0.823,-0.817,372.375,45.776,18.555
0.968,-0.900,-0.679,388.245,63.477,16.907
1.042,-0.915,-0.505,403.931,80.444,13.184
1.074,-0.917,-0.315,423.950,92.346,7.446
1.108,-0.981,-0.135,445.923,97.595,1.465
1.149,-1.057,0.032,463.501,96.191,-4.944
1.125,-1.106,0.194,474.670,89.966,-11.963
1.058,-1.158,0.312,476.013,79.346,-16.602
1.002,-1.181,0.411,465.698,66.589,-19.714
0.946,-1.161,0.477,445.801,55.115,-20.508
0.896,-1.130,0.513,419.189,48.828,-19.958
0.884,-1.086,0.559,388.794,47.180,-19.531
0.871,-1.025,0.608,357.300,46.753,-19.165
1.016,-1.125,0.845,325.928,45.044,-18.127
1.757,-2.107,2.188,291.199,18.433,-28.137
2.860,-2.020,4.000,218.933,-120.911,-58.044
1.195,-2.334,2.769,7.385,-327.759,-10.437
0.043,-0.605,1.180,-157.043,-273.376,19.897
-0.820,-0.113,1.126,-138.794,-147.339,25.330
0.036,-0.237,1.035,-84.229,-68.420,13.977
1.034,-0.325,0.904,-55.664,-1.770,-3.906
1.053,-0.135,0.591,-36.194,30.640,-2.014
0.960,-0.029,0.362,-20.630,29.419,4.150
0.905,0.051,0.051,-9.949,9.155,2.991
0.910,0.084,-0.080,1.099,-0.854,-0.366
0.937,0.141,-0.113,10.376,-6.409,-4.883
0.969,0.160,-0.104,20.752,-14.893,-8.179
0.970,0.134,-0.069,31.616,-25.574,-12.085
1.006,0.112,-0.029,39.429,-36.621,-17.883
1.007,0.102,-0.036,42.114,-47.058,-24.841
0.972,0.089,-0.052,41.199,-52.002,-29.114
0.954,0.086,-0.060,36.011,-47.974,-28.687
0.924,0.094,-0.067,28.381,-37.109,-22.766
0.923,0.085,-0.050,20.386,-19.836,-12.024
0.939,0.050,0.006,12.268,-2.075,1.099
0.936,0.025,0.073,5.310,11.780,12.207
0.905,0.000,0.143,-0.366,20.264,19.287
0.995,-0.029,0.209,-4.456,23.804,21.667
0.834,-0.031,0.158,-7.080,19.897,20.325
0.987,-0.008,0.202,-6.287,17.273,17.700
0.947,-0.071,0.229,-3.784,14.099,15.686
0.956,-0.048,0.188,-1.709,9.766,10.681
0.960,-0.045,0.206,0.183,7.874,6.287
0.946,-0.039,0.162,2.197,6.531,3.113
0.967,-0.042,0.149,3.967,8.667,1.831
0.977,-0.040,0.137,5.188,11.108,1.648
0.953,-0.045,0.124,6.104,13.977,2.563
0.966,-0.047,0.111,6.470,17.456,3.296
0.995,-0.047,0.099,4.944,19.775,4.272
0.995,-0.043,0.087,2.808,20.569,5.493
0.994,-0.032,0.074,1.526,19.897,5.920
1.004,-0.031,0.069,1.404,19.226,5.981
1.012,-0.038,0.070,2.014,18.250,5.615
1.010,-0.033,0.074,2.747,16.479,4.883
1.016,-0.044,0.085,3.357,14.526,3.845
1.057,-0.045,0.100,3.723,11.963,2.197
1.059,-0.034,0.090,3.967,8.545,1.343
1.036,-0.030,0.089,4.578,6.348,1.892
1.039,-0.036,0.093,5.920,5.676,2.930
1.055,-0.044,0.093,5.737,5.859,3.845
1.045,-0.041,0.082,3.662,5.432,4.517
1.025,-0.028,0.068,1.709,3.662,4.456
1.009,-0.016,0.052,0.183,2.502,4.578
0.980,-0.007,0.042,-0.427,1.709,4.395
0.958,-0.002,0.038,-0.427,1.831,3.723
0.955,-0.000,0.037,0.061,3.052,2.258
0.952,-0.000,0.033,0.061,4.028,1.099
0.950,-0.000,0.034,0.488,4.578,0.671
0.945,-0.001,0.040,1.099,5.249,0.488
0.939,-0.003,0.050,2.136,6.409,0.183
0.969,-0.012,0.059,3.174,7.507,0.000
0.997,-0.017,0.067,3.113,7.935,0.427
1.005,-0.015,0.082,3.235,8.057,0.854
1.006,-0.013,0.083,2.991,7.751,1.282
1.004,-0.016,0.087,2.441,7.019,1.343
1.001,-0.012,0.091,1.770,6.104,1.221
1.000,-0.004,0.092,1.648,5.249,0.854
0.997,0.000,0.089,1.465,4.211,1.343
0.987,-0.007,0.080,1.404,3.174,1.648
0.976,-0.003,0.075,0.610,2.380,1.587
0.965,-0.009,0.072,0.488,2.075,1.465
0.963,-0.016,0.071,0.305,2.563,0.610
0.999,-0.020,0.075,0.183,3.235,-0.732
1.002,0.002,0.072,-0.671,3.540,-1.282
0.998,-0.017,0.073,-0.122,4.272,1.953
1.000,-0.021,0.089,0.122,4.761,3.784
1.007,-0.005,0.091,-1.770,3.052,3.357
1.051,-0.051,0.098,-3.418,-0.122,3.235
1.044,0.039,0.030,-5.127,-4.883,0.732
0.965,-0.025,0.074,-3.418,-2.991,3.540
1.001,0.019,0.012,-3.906,-5.066,1.831
0.990,0.005,0.071,-2.930,-2.380,0.916
1.035,-0.003,0.063,-2.808,-2.625,0.977
1.027,-0.005,0.073,-2.625,-5.554,0.977
0.990,-0.011,0.056,-2.075,-8.545,1.038
0.974,-0.016,0.045,-2.502,-8.728,0.610
0.963,-0.015,0.053,-2.441,-6.470,-0.366
0.968,-0.016,0.068,-2.625,-3.662,-1.465
0.964,-0.013,0.081,-2.991,-2.014,-2.075
0.951,-0.017,0.088,-2.686,-1.526,-2.197
0.988,-0.026,0.094,-2.808,-1.221,-2.563
1.027,-0.010,0.105,-4.028,-0.854,-2.747
1.008,-0.027,0.113,-4.517,-2.258,-1.953
1.026,-0.019,0.112,-5.005,-4.944,-1.404
1.015,-0.016,0.113,-4.822,-6.531,-1.099
1.013,-0.021,0.111,-5.249,-7.812,-0.916
1.001,-0.025,0.108,-5.737,-8.545,-0.916
0.995,-0.021,0.093,-6.714,-8.667,-1.160
1.029,-0.010,0.090,-7.080,-7.568,-1.404
0.998,-0.003,0.085,-7.080,-6.592,-0.610

1.400,-0.162,-1.077,158.691,-18.555,-2.380
1.391,-0.254,-1.134,187.378,-18.860,-0.732
1.382,-0.340,-1.182,214.600,-15.808,-1.038
1.394,-0.418,-1.203,239.258,-9.216,-2.380
1.451,-0.520,-1.237,263.428,-1.648,-4.395
1.499,-0.584,-1.216,286.987,7.141,-5.737
1.497,-0.618,-1.131,311.401,14.893,-4.456
1.484,-0.661,-1.036,336.853,17.334,0.000
1.453,-0.735,-0.941,362.671,15.625,6.104
1.401,-0.802,-0.823,386.963,15.686,11.536
1.332,-0.879,-0.708,408.813,14.160,15.259
1.254,-0.944,-0.563,427.307,11.597,18.005
1.193,-0.974,-0.408,442.261,9.155,20.386
1.166,-0.993,-0.241,456.848,5.127,21.423
1.144,-1.021,-0.063,471.680,-1.465,20.569
1.068,-1.063,0.068,482.483,-11.353,20.691
0.956,-1.121,0.181,487.976,-22.949,20.386
0.854,-1.207,0.325,488.159,-30.823,18.921
0.753,-1.249,0.486,478.210,-36.438,19.043
0.624,-1.276,0.634,456.787,-40.833,20.630
0.528,-1.298,0.750,420.654,-39.001,20.447
0.474,-1.272,0.853,371.582,-31.860,19.958
0.473,-1.202,0.916,318.665,-23.865,18.799
0.499,-1.087,0.942,266.785,-15.930,16.785
0.497,-0.969,0.952,220.947,-10.132,16.724
0.489,-0.866,0.937,182.495,-8.301,19.043
0.505,-0.770,0.904,152.344,-8.972,21.484
0.550,-0.742,0.910,129.456,-10.681,22.278
0.580,-0.800,0.957,110.535,-14.893,20.325
0.741,-1.036,1.392,87.830,-26.306,12.085
0.736,-1.043,1.954,39.124,-57.617,-0.854
0.356,-0.890,1.705,-42.664,-75.012,-0.122
0.270,-0.387,0.981,-103.088,-39.124,1.587
0.415,-0.166,0.612,-100.037,-3.540,2.197
0.804,-0.153,0.584,-69.824,26.917,8.423
1.019,-0.130,0.557,-47.058,36.621,11.902
1.032,-0.146,0.443,-36.194,28.809,11.414
1.004,-0.101,0.257,-33.752,16.296,9.827
0.996,-0.042,0.106,-32.654,7.385,7.690
0.995,0.011,-0.005,-29.907,5.249,4.517
1.012,0.050,-0.067,-24.170,7.019,1.221
1.039,0.073,-0.089,-16.541,9.705,-2.441
1.057,0.078,-0.090,-8.606,11.780,-5.127
1.066,0.074,-0.069,-0.671,11.780,-6.897
1.075,0.063,-0.056,5.432,10.803,-7.141
1.083,0.032,-0.039,8.667,8.362,-5.554
1.085,0.002,-0.022,8.972,6.165,-2.625
1.066,-0.024,-0.006,6.470,4.456,1.282
1.043,-0.039,0.016,2.197,3.601,5.005
1.019,-0.041,0.036,-2.625,2.502,7.324
1.020,-0.036,0.062,-6.409,1.526,8.301
0.857,-0.118,0.040,-7.996,-0.549,8.789
0.983,0.045,0.072,-8.667,0.244,6.226
0.941,-0.071,0.146,-5.798,4.211,10.254
0.861,-0.089,0.080,-4.211,4.517,9.277
0.858,-0.086,0.128,-2.136,11.658,6.409
0.919,-0.108,0.152,-2.441,16.602,5.554
0.990,-0.130,0.168,-4.395,15.137,4.944
1.019,-0.105,0.170,-5.493,11.108,2.869
0.976,-0.107,0.155,-5.310,5.493,1.892
0.958,-0.097,0.128,-5.554,2.502,0.000
0.996,-0.097,0.109,-5.676,2.014,-0.671
1.020,-0.108,0.112,-6.470,2.380,-0.427
1.054,-0.098,0.115,-7.629,1.953,-0.854
1.053,-0.071,0.095,-8.301,0.671,-0.610
1.036,-0.087,0.070,-8.240,-0.061,0.610
1.060,-0.069,0.067,-8.301,-0.671,0.854
1.056,-0.062,0.076,-7.080,-1.404,1.709
1.031,-0.064,0.082,-5.676,-2.502,2.197
1.031,-0.062,0.084,-4.150,-3.174,1.404
1.010,-0.067,0.079,-3.174,-3.601,0.916
0.993,-0.078,0.070,-2.502,-3.418,0.671
1.000,-0.071,0.057,-3.113,-1.953,0.916
1.006,-0.066,0.054,-4.456,-0.122,2.258
1.009,-0.069,0.057,-5.188,0.244,3.418
1.001,-0.055,0.063,-5.432,-0.793,3.113
0.988,-0.047,0.071,-4.700,-2.625,2.441
0.991,-0.051,0.078,-3.906,-4.089,1.160
1.003,-0.050,0.088,-3.601,-5.371,-0.488
1.001,-0.046,0.094,-3.174,-6.226,-1.770
0.980,-0.035,0.092,-2.686,-6.226,-1.709
0.968,-0.040,0.080,-2.014,-5.554,-0.732
0.963,-0.049,0.070,-2.136,-4.272,0.183
0.967,-0.048,0.078,-2.502,-2.319,0.366
0.966,-0.048,0.093,-2.197,-1.038,-0.305
0.960,-0.047,0.105,-2.319,-0.366,-1.099
0.956,-0.052,0.105,-2.686,-0.305,-1.831
0.960,-0.062,0.096,-3.174,-0.183,-2.808
0.979,-0.063,0.095,-4.211,0.244,-3.174
0.991,-0.054,0.105,-4.761,0.122,-2.686
0.982,-0.049,0.110,-4.395,-0.732,-1.465
0.963,-0.047,0.111,-4.211,-1.160,-0.488
0.949,-0.040,0.110,-3.906,-0.549,-0.122
0.907,-0.060,0.089,-4.211,1.099,0.061
0.948,-0.039,0.076,-5.615,3.906,-0.549
0.963,-0.047,0.073,-6.042,6.897,0.122
0.989,-0.050,0.073,-6.042,8.240,0.366
1.005,-0.040,0.075,-6.409,8.057,-0.305
1.005,-0.048,0.064,-6.348,6.714,-0.122
1.026,-0.047,0.057,-6.470,5.127,-0.122
1.015,-0.032,0.055,-5.981,3.662,0.061
1.116,-0.053,0.085,-4.700,2.319,1.465
0.977,-0.051,0.062,-3.479,-1.587,0.549
1.103,-0.018,0.078,-2.625,-3.418,0.244
1.087,-0.037,0.114,-0.488,-5.432,2.563
0.999,-0.057,0.059,-0.427,-10.925,3.601
1.001,-0.056,0.095,0.122,-9.766,2.625
1.019,-0.045,0.084,-0.671,-10.132,0.427
0.945,-0.057,0.092,-0.488,-9.155,0.061
0.973,-0.055,0.086,-0.183,-7.080,0.427
0.955,-0.059,0.106,0.244,-5.005,0.305
0.959,-0.065,0.112,0.427,-3.296,0.610
0.977,-0.067,0.117,0.366,-3.540,0.488
0.982,-0.065,0.111,0.366,-4.456,0.671
0.980,-0.071,0.095,0.305,-5.615,0.977
0.967,-0.076,0.081,0.244,-5.615,0.671
0.955,-0.067,0.080,0.244,-3.845,-0.549
0.953,-0.060,0.077,0.305,-1.709,-1.038
0.974,-0.056,0.086,0.916,0.610,-0.977

0.980,-2.921,3.879,222.290,-47.119,-19.836
0.568,-1.578,3.048,-6.348,-96.924,-11.108
-0.075,-0.765,1.332,-182.983,-111.816,0.916
-0.357,-0.592,0.701,-204.651,-65.857,4.333
0.127,-0.467,0.732,-171.387,22.522,9.094
0.830,-0.076,0.824,-137.878,62.744,14.282
1.128,-0.018,0.666,-97.595,52.368,19.226
1.006,-0.090,0.420,-56.091,30.090,20.752
0.900,-0.069,0.217,-27.344,18.127,13.916
0.920,-0.019,0.104,-10.376,21.240,2.380
0.989,0.055,0.029,1.404,27.161,-7.080
1.043,0.119,-0.029,10.376,27.344,-14.893
1.095,0.144,-0.055,17.944,21.729,-20.996
1.139,0.143,-0.050,23.804,13.000,-25.085
1.171,0.130,-0.034,27.893,3.357,-28.015
1.183,0.111,-0.006,29.541,-5.188,-28.748
1.185,0.094,0.027,28.809,-12.390,-26.794
1.157,0.081,0.049,24.780,-18.005,-21.912
1.106,0.063,0.039,18.738,-20.630,-15.625
1.050,0.053,0.014,11.475,-19.226,-8.118
1.000,0.042,-0.010,5.615,-13.794,-1.160
0.975,0.038,-0.024,0.854,-6.775,5.676
0.878,0.008,-0.063,-4.395,0.671,11.536
0.918,0.039,-0.064,-8.545,8.484,15.259
0.944,-0.014,-0.001,-9.277,13.184,19.409
0.937,0.002,-0.046,-9.094,12.085,20.325
0.821,-0.071,-0.038,-5.371,14.465,20.447
0.986,-0.039,0.055,-0.244,20.935,15.503
1.016,-0.082,0.083,3.723,18.921,11.841
0.979,-0.129,0.097,4.944,11.047,6.104
0.931,-0.121,0.044,4.395,4.761,1.282
0.974,-0.108,0.095,4.028,4.211,0.916
1.009,-0.111,0.088,2.625,3.601,3.296
1.008,-0.224,0.141,1.282,4.822,6.042
1.095,-0.142,0.161,-3.296,3.479,2.747
1.029,-0.120,0.137,-5.310,0.488,4.639
0.960,-0.195,0.162,-4.761,4.211,7.019
1.090,-0.111,0.198,-5.432,6.897,4.333
1.090,-0.152,0.239,-4.822,6.165,5.371
1.035,-0.141,0.218,-4.517,0.427,3.845
1.033,-0.112,0.198,-3.418,-2.869,1.831
1.052,-0.097,0.181,-1.953,-4.822,0.854
1.034,-0.104,0.161,-0.610,-6.775,0.305
1.025,-0.094,0.136,0.000,-8.423,-0.854
1.012,-0.079,0.114,-0.183,-9.338,-1.892
0.988,-0.066,0.088,-0.610,-10.193,-2.319
0.971,-0.047,0.072,-1.465,-9.766,-2.441
0.958,-0.030,0.068,-0.977,-8.301,-2.625
0.956,-0.021,0.069,-0.244,-6.653,-2.441
0.955,-0.019,0.070,1.160,-5.737,-1.831
0.953,-0.020,0.070,2.563,-5.005,-1.770
0.957,-0.021,0.064,3.540,-4.578,-1.709
0.967,-0.025,0.060,3.540,-3.906,-1.526
0.960,-0.023,0.053,3.113,-3.845,-1.404
0.949,-0.023,0.045,1.953,-4.150,-1.221
0.951,-0.024,0.041,0.610,-4.211,-0.916
0.955,-0.023,0.044,0.122,-3.784,-1.160
0.958,-0.018,0.042,0.061,-3.296,-1.404
0.959,-0.018,0.050,-0.183,-2.441,-0.732
0.958,-0.022,0.067,0.549,-1.648,0.061
0.966,-0.029,0.086,1.221,-0.671,0.732
0.979,-0.043,0.106,1.526,0.061,1.038
0.986,-0.051,0.123,1.404,0.244,0.549
0.994,-0.053,0.132,1.404,0.244,-0.488
1.001,-0.052,0.130,0.732,0.427,-1.038
1.002,-0.059,0.118,0.183,0.610,-0.488
1.006,-0.050,0.104,-0.183,1.404,0.488
1.006,-0.048,0.097,-0.061,2.869,1.465
1.009,-0.048,0.100,-0.061,4.089,2.014
1.008,-0.056,0.098,0.122,3.784,2.014
1.010,-0.042,0.087,-0.061,2.502,1.282
0.999,-0.047,0.100,0.854,2.014,2.380
1.002,-0.100,0.112,0.977,-0.122,2.502
1.068,-0.010,0.111,-0.244,-3.845,-1.282
1.012,-0.070,0.115,0.671,-7.935,2.136
1.026,-0.071,0.092,0.549,-12.024,2.930
0.967,-0.053,0.084,0.061,-12.634,1.831
0.914,-0.058,0.065,-0.122,-9.949,1.160
0.935,-0.052,0.075,-0.366,-4.150,0.916
0.967,-0.054,0.115,-0.671,1.404,1.038
0.998,-0.052,0.144,-1.221,1.282,1.343
0.989,-0.051,0.143,-1.587,-2.136,1.709
0.952,-0.060,0.125,-2.075,-5.005,1.709
0.960,-0.071,0.107,-2.136,-5.127,1.038
0.976,-0.061,0.103,-2.747,-3.235,0.549
0.972,-0.053,0.103,-2.319,-1.099,0.366
0.954,-0.057,0.115,-1.404,1.038,0.366
0.932,-0.034,0.116,-1.038,2.197,0.305
0.885,-0.053,0.115,-0.183,4.150,1.282
0.995,-0.052,0.149,0.610,8.606,0.793
0.961,-0.093,0.169,-0.183,8.545,-0.793
1.008,-0.077,0.142,-3.418,3.296,-3.601
1.007,-0.064,0.151,-4.333,-0.610,-3.967
0.985,-0.080,0.128,-4.883,-5.859,-2.930
1.015,-0.080,0.121,-5.371,-9.033,-2.991
1.043,-0.078,0.129,-5.371,-8.545,-3.601
1.030,-0.075,0.132,-6.042,-8.423,-4.089
1.040,-0.083,0.135,-5.920,-8.667,-4.395
1.058,-0.076,0.146,-5.310,-8.240,-4.944
1.035,-0.083,0.165,-4.883,-7.690,-3.784
1.007,-0.083,0.155,-5.310,-7.996,-2.808
1.031,-0.066,0.149,-7.202,-5.981,-0.854
1.002,-0.099,0.161,-10.254,-2.502,2.197
0.949,-0.115,0.164,-14.954,-1.099,2.625
1.032,-0.073,0.171,-20.264,-0.732,1.099
1.027,-0.078,0.193,-24.292,-1.282,1.770
0.990,-0.114,0.198,-27.771,-4.578,3.052
1.011,-0.094,0.190,-31.738,-9.399,2.197
1.000,-0.091,0.214,-35.217,-12.390,1.648
1.003,-0.103,0.226,-39.368,-15.320,1.343
1.019,-0.086,0.220,-44.434,-17.700,0.122
0.984,-0.118,0.240,-48.828,-18.860,-0.671
1.004,-0.069,0.214,-53.162,-22.095,-2.197
0.976,-0.094,0.219,-54.932,-23.437,-1.648
0.968,-0.077,0.206,-55.725,-22.400,-2.136
0.954,-0.065,0.200,-55.786,-19.714,-0.488
0.964,-0.062,0.193,-54.932,-15.686,1.587
1.001,-0.055,0.184,-53.833,-10.620,4.028
0.974,-0.070,0.184,-52.307,-5.920,6.714

1.723,-0.166,-0.888,137.756,21.301,18.616
1.771,-0.206,-0.889,172.241,30.823,27.039
1.782,-0.267,-0.879,207.581,41.199,39.612
1.771,-0.315,-0.856,241.333,50.903,53.772
1.771,-0.414,-0.838,272.400,58.777,67.627
1.706,-0.476,-0.803,302.917,64.636,77.454
1.628,-0.497,-0.736,331.543,69.824,82.642
1.544,-0.552,-0.662,359.436,75.623,83.069
1.422,-0.588,-0.564,385.010,83.374,81.604
1.259,-0.623,-0.469,407.471,91.431,80.933
1.118,-0.670,-0.371,427.063,96.008,81.909
1.043,-0.705,-0.206,445.557,97.717,83.740
1.022,-0.757,-0.007,465.515,94.666,83.984
1.004,-0.852,0.142,485.779,82.764,80.200
0.950,-0.975,0.366,503.235,64.453,70.557
0.931,-1.060,0.613,516.541,42.297,56.213
0.868,-1.161,0.752,519.165,10.254,45.898
0.693,-1.216,0.855,509.521,-22.827,39.368
0.449,-1.240,0.894,484.192,-47.485,36.560
0.221,-1.243,0.904,438.782,-57.434,35.461
0.060,-1.173,0.911,378.357,-46.997,33.325
-0.005,-1.055,0.915,312.378,-20.386,29.907
0.032,-0.938,0.930,250.610,11.719,28.442
0.137,-0.909,0.986,198.608,40.222,29.541
0.283,-1.054,1.163,152.466,57.495,29.724
0.281,-1.425,1.709,103.271,57.190,24.109
0.318,-1.184,2.209,23.315,45.654,11.108
0.389,-0.805,1.734,-67.871,23.193,-0.793
0.405,-0.540,1.052,-121.948,12.817,-3.052
0.521,-0.329,0.731,-121.887,24.048,-1.892
0.775,-0.104,0.608,-97.717,38.147,-0.244
1.012,0.026,0.507,-66.650,41.199,0.183
1.088,0.010,0.392,-36.133,34.485,0.122
1.083,-0.009,0.282,-15.076,26.611,-2.747
1.110,0.029,0.185,-4.578,20.996,-6.287
1.137,0.090,0.096,0.549,15.991,-9.827
1.161,0.127,0.016,3.235,10.864,-12.939
1.185,0.153,-0.040,5.554,6.531,-15.320
1.203,0.164,-0.046,8.850,4.456,-16.541
1.220,0.144,-0.013,13.184,2.686,-15.930
1.223,0.121,0.023,16.418,-0.732,-13.977
1.208,0.105,0.048,18.799,-4.822,-10.193
1.142,0.089,0.056,19.836,-9.277,-5.188
1.052,0.066,0.060,20.508,-11.902,-0.305
0.963,0.034,0.038,19.836,-12.451,3.662
0.896,0.008,0.019,17.517,-9.766,5.737
0.850,0.002,0.010,14.709,-4.333,6.470
0.829,-0.004,0.028,13.123,2.136,6.165
0.852,-0.017,0.046,13.062,6.897,4.761
0.882,-0.035,0.051,12.207,8.301,3.113
0.889,-0.041,0.059,11.353,8.118,2.869
0.879,-0.044,0.075,10.742,7.202,2.869
0.870,-0.043,0.099,10.803,7.507,2.563
0.883,-0.057,0.120,10.498,9.766,1.892
0.938,-0.072,0.108,9.338,12.207,0.793
0.976,-0.061,0.095,6.592,13.489,0.793
1.001,-0.045,0.092,4.517,14.160,2.197
1.012,-0.043,0.112,3.967,14.526,3.418
1.024,-0.039,0.138,4.089,12.634,3.418
1.005,-0.049,0.167,4.150,9.766,2.686
1.033,-0.043,0.162,4.700,6.531,0.610
1.089,-0.052,0.169,3.967,3.113,-0.488
1.082,-0.055,0.137,2.075,-0.793,1.404
1.088,-0.043,0.124,0.671,-3.296,2.869
1.080,-0.032,0.118,0.488,-3.845,4.028
1.061,-0.024,0.115,1.160,-3.052,4.883
1.048,-0.027,0.124,3.052,-2.686,4.639
1.036,-0.043,0.125,4.639,-2.502,3.784
1.046,-0.040,0.121,5.737,-2.869,1.892
1.045,-0.033,0.117,6.409,-4.272,0.427
1.024,-0.027,0.110,6.714,-6.226,0.000
1.000,-0.027,0.107,6.165,-7.935,0.122
0.989,-0.025,0.110,5.615,-8.789,0.183
0.975,-0.029,0.114,5.249,-9.583,0.061
0.958,-0.033,0.105,5.066,-10.071,-0.366
0.954,-0.029,0.097,4.761,-9.705,-0.793
0.958,-0.021,0.100,5.127,-8.789,-1.221
0.963,-0.020,0.108,5.615,-7.446,-1.526
0.964,-0.019,0.112,5.859,-6.348,-1.587
0.958,-0.019,0.105,5.798,-5.798,-1.587
0.959,-0.022,0.092,4.761,-4.883,-1.404
0.963,-0.018,0.088,4.028,-3.540,-1.160
0.967,-0.012,0.092,3.601,-2.136,-0.488
0.968,-0.014,0.098,3.418,-1.160,0.122
0.966,-0.019,0.106,3.235,-0.610,0.244
0.963,-0.021,0.113,3.296,0.000,-0.183
0.959,-0.028,0.122,2.869,1.038,-0.732
0.958,-0.035,0.131,2.625,2.563,-1.526
0.961,-0.037,0.128,1.953,4.700,-2.136
0.983,-0.033,0.128,0.854,6.531,-1.953
1.004,-0.025,0.135,0.427,7.324,-0.366
1.001,-0.023,0.136,-0.122,6.409,1.465
0.975,-0.021,0.131,-0.427,4.578,2.563
0.962,-0.026,0.121,-0.183,3.784,2.502
1.038,-0.018,0.126,-0.549,4.517,1.648
1.023,-0.030,0.112,-1.160,3.113,1.404
0.998,-0.027,0.102,-1.404,1.892,1.953
1.013,-0.009,0.118,-1.038,0.854,1.465
0.948,0.005,0.094,-0.305,-1.343,0.671
1.001,-0.014,0.124,0.427,-0.366,1.587
1.033,-0.050,0.114,-0.244,-1.465,2.136
0.931,-0.027,0.098,-0.977,-3.723,2.258
1.036,0.005,0.120,-1.282,-3.601,1.343
1.020,-0.012,0.121,-1.038,-5.554,1.526
0.977,-0.020,0.111,-0.671,-8.423,2.075
0.969,-0.030,0.098,0.183,-8.484,1.892
0.974,-0.025,0.107,0.854,-5.432,0.610
0.969,-0.016,0.117,1.404,-2.258,-0.122
0.978,-0.032,0.127,1.770,-0.122,1.160
0.974,-0.027,0.123,1.404,0.793,1.770
0.975,-0.028,0.132,0.977,1.343,2.136
0.993,-0.032,0.134,0.488,0.427,2.014
1.017,-0.055,0.141,-0.549,-1.160,1.282
0.942,-0.010,0.123,-1.221,-3.296,-1.099
1.027,-0.102,0.140,-0.366,-3.479,-1.404
1.026,-0.008,0.148,-1.221,-5.615,-5.432
0.986,-0.011,0.159,-0.366,-8.423,-4.211
1.020,-0.048,0.117,0.977,-12.146,-1.648
0.937,-0.029,0.135,1.953,-9.888,-1.282

1.541,-0.204,-0.949,143.677,-5.066,-5.798
1.576,-0.289,-0.953,180.237,-11.414,-2.502
1.557,-0.370,-0.940,213.257,-16.296,3.174
1.498,-0.441,-0.904,243.042,-16.602,11.230
1.431,-0.488,-0.844,268.982,-11.475,20.752
1.383,-0.534,-0.762,292.297,-1.343,29.602
1.356,-0.593,-0.681,313.416,11.353,35.278
1.315,-0.614,-0.608,332.520,23.804,35.889
1.288,-0.604,-0.523,350.952,36.621,34.180
1.282,-0.592,-0.437,370.728,48.401,31.433
1.277,-0.595,-0.362,392.639,56.091,29.663
1.275,-0.626,-0.303,415.161,58.228,29.358
1.273,-0.644,-0.241,437.317,57.068,29.358
1.272,-0.700,-0.164,457.764,53.650,29.846
1.256,-0.774,-0.085,473.083,47.302,30.273
1.207,-0.805,-0.019,481.689,37.964,29.480
1.155,-0.841,0.030,487.671,27.466,27.466
1.111,-0.885,0.096,489.380,16.663,24.170
1.065,-0.923,0.194,487.793,7.874,19.348
1.017,-0.971,0.281,480.408,-1.160,14.771
0.966,-1.002,0.372,464.172,-10.864,11.597
0.872,-0.997,0.453,439.636,-20.752,10.193
0.744,-0.946,0.497,408.447,-28.442,10.620
0.646,-0.906,0.517,374.207,-31.555,12.634
0.585,-0.866,0.531,338.684,-28.992,16.235
0.525,-0.819,0.557,302.917,-20.874,20.203
0.476,-0.785,0.584,271.179,-10.559,25.208
0.450,-0.758,0.627,243.530,0.000,29.297
0.449,-0.724,0.687,219.299,11.902,31.250
0.482,-0.698,0.737,200.256,22.339,30.762
0.533,-0.669,0.759,184.570,28.625,27.954
0.577,-0.647,0.784,170.349,31.860,22.888
0.629,-0.656,0.810,156.921,31.311,16.235
0.679,-0.705,0.924,141.357,22.339,5.127
0.822,-0.790,1.268,120.544,4.272,-5.920
0.776,-0.877,1.522,78.613,-26.062,-10.986
0.662,-0.671,1.357,14.954,-47.791,-11.841
0.484,-0.379,0.939,-36.987,-48.706,-12.024
0.465,-0.287,0.682,-58.411,-27.832,-10.132
0.674,-0.193,0.537,-61.340,0.366,-7.080
0.851,-0.049,0.406,-56.213,20.020,-3.784
0.919,0.015,0.297,-43.213,27.466,-0.183
0.958,0.016,0.195,-26.428,26.978,2.625
0.989,0.026,0.108,-12.817,25.513,2.563
0.993,0.057,0.055,-2.930,26.733,0.488
1.004,0.080,0.010,3.967,27.893,-1.831
1.055,0.088,-0.022,8.545,28.564,-3.906
1.110,0.086,-0.035,11.780,27.283,-5.981
1.142,0.084,-0.040,13.733,23.254,-6.470
1.156,0.071,-0.036,14.404,17.090,-5.493
1.157,0.055,-0.019,14.709,9.644,-3.601
1.128,0.045,0.001,15.198,1.221,-1.892
1.091,0.031,0.009,16.418,-6.470,-0.977
1.041,0.018,0.011,17.090,-11.902,-1.404
0.997,0.011,0.011,18.250,-13.916,-2.380
0.961,0.014,0.007,18.738,-12.451,-2.808
0.939,0.016,0.005,17.883,-8.545,-2.869
0.945,0.015,0.007,15.320,-4.272,-1.892
0.973,0.002,0.011,12.451,-1.709,-0.427
1.008,-0.012,0.008,8.911,-1.892,1.221
0.916,-0.031,-0.002,5.676,-4.272,2.747
0.972,-0.000,-0.036,3.540,-5.554,3.357
0.996,-0.033,0.011,5.127,-1.648,4.517
1.029,-0.064,0.068,5.615,-2.075,4.211
0.939,0.004,0.070,4.700,-7.935,1.587
1.084,-0.033,0.054,7.385,-8.240,3.662
0.913,-0.077,0.112,8.545,-8.972,4.150
0.995,-0.037,0.071,7.446,-11.169,2.441
0.952,-0.056,0.119,7.996,-8.057,2.625
0.989,-0.060,0.089,6.775,-8.179,3.174
0.952,-0.085,0.094,5.310,-6.287,2.686
0.985,-0.055,0.094,4.089,-4.089,1.465
0.996,-0.065,0.098,3.845,-2.319,2.014
1.001,-0.071,0.085,3.174,-1.892,2.319
1.018,-0.059,0.087,3.235,-0.549,2.441
1.020,-0.060,0.094,3.662,0.732,3.113
1.020,-0.058,0.088,3.662,1.038,3.174
1.019,-0.047,0.091,3.784,1.221,2.747
1.015,-0.041,0.094,3.662,1.282,2.563
1.011,-0.036,0.096,3.601,0.793,2.075
1.010,-0.034,0.090,3.174,-0.305,1.465
1.007,-0.033,0.086,2.991,-1.343,0.732
1.000,-0.031,0.088,2.808,-2.563,0.244
0.993,-0.031,0.082,3.601,-3.967,-0.427
0.984,-0.033,0.075,3.296,-4.761,-0.366
0.973,-0.034,0.071,2.869,-4.944,-0.244
0.960,-0.032,0.066,2.502,-4.395,-0.366
0.950,-0.032,0.064,2.197,-3.479,-0.183
0.954,-0.033,0.069,2.014,-2.014,0.122
0.960,-0.034,0.073,1.953,-0.916,-0.427
0.941,-0.038,0.078,1.343,0.305,-0.488
0.942,-0.039,0.073,0.488,1.160,-0.488
0.960,-0.043,0.066,-0.793,2.808,-0.610
0.974,-0.029,0.064,-2.075,5.737,-0.610
1.019,-0.004,0.086,-2.991,7.202,0.183
0.973,-0.056,0.076,-3.174,4.700,3.235
1.020,-0.065,0.100,-3.906,2.380,2.258
1.013,0.001,0.059,-4.761,-1.343,-0.488
0.929,-0.040,0.076,-3.540,-1.282,1.526
1.083,-0.045,0.104,-3.052,1.099,1.343
1.048,-0.035,0.116,-3.601,-0.244,-1.099
1.037,-0.031,0.104,-4.578,-4.395,-1.465
1.040,-0.033,0.093,-5.127,-7.812,-0.061
1.017,-0.026,0.093,-5.188,-9.460,0.183
0.998,-0.027,0.085,-5.066,-10.193,0.488
0.981,-0.040,0.081,-4.761,-9.155,0.610
0.972,-0.031,0.078,-4.883,-6.775,0.061
0.955,-0.027,0.085,-4.944,-3.174,0.671
0.957,-0.041,0.087,-5.005,0.061,2.014
0.957,-0.036,0.091,-5.249,2.991,2.563
0.953,-0.042,0.098,-5.127,4.395,3.052
0.957,-0.047,0.106,-5.249,4.639,3.052
0.957,-0.048,0.105,-5.249,3.845,2.075
0.940,-0.053,0.097,-5.737,2.930,0.977
0.941,-0.045,0.102,-5.798,2.808,0.061
0.957,-0.036,0.112,-5.981,3.357,-1.221
0.973,-0.035,0.113,-6.348,3.052,-1.587
0.987,-0.038,0.112,-7.019,1.770,-1.465
0.998,-0.035,0.110,-7.263,0.488,-1.282

1.269,-0.354,-0.931,134.583,21.667,2.380
1.276,-0.382,-0.937,158.691,24.719,5.371
1.300,-0.438,-0.920,185.547,28.137,8.301
1.341,-0.548,-0.922,212.891,31.311,9.644
1.369,-0.649,-0.939,237.671,34.729,9.705
1.370,-0.732,-0.957,260.742,39.124,9.033
1.391,-0.845,-1.005,284.058,46.265,7.751
1.428,-0.907,-1.003,306.885,55.054,7.446
1.498,-0.987,-0.987,329.529,63.477,9.705
1.617,-1.129,-1.036,352.539,67.139,9.155
1.650,-1.120,-1.016,373.413,67.383,7.568
1.576,-1.030,-0.898,398.010,65.735,10.437
1.505,-1.045,-0.777,427.795,59.387,17.212
1.480,-1.104,-0.674,457.581,46.997,23.376
1.442,-1.064,-0.484,486.389,32.227,26.917
1.394,-1.016,-0.267,518.677,12.207,28.687
1.334,-1.031,-0.060,553.833,-16.724,29.480
1.258,-1.110,0.117,588.501,-55.176,29.419
1.084,-1.222,0.127,614.258,-100.586,31.006
0.805,-1.399,0.158,622.864,-142.639,34.363
0.568,-1.574,0.308,611.084,-168.701,35.217
0.370,-1.592,0.476,578.369,-181.458,36.560
0.103,-1.543,0.641,532.959,-176.086,38.208
-0.117,-1.540,0.894,478.455,-149.780,33.630
-0.200,-1.498,1.141,416.382,-112.671,24.231
-0.161,-1.390,1.366,353.394,-75.195,14.160
-0.198,-1.504,1.596,292.725,-42.114,6.836
-0.200,-2.241,2.701,229.187,-16.663,0.916
-0.660,-2.311,4.000,101.257,-4.211,-11.353
-0.542,-0.946,2.431,-93.994,27.954,-12.878
-0.016,-0.655,1.278,-163.208,40.466,-3.845
0.452,-0.292,0.953,-142.517,55.237,0.610
0.759,-0.022,0.698,-104.065,51.147,5.127
0.859,0.011,0.414,-67.566,34.485,5.432
0.906,-0.021,0.238,-42.664,24.963,-1.892
1.032,0.030,0.067,-34.851,15.991,-11.780
1.123,0.161,-0.070,-34.424,7.019,-22.156
1.135,0.284,-0.161,-29.541,-2.197,-29.602
1.177,0.346,-0.217,-17.639,-11.719,-34.546
1.229,0.359,-0.246,-1.831,-18.616,-37.903
1.266,0.349,-0.219,13.794,-21.240,-39.429
1.286,0.329,-0.175,25.391,-20.813,-38.086
1.246,0.302,-0.133,34.607,-20.752,-33.386
1.157,0.267,-0.096,42.236,-19.531,-25.452
1.085,0.219,-0.067,48.401,-14.709,-14.282
1.028,0.156,-0.036,51.392,-6.592,-2.075
0.977,0.100,0.021,50.232,2.197,7.874
0.943,0.063,0.072,45.776,9.155,13.855
0.880,-0.021,0.127,40.161,12.878,17.273
0.865,-0.069,0.239,32.349,13.489,17.700
0.902,-0.070,0.305,20.996,9.338,15.564
0.893,-0.103,0.303,9.583,1.709,13.428
0.843,-0.098,0.266,1.953,-3.967,9.644
0.837,-0.053,0.243,-0.916,-4.272,6.104
0.903,-0.035,0.244,-0.488,-1.221,5.188
0.904,-0.091,0.256,0.732,1.343,5.920
0.929,-0.040,0.217,0.366,2.258,5.066
0.872,-0.050,0.200,0.427,4.944,6.836
0.860,-0.063,0.187,0.183,9.216,6.775
0.858,-0.036,0.149,0.244,15.381,5.981
1.094,-0.050,0.213,0.183,21.362,5.554
1.097,-0.060,0.229,-1.953,14.404,3.174
1.078,-0.025,0.176,-3.479,0.549,1.343
1.020,-0.016,0.151,-2.563,-7.568,-0.183
1.044,-0.005,0.128,-0.793,-10.803,-2.258
1.053,-0.029,0.126,1.221,-9.399,-2.930
1.058,0.003,0.121,1.892,-8.423,-3.357
1.054,0.018,0.124,2.563,-6.592,-2.014
1.066,0.014,0.106,2.319,-4.578,1.038
1.078,0.018,0.095,1.404,-2.441,3.784
1.056,0.018,0.099,1.709,-0.366,5.615
1.014,0.001,0.105,2.380,0.366,6.165
1.027,0.005,0.115,3.235,-0.122,4.700
0.997,-0.001,0.128,3.784,-1.221,3.296
0.969,0.001,0.151,4.089,-2.502,2.502
0.958,-0.008,0.149,4.395,-3.662,2.991
0.936,-0.028,0.163,4.272,-2.686,2.686
0.955,-0.010,0.181,3.357,-1.465,1.038
0.945,-0.011,0.192,2.380,-1.770,0.427
0.939,-0.013,0.178,1.465,-3.052,-0.244
0.942,-0.001,0.177,0.305,-2.930,-1.221
0.936,-0.000,0.172,0.000,-2.502,-1.648
0.931,0.007,0.168,-0.183,-1.831,-2.075
0.935,0.013,0.165,-0.427,-0.671,-2.136
0.935,0.019,0.164,-0.427,0.793,-2.136
0.940,0.021,0.165,0.061,2.197,-1.831
0.949,0.018,0.170,0.183,3.601,-1.648
0.955,0.014,0.181,0.427,4.822,-2.258
0.969,-0.001,0.191,-0.061,4.333,-3.296
1.014,-0.003,0.197,-1.587,1.770,-5.432
1.044,0.045,0.182,-2.258,-1.770,-6.470
1.006,0.014,0.177,-0.916,-3.418,-3.662
1.000,0.016,0.155,-1.099,-4.578,-2.747
0.950,0.048,0.121,-1.343,-2.930,-2.136
0.893,0.073,0.066,-0.366,3.540,0.671
0.952,0.001,0.146,1.099,14.832,4.517
0.898,0.061,0.104,-0.122,16.052,3.113
1.041,0.001,0.154,-0.610,14.648,4.639
1.063,0.085,0.189,-1.221,9.583,3.052
1.138,-0.044,0.174,-0.854,-0.916,4.944
0.959,0.013,0.158,-2.136,-13.184,1.099
0.881,-0.007,0.107,-1.404,-14.893,1.343
0.933,0.006,0.137,-0.732,-5.798,-0.427
1.000,-0.003,0.202,-0.061,2.991,-0.916
1.064,-0.010,0.236,-0.244,1.038,-1.160
1.041,-0.017,0.220,-0.244,-5.066,-0.366
0.966,-0.021,0.182,-0.732,-10.193,-0.366
0.944,-0.014,0.165,-1.343,-9.521,-1.709
0.952,0.000,0.161,-1.892,-5.249,-2.686
0.956,0.008,0.165,-2.197,-1.953,-2.380
0.965,0.007,0.158,-2.625,-0.854,-1.282
0.947,0.010,0.151,-2.991,-0.610,-0.549
0.891,0.015,0.135,-2.991,-0.122,-0.183
0.900,0.007,0.132,-2.441,2.808,0.977
0.987,-0.039,0.137,-1.831,6.653,0.854
0.998,-0.038,0.170,-2.502,8.850,-3.296
1.128,0.033,0.208,-2.869,6.531,-5.981
1.074,-0.020,0.207,-2.747,-2.991,-3.296
1.008,-0.014,0.171,-3.296,-12.390,-2.686

1.540,-0.208,-1.031,90.393,8.728,1.221
1.657,-0.285,-1.144,115.845,10.437,5.066
1.793,-0.349,-1.221,141.907,9.277,9.277
1.856,-0.385,-1.241,170.105,6.165,13.733
1.884,-0.425,-1.238,197.693,1.099,20.996
1.865,-0.490,-1.259,224.670,-3.296,30.701
1.782,-0.556,-1.249,250.366,-3.113,40.771
1.651,-0.592,-1.203,273.376,4.333,49.683
1.554,-0.592,-1.096,295.715,21.240,56.641
1.528,-0.614,-0.953,319.092,41.687,61.340
1.475,-0.642,-0.796,341.125,60.486,64.209
1.433,-0.620,-0.602,360.657,74.585,65.491
1.410,-0.676,-0.442,378.723,80.627,68.481
1.326,-0.717,-0.350,389.099,78.186,70.679
1.187,-0.730,-0.297,392.517,70.251,73.242
1.070,-0.727,-0.229,393.555,62.988,73.669
1.008,-0.751,-0.172,394.958,60.303,70.984
0.974,-0.772,-0.106,394.775,60.120,64.941
0.960,-0.759,0.057,394.897,63.599,55.420
0.957,-0.765,0.180,395.752,65.674,45.410
0.951,-0.780,0.267,392.456,63.171,38.025
0.892,-0.769,0.337,384.277,57.556,32.898
0.804,-0.755,0.387,371.887,50.049,30.701
0.713,-0.750,0.405,355.469,44.495,30.579
0.645,-0.734,0.437,336.975,43.823,29.785
0.659,-0.714,0.502,318.665,47.607,27.405
0.723,-0.681,0.580,301.880,50.659,22.705
0.770,-0.638,0.686,289.490,49.744,16.113
0.814,-0.616,0.796,281.738,42.114,9.277
0.820,-0.585,0.870,274.780,27.710,1.221
0.793,-0.566,0.910,267.029,10.193,-6.592
0.762,-0.551,0.925,256.531,-7.019,-14.771
0.719,-0.540,0.916,242.981,-21.912,-22.461
0.690,-0.546,0.904,226.074,-32.715,-29.541
0.706,-0.587,0.912,206.543,-40.771,-35.278
0.771,-0.872,1.151,182.678,-49.927,-38.025
0.905,-0.903,1.743,139.771,-66.956,-32.715
0.635,-0.916,1.779,60.303,-91.370,-18.188
0.370,-0.577,1.320,-27.649,-69.153,-7.385
0.329,-0.265,0.810,-75.500,-25.940,-7.507
0.563,-0.109,0.573,-76.538,16.541,-6.287
0.885,0.022,0.488,-57.495,42.908,-2.869
1.078,0.068,0.398,-35.095,44.189,0.427
1.120,0.033,0.263,-17.273,28.442,2.136
1.147,0.040,0.146,-7.141,11.169,0.305
1.008,0.091,0.003,-2.686,0.183,-3.906
1.073,0.110,0.030,1.709,-0.854,-9.033
1.183,0.238,-0.032,5.859,-6.714,-10.742
1.035,0.138,-0.021,11.597,-12.817,-5.676
1.020,0.151,-0.023,15.747,-12.878,-5.798
1.066,0.139,0.021,18.799,-11.780,-6.531
1.064,0.130,0.062,19.348,-11.108,-6.897
1.043,0.107,0.088,18.921,-11.414,-4.395
1.009,0.072,0.099,17.212,-11.597,-1.343
0.993,0.059,0.109,14.282,-11.108,1.282
0.929,0.052,0.112,10.803,-10.010,2.625
0.876,0.049,0.106,8.423,-8.057,2.930
0.843,0.053,0.094,6.409,-4.211,3.296
0.842,0.053,0.078,4.089,0.610,3.601
0.869,0.049,0.081,2.136,5.432,3.540
0.856,0.053,0.071,0.854,7.385,3.296
0.838,0.055,0.058,-0.488,9.338,3.479
0.897,0.057,0.073,-0.916,12.512,3.357
0.955,0.058,0.083,-1.282,13.977,3.479
0.967,0.051,0.098,-0.916,13.611,3.662
1.007,0.045,0.122,-0.427,12.024,2.869
1.033,0.041,0.136,-0.854,8.301,2.014
1.059,0.038,0.141,-2.136,3.662,0.854
1.059,0.039,0.129,-3.174,-1.587,-0.122
1.051,0.054,0.120,-3.357,-4.639,-0.366
1.031,0.055,0.115,-2.991,-5.371,0.671
1.025,0.053,0.125,-2.197,-4.150,1.770
1.007,0.047,0.142,-1.221,-2.075,2.808
0.999,0.046,0.154,-0.244,-0.305,2.747
0.997,0.043,0.165,-0.305,1.160,2.319
0.986,0.041,0.174,-0.549,1.709,2.014
0.979,0.047,0.183,-0.671,1.526,1.770
0.986,0.044,0.177,-0.549,0.916,1.038
0.989,0.044,0.163,-1.526,0.671,0.305
0.979,0.053,0.158,-2.808,0.793,0.244
0.973,0.061,0.144,-3.662,1.343,0.244
0.988,0.058,0.129,-4.517,2.075,0.061
0.989,0.063,0.109,-5.615,2.380,-0.305
0.982,0.074,0.100,-6.165,2.502,-0.366
0.981,0.083,0.092,-6.836,2.502,0.366
0.980,0.087,0.086,-6.775,2.380,0.671
0.970,0.092,0.085,-6.165,2.258,0.793
0.966,0.091,0.084,-5.676,1.892,0.122
0.965,0.092,0.085,-4.639,1.953,-0.854
0.952,0.096,0.089,-2.747,1.770,-1.892
0.935,0.097,0.093,-0.793,2.075,-2.563
0.907,0.102,0.094,1.282,3.235,-2.991
0.894,0.094,0.094,3.052,5.127,-3.296
0.969,0.063,0.107,3.845,7.690,-4.395
0.980,0.123,0.097,2.869,7.263,-7.263
0.985,0.109,0.092,3.052,6.104,-5.493
0.989,0.090,0.101,2.319,4.822,-2.563
0.930,0.100,0.076,-0.122,1.221,-0.183
0.916,0.039,0.083,-1.526,1.465,1.404
1.039,0.104,0.078,-3.296,3.845,-1.038
0.972,0.071,0.102,-3.601,5.798,0.305
0.951,0.066,0.065,-3.601,5.615,1.404
0.963,0.068,0.071,-3.845,8.240,1.404
0.965,0.084,0.074,-3.357,11.597,1.709
0.975,0.069,0.083,-2.625,13.489,2.991
1.028,0.065,0.090,-3.174,12.390,3.540
1.039,0.065,0.092,-3.418,8.911,3.357
1.001,0.060,0.079,-3.418,4.578,3.601
1.001,0.047,0.069,-2.930,1.892,2.686
0.997,0.057,0.082,-1.709,2.258,0.488
1.001,0.053,0.095,0.061,3.235,-0.549
1.022,0.052,0.109,1.892,3.845,-1.526
1.016,0.050,0.106,2.930,3.113,-1.953
1.001,0.040,0.094,3.540,2.502,-1.892
0.991,0.037,0.096,3.174,3.357,-1.404
0.977,0.023,0.103,2.808,4.700,-1.160
0.975,0.017,0.111,2.075,5.737,-1.953
0.994,0.021,0.130,1.221,5.676,-2.930
1.078,0.024,0.142,0.977,4.211,-3.296

1.490,-0.120,-1.290,109.680,6.775,-25.574
1.586,-0.152,-1.334,142.273,5.798,-25.330
1.633,-0.209,-1.382,177.979,2.014,-22.156
1.675,-0.324,-1.477,213.684,-4.639,-17.334
1.669,-0.395,-1.511,248.352,-9.033,-13.794
1.620,-0.459,-1.461,283.203,-8.606,-8.240
1.570,-0.564,-1.423,317.200,-7.690,-1.099
1.503,-0.638,-1.342,348.999,-4.578,5.127
1.405,-0.700,-1.189,379.639,3.601,10.925
1.338,-0.785,-1.056,407.410,13.367,15.137
1.255,-0.826,-0.902,432.983,23.010,15.930
1.217,-0.855,-0.681,457.825,35.461,15.503
1.208,-0.918,-0.444,481.445,46.143,15.259
1.181,-0.979,-0.263,499.146,47.913,14.648
1.107,-1.016,-0.125,511.292,43.945,12.085
1.000,-1.100,-0.039,515.564,38.696,10.559
0.938,-1.202,0.041,508.484,33.264,9.399
0.943,-1.233,0.200,489.685,31.616,8.301
0.818,-1.155,0.397,468.506,29.236,8.606
0.930,-1.182,0.516,447.327,21.667,13.062
0.829,-1.224,0.671,420.776,12.695,15.442
0.710,-1.175,0.728,385.193,-7.324,12.451
0.624,-1.138,0.804,346.069,-17.883,8.606
0.602,-1.049,0.824,303.223,-22.461,6.287
0.568,-0.959,0.874,263.550,-21.912,3.479
0.521,-0.834,0.845,228.455,-23.315,0.244
0.513,-0.772,0.832,198.730,-21.973,1.160
0.517,-0.753,0.810,173.279,-19.409,2.563
0.606,-0.802,0.883,152.710,-17.395,1.709
0.985,-1.221,1.386,131.531,-25.818,-2.319
1.274,-1.102,2.389,92.712,-75.317,-16.602
0.630,-1.339,2.257,4.822,-151.917,-7.996
-0.153,-0.743,1.189,-85.266,-111.877,2.747
0.070,-0.148,0.607,-94.910,-28.931,12.085
0.756,-0.191,0.608,-69.458,12.329,10.010
0.986,-0.192,0.688,-39.124,40.955,6.104
0.985,-0.171,0.513,-23.743,43.518,6.348
1.082,-0.091,0.332,-16.541,35.461,3.845
1.096,-0.061,0.184,-11.169,23.499,3.845
1.043,-0.015,-0.001,-6.958,12.207,4.211
1.148,0.033,-0.037,-3.357,7.080,2.075
1.098,0.086,-0.070,1.465,-1.038,-0.916
1.074,0.113,-0.168,5.249,-13.000,-3.845
1.055,0.124,-0.173,8.423,-15.503,-7.019
1.059,0.135,-0.183,11.230,-15.808,-9.094
1.053,0.139,-0.165,14.343,-13.855,-8.789
1.015,0.125,-0.164,16.418,-10.071,-6.531
0.964,0.094,-0.136,16.968,-3.723,-2.197
0.986,0.054,-0.059,15.259,5.188,2.869
1.041,0.004,0.023,12.329,12.024,7.446
1.044,-0.016,0.100,7.812,13.000,10.498
0.990,-0.040,0.136,3.601,9.766,13.489
0.961,-0.063,0.195,0.854,7.690,14.587
0.951,-0.071,0.240,-0.977,5.371,13.489
0.952,-0.092,0.269,-1.526,2.869,11.353
0.954,-0.102,0.289,-1.709,0.916,8.667
0.921,-0.109,0.278,-1.526,-2.319,5.554
0.882,-0.098,0.231,-1.038,-4.028,2.197
0.912,-0.085,0.208,-0.610,-1.160,0.122
0.944,-0.098,0.234,-1.282,0.366,-1.709
0.994,-0.133,0.143,-5.981,-6.653,-2.747
0.910,-0.005,0.067,-9.888,-12.085,-2.991
0.929,-0.045,0.083,-9.644,-9.033,0.061
0.959,-0.018,0.036,-10.620,-8.789,0.366
0.954,-0.022,0.046,-10.254,-5.554,1.160
0.964,-0.026,0.043,-9.277,-1.465,0.793
1.031,-0.034,0.058,-8.118,2.014,-0.061
1.062,-0.039,0.064,-7.019,2.747,-0.854
1.094,-0.018,0.075,-6.348,1.404,-1.892
1.076,-0.018,0.087,-4.517,-0.183,-1.099
1.085,-0.017,0.097,-3.235,-1.892,0.549
1.069,-0.019,0.099,-2.502,-3.235,2.075
1.027,-0.020,0.100,-3.052,-4.456,3.357
1.026,-0.016,0.109,-4.211,-4.883,3.967
0.997,-0.014,0.106,-5.371,-4.883,4.150
0.990,-0.032,0.114,-6.409,-5.005,4.333
0.987,-0.018,0.118,-8.362,-5.249,3.418
0.965,-0.026,0.119,-9.277,-5.859,2.563
0.969,-0.026,0.119,-10.193,-6.470,1.770
0.979,-0.024,0.118,-10.559,-6.958,0.977
0.992,-0.024,0.109,-10.742,-7.690,0.183
0.960,-0.009,0.098,-10.620,-8.667,-0.977
0.971,0.003,0.089,-9.827,-9.277,-0.732
0.923,0.002,0.092,-8.057,-7.751,-0.122
0.902,-0.016,0.097,-6.531,-5.737,0.244
0.956,0.008,0.113,-6.226,-3.601,-1.038
0.934,-0.007,0.129,-5.371,-1.465,-0.854
0.913,-0.028,0.118,-5.432,-0.122,-1.038
0.966,-0.009,0.148,-6.592,2.319,-2.380
0.969,-0.011,0.150,-7.324,3.418,-1.770
0.964,-0.008,0.133,-8.362,2.136,-0.488
0.969,-0.001,0.118,-8.667,2.441,0.061
0.967,-0.004,0.109,-8.484,3.479,-0.122
1.023,0.008,0.114,-8.606,4.700,-1.343
1.035,0.020,0.104,-8.240,3.967,-1.343
0.994,-0.006,0.094,-6.958,2.502,-0.183
1.075,0.044,0.121,-6.104,1.465,-1.221
1.003,-0.022,0.116,-5.005,-1.099,0.000
0.985,0.024,0.104,-4.395,-2.075,-0.732
1.052,-0.007,0.162,-3.113,-0.244,-0.488
1.028,-0.025,0.164,-2.686,-1.404,0.610
1.003,-0.021,0.153,-3.052,-4.944,0.732
0.973,-0.015,0.133,-3.906,-6.470,0.122
0.938,-0.001,0.126,-4.639,-5.188,0.061
1.029,-0.006,0.140,-4.456,-2.930,0.488
0.972,0.010,0.114,-5.920,-3.479,0.732
1.068,-0.004,0.137,-6.042,-4.089,1.038
0.974,-0.011,0.048,-6.409,-8.606,1.343
0.919,0.000,0.084,-5.371,-6.226,1.526
1.017,0.002,0.107,-3.784,-2.319,-0.488
1.000,0.025,0.139,-2.625,-2.258,-1.221
1.001,-0.025,0.134,-1.343,-4.333,1.831
0.955,-0.018,0.130,-0.977,-5.188,1.648
0.983,-0.015,0.153,-0.671,-4.456,1.099
1.044,-0.029,0.145,-1.526,-5.127,1.099
0.974,-0.019,0.134,-2.380,-7.080,0.488
0.906,-0.015,0.105,-2.380,-6.775,0.366
0.932,-0.014,0.122,-2.014,-1.709,-0.488
0.958,-0.006,0.144,-1.648,2.197,-1.404

1.242,-0.538,-0.734,373.108,-5.493,-5.981
1.209,-0.574,-0.664,384.644,-0.183,-5.798
1.203,-0.572,-0.534,394.409,7.385,-5.493
1.181,-0.576,-0.421,403.992,11.047,-4.089
1.138,-0.605,-0.347,412.720,10.498,-3.174
1.089,-0.643,-0.293,418.579,9.033,-2.991
1.025,-0.667,-0.220,420.044,8.484,-3.235
0.953,-0.698,-0.159,417.664,6.653,-3.357
0.923,-0.734,-0.125,410.828,4.150,-3.418
0.881,-0.735,-0.049,401.672,3.723,-3.662
0.825,-0.754,0.045,391.907,3.540,-4.333
0.852,-0.756,0.183,380.676,2.258,-6.531
0.894,-0.745,0.318,370.117,-1.892,-9.399
0.887,-0.742,0.406,359.558,-12.573,-12.756
0.846,-0.721,0.468,346.436,-26.062,-15.076
0.790,-0.697,0.521,331.543,-37.842,-16.418
0.742,-0.679,0.557,312.866,-46.936,-17.212
0.682,-0.651,0.572,290.344,-54.321,-16.541
0.607,-0.613,0.563,265.869,-57.922,-13.672
0.558,-0.577,0.536,241.455,-56.213,-10.620
0.539,-0.553,0.524,217.468,-49.255,-7.751
0.545,-0.528,0.520,193.604,-38.818,-5.920
0.561,-0.488,0.540,171.448,-27.405,-5.615
0.583,-0.441,0.559,152.283,-18.127,-5.005
0.626,-0.417,0.576,136.658,-12.268,-4.272
0.701,-0.422,0.610,122.620,-9.888,-3.845
0.731,-0.422,0.649,108.826,-11.475,-4.333
0.791,-0.489,0.780,92.957,-16.174,-4.822
0.870,-0.724,1.162,71.899,-26.489,-4.456
0.803,-0.656,1.371,25.146,-44.373,-3.784
0.623,-0.466,1.136,-33.630,-46.143,0.916
0.529,-0.279,0.754,-71.472,-19.531,3.540
0.652,-0.119,0.540,-74.524,14.893,5.432
0.863,-0.025,0.486,-58.472,35.156,9.521
0.994,-0.016,0.474,-38.635,39.795,11.658
1.020,-0.022,0.404,-23.315,32.471,11.536
1.007,-0.033,0.313,-14.282,21.973,9.827
1.029,-0.021,0.209,-10.925,13.733,6.348
1.080,0.008,0.129,-9.705,8.789,1.892
1.092,0.043,0.089,-7.080,5.432,-2.380
1.082,0.070,0.074,-2.625,2.441,-5.371
1.068,0.079,0.056,1.831,-0.549,-7.446
1.072,0.086,0.033,3.784,-2.869,-8.484
1.068,0.089,0.034,5.005,-4.456,-7.202
1.046,0.086,0.049,6.226,-5.249,-4.211
1.005,0.072,0.071,7.324,-5.859,-1.160
0.960,0.038,0.085,8.484,-5.859,1.770
0.956,-0.001,0.093,8.423,-5.005,3.540
0.979,-0.017,0.124,7.751,-3.357,4.150
0.958,-0.031,0.161,7.263,-2.502,4.333
0.901,-0.045,0.183,7.385,-2.014,3.784
0.948,-0.012,0.192,7.996,0.183,3.052
0.918,-0.104,0.175,7.202,2.136,4.150
0.971,-0.067,0.173,2.075,0.916,1.343
0.970,-0.007,0.106,-2.747,-2.319,2.502
0.927,-0.044,0.124,-4.211,-1.221,5.676
0.901,-0.013,0.100,-6.042,-3.113,5.615
0.861,-0.021,0.114,-6.042,-1.038,5.798
0.891,-0.027,0.117,-6.042,1.892,5.005
0.904,-0.070,0.093,-7.324,4.150,4.089
0.957,-0.050,0.083,-8.789,6.348,1.465
1.036,-0.032,0.093,-9.216,8.240,0.122
1.061,-0.031,0.099,-9.216,8.301,0.854
1.077,-0.024,0.111,-9.338,7.507,2.502
1.112,-0.022,0.126,-9.033,6.714,4.211
1.113,-0.030,0.129,-8.484,5.798,5.310
1.098,-0.035,0.139,-7.996,5.066,5.615
1.091,-0.012,0.152,-7.202,4.211,5.493
1.060,-0.020,0.164,-5.859,2.197,5.676
1.026,-0.023,0.169,-4.089,-0.916,5.188
1.000,-0.023,0.171,-2.808,-3.235,4.211
0.971,-0.029,0.156,-3.418,-4.944,3.601
0.954,-0.032,0.143,-4.456,-5.249,2.441
0.942,-0.030,0.135,-5.737,-4.639,1.465
0.941,-0.025,0.130,-6.714,-3.784,1.099
0.953,-0.019,0.127,-7.080,-3.052,0.854
0.966,-0.010,0.126,-7.141,-2.869,0.366
0.969,-0.002,0.126,-6.531,-3.418,-0.427
0.969,0.002,0.122,-5.859,-3.967,-0.977
0.970,0.005,0.120,-4.944,-3.906,-1.526
0.974,0.005,0.127,-4.150,-3.723,-1.282
0.974,0.009,0.136,-2.869,-3.357,-0.610
0.962,0.003,0.132,-2.441,-3.052,0.244
0.946,-0.005,0.116,-2.991,-1.892,0.366
0.933,-0.004,0.107,-4.089,0.427,0.305
0.931,0.000,0.111,-4.700,4.028,0.610
0.966,0.016,0.132,-4.639,7.080,1.038
0.980,0.010,0.150,-4.395,7.874,2.197
0.973,-0.001,0.137,-4.578,6.531,2.625
0.981,0.009,0.136,-5.249,5.127,1.526
0.978,0.012,0.138,-5.615,4.456,1.343
1.015,0.022,0.157,-5.188,4.089,1.892
1.022,0.009,0.170,-4.700,1.465,2.869
1.016,0.027,0.138,-5.066,-3.357,0.671
1.001,0.007,0.132,-4.578,-1.648,1.160
1.024,-0.003,0.161,-3.540,1.160,2.625
0.967,-0.003,0.151,-4.150,0.183,0.977
1.090,0.021,0.170,-4.700,-1.038,-1.282
1.013,0.044,0.131,-4.028,-5.432,-0.061
0.962,0.014,0.132,-2.319,-5.920,3.540
0.995,-0.014,0.132,-2.380,-5.676,3.784
0.979,0.029,0.126,-3.174,-5.798,1.343
0.936,0.009,0.144,-2.625,-4.944,2.258
0.963,0.003,0.130,-2.441,-3.967,2.319
0.905,0.007,0.138,-2.625,-2.380,1.465
0.958,-0.013,0.144,-2.991,-0.488,0.977
0.987,0.001,0.170,-3.174,0.183,0.549
0.987,-0.004,0.170,-3.113,-1.892,1.343
0.989,-0.023,0.144,-4.028,-5.005,2.136
0.939,-0.012,0.124,-4.944,-5.127,1.465
0.925,-0.009,0.117,-4.700,-2.625,0.549
0.940,-0.001,0.141,-3.845,1.587,0.244
0.998,0.002,0.166,-2.869,4.211,0.854
1.037,-0.032,0.175,-2.258,2.808,1.343
1.040,-0.018,0.177,-3.113,-1.404,-0.488
1.017,0.006,0.171,-3.723,-5.554,-1.465
0.987,-0.001,0.153,-3.113,-8.545,-0.793
0.966,0.004,0.139,-2.808,-7.996,-0.488
0.962,0.005,0.137,-2.563,-5.371,-0.305

1.525,-0.107,-1.050,140.320,-10.681,13.977
1.505,-0.153,-1.082,168.762,-18.433,13.000
1.501,-0.239,-1.123,196.289,-21.362,12.695
1.493,-0.307,-1.179,222.473,-19.836,12.573
1.473,-0.353,-1.181,246.887,-11.780,12.817
1.446,-0.394,-1.139,271.362,0.366,13.977
1.430,-0.419,-1.064,295.471,13.611,16.113
1.408,-0.443,-0.971,319.153,24.658,19.470
1.366,-0.471,-0.885,342.102,31.677,23.132
1.313,-0.503,-0.803,362.549,35.278,25.208
1.239,-0.547,-0.709,380.920,37.415,25.269
1.143,-0.585,-0.615,396.179,37.415,24.292
1.054,-0.613,-0.539,407.837,34.851,22.217
0.958,-0.601,-0.455,416.992,32.593,18.921
0.866,-0.592,-0.336,425.842,30.823,17.700
0.792,-0.617,-0.230,434.265,28.015,17.761
0.728,-0.659,-0.134,439.148,24.963,16.602
0.660,-0.693,-0.044,437.500,23.865,15.442
0.623,-0.731,0.058,429.565,25.208,14.648
0.628,-0.752,0.168,416.382,27.710,13.977
0.639,-0.755,0.294,399.292,27.893,14.343
0.663,-0.769,0.411,380.432,23.560,14.343
0.695,-0.776,0.508,360.413,15.686,10.498
0.717,-0.761,0.603,337.158,4.578,4.456
0.701,-0.741,0.666,310.364,-9.644,-0.916
0.638,-0.702,0.705,280.457,-24.597,-4.700
0.556,-0.637,0.726,250.610,-34.668,-7.751
0.499,-0.584,0.740,221.741,-38.208,-8.911
0.479,-0.527,0.740,194.641,-35.034,-8.606
0.493,-0.484,0.735,170.227,-28.015,-7.874
0.533,-0.446,0.718,149.841,-19.043,-7.446
0.588,-0.417,0.706,132.507,-9.460,-7.751
0.643,-0.449,0.734,119.080,-1.038,-8.240
0.739,-0.556,0.910,104.980,4.883,-7.568
0.887,-0.722,1.245,80.444,6.042,-3.357
1.021,-0.729,1.492,34.058,-3.662,1.953
0.967,-0.513,1.380,-23.315,-15.808,6.653
0.719,-0.335,0.955,-66.895,-18.616,11.719
0.668,-0.201,0.628,-79.285,3.906,12.878
0.864,-0.088,0.532,-66.772,36.255,11.719
1.067,-0.017,0.520,-47.241,55.176,10.864
1.167,-0.026,0.436,-31.128,53.833,10.681
1.211,-0.022,0.319,-20.813,42.542,9.338
1.222,0.013,0.205,-15.503,28.076,6.042
1.224,0.058,0.122,-12.390,15.015,2.014
1.217,0.100,0.059,-8.911,2.930,-1.587
1.191,0.125,0.027,-4.822,-7.751,-3.601
1.149,0.135,0.014,-0.488,-16.846,-5.127
1.102,0.137,0.016,3.479,-24.109,-5.676
1.052,0.129,0.026,6.531,-28.625,-5.249
1.016,0.112,0.027,9.155,-30.823,-4.578
1.001,0.104,0.032,9.644,-30.273,-4.272
0.968,0.105,0.046,9.033,-27.832,-3.418
0.918,0.099,0.041,8.057,-24.292,-1.770
0.886,0.092,0.025,5.188,-19.714,0.854
0.868,0.097,0.018,1.221,-13.489,3.967
0.843,0.096,0.021,-1.221,-8.179,6.348
0.849,0.093,0.016,-2.563,-3.601,7.385
0.860,0.087,0.029,-3.723,0.549,7.629
0.857,0.084,0.054,-3.845,3.967,7.446
0.865,0.072,0.083,-3.235,5.981,6.897
0.893,0.057,0.107,-2.319,7.202,5.493
0.920,0.047,0.134,-2.380,7.812,3.723
0.949,0.051,0.166,-2.991,8.057,2.625
0.947,0.028,0.199,-3.540,6.958,2.441
1.041,0.048,0.215,-5.127,4.333,1.953
1.036,0.053,0.184,-7.019,0.610,2.747
1.004,0.016,0.203,-7.874,-0.305,3.662
1.043,0.062,0.196,-9.399,-4.211,1.526
1.046,0.064,0.176,-10.193,-7.690,1.038
1.024,0.067,0.161,-10.193,-8.728,1.221
1.000,0.077,0.147,-9.583,-8.850,1.526
0.998,0.080,0.154,-9.033,-6.348,2.563
0.995,0.081,0.153,-8.362,-4.272,3.235
0.975,0.069,0.162,-7.202,-2.869,3.845
0.999,0.072,0.171,-5.737,-1.892,3.662
0.993,0.067,0.174,-4.211,-1.953,3.052
0.977,0.071,0.173,-3.357,-2.869,2.625
0.974,0.077,0.178,-2.686,-3.418,2.197
0.957,0.074,0.175,-2.075,-4.517,1.587
0.937,0.072,0.163,-2.075,-4.822,0.854
0.971,0.089,0.154,-2.197,-4.028,-0.183
0.974,0.074,0.149,-2.014,-3.601,0.610
0.983,0.086,0.147,-2.197,-4.333,1.099
0.967,0.084,0.130,-2.380,-5.737,1.526
0.953,0.083,0.112,-2.747,-6.042,1.160
0.963,0.109,0.110,-2.563,-5.066,0.671
0.946,0.097,0.112,-1.648,-3.784,1.709
0.945,0.101,0.106,-0.916,-2.258,1.526
0.953,0.100,0.112,0.000,-0.732,1.099
0.945,0.100,0.125,0.549,0.671,1.587
0.917,0.091,0.130,1.038,1.831,1.831
0.899,0.083,0.139,1.526,4.089,1.343
0.977,0.072,0.169,1.831,6.592,0.305
1.017,0.065,0.187,1.648,5.981,-1.526
1.031,0.074,0.182,1.831,2.258,-2.319
1.039,0.077,0.182,2.869,-0.671,-1.282
0.951,0.069,0.154,3.906,-2.869,0.305
0.966,0.108,0.178,4.150,-0.427,1.404
1.022,0.065,0.185,4.089,1.038,2.991
1.036,0.087,0.174,3.113,-0.854,1.892
1.003,0.083,0.172,3.052,-2.747,2.747
0.968,0.076,0.138,2.808,-5.005,3.662
0.929,0.089,0.110,2.563,-3.906,3.296
0.932,0.094,0.105,2.441,0.793,2.869
0.986,0.099,0.147,3.113,5.615,2.991
0.997,0.086,0.151,3.418,4.395,3.296
0.971,0.083,0.140,3.601,0.000,3.479
1.048,0.072,0.171,4.272,-2.808,3.235
1.010,0.093,0.148,5.066,-7.996,2.625
0.964,0.073,0.144,5.798,-10.376,3.296
0.988,0.066,0.140,6.653,-10.071,2.808
0.967,0.082,0.157,7.507,-7.568,1.160
0.974,0.070,0.161,7.690,-5.920,0.854
0.980,0.072,0.161,7.690,-4.700,0.427
0.964,0.080,0.160,7.751,-4.089,0.366
0.954,0.076,0.149,7.812,-3.723,1.221
0.967,0.078,0.147,7.935,-2.747,1.953
0.974,0.065,0.155,8.179,-1.160,2.197

1.396,-0.046,-1.167,194.641,31.799,7.751
1.407,-0.125,-1.182,228.760,26.245,11.475
1.390,-0.210,-1.202,261.719,19.775,11.658
1.331,-0.289,-1.167,293.091,16.724,10.193
1.285,-0.385,-1.116,321.472,16.357,7.812
1.259,-0.473,-1.064,346.436,18.066,4.578
1.226,-0.536,-1.005,367.371,23.071,1.099
1.166,-0.579,-0.924,385.742,32.227,-1.770
1.099,-0.616,-0.829,401.978,44.434,-3.113
1.067,-0.646,-0.725,415.344,56.152,-3.174
1.057,-0.664,-0.619,426.331,64.941,-2.869
1.049,-0.683,-0.505,436.951,70.496,-3.052
1.029,-0.735,-0.395,446.289,70.740,-3.357
1.021,-0.764,-0.287,452.881,65.552,-5.005
1.007,-0.763,-0.148,458.008,56.702,-8.362
0.943,-0.776,-0.049,462.769,42.847,-12.085
0.842,-0.817,0.005,463.684,27.039,-16.357
0.761,-0.858,0.076,459.351,13.977,-20.813
0.727,-0.866,0.201,450.989,4.883,-25.024
0.752,-0.877,0.347,443.176,-3.113,-29.236
0.805,-0.903,0.494,437.988,-13.977,-34.180
0.804,-0.925,0.621,432.373,-29.968,-39.673
0.753,-0.950,0.715,420.654,-46.814,-46.143
0.668,-0.919,0.777,398.865,-59.814,-53.040
0.580,-0.852,0.797,370.117,-66.467,-57.068
0.522,-0.782,0.782,337.463,-67.505,-57.556
0.479,-0.748,0.734,303.650,-63.416,-54.382
0.487,-0.814,0.789,271.484,-55.969,-48.645
0.655,-1.029,0.923,238.770,-46.692,-39.734
0.744,-1.437,1.776,190.308,-43.396,-20.081
0.785,-1.289,2.362,89.172,-49.194,-13.062
0.549,-0.873,1.647,-33.020,-70.801,-10.254
0.180,-0.595,0.927,-111.816,-57.373,3.113
0.266,-0.495,0.632,-130.432,-5.676,6.470
0.644,-0.244,0.552,-119.995,39.917,7.080
0.905,-0.023,0.476,-95.154,55.481,9.155
1.004,-0.029,0.409,-62.866,48.645,13.611
1.066,-0.095,0.331,-33.752,33.569,15.381
1.084,-0.085,0.248,-14.282,18.799,12.146
1.042,-0.040,0.174,-1.953,10.315,6.592
0.995,-0.015,0.110,6.287,7.263,0.793
1.053,0.021,0.096,11.597,6.592,-5.127
1.087,0.055,0.070,14.282,3.052,-10.254
1.071,0.068,0.039,15.625,-2.075,-12.756
1.093,0.086,0.038,16.357,-5.249,-13.550
1.101,0.097,0.054,17.090,-8.484,-12.939
1.086,0.093,0.076,16.541,-11.475,-10.254
1.050,0.068,0.086,13.855,-13.855,-6.104
1.035,0.084,0.096,8.850,-15.869,-2.625
0.981,0.045,0.102,3.906,-16.174,2.136
0.972,0.029,0.109,-1.099,-13.672,6.042
0.938,0.016,0.102,-5.005,-9.644,8.789
0.921,0.015,0.120,-6.836,-5.188,10.315
0.931,0.005,0.139,-7.385,-1.221,11.475
0.929,-0.002,0.154,-6.897,1.160,11.536
0.936,-0.007,0.177,-6.042,2.563,11.230
0.927,-0.020,0.196,-4.639,2.197,10.315
0.933,-0.029,0.216,-2.808,1.160,8.789
0.941,-0.039,0.227,-1.587,-0.305,7.141
0.935,-0.042,0.226,-0.977,-1.892,4.944
0.920,-0.038,0.210,-1.587,-2.808,2.502
0.931,-0.030,0.196,-3.418,-2.563,0.793
0.948,-0.014,0.186,-5.676,-1.831,1.282
0.944,-0.011,0.171,-7.568,-1.343,2.625
0.954,-0.019,0.159,-8.789,-0.366,3.662
0.997,-0.016,0.154,-9.949,1.526,3.662
1.014,-0.008,0.155,-9.521,2.380,3.784
1.030,-0.003,0.164,-7.812,2.502,4.395
1.034,-0.009,0.174,-5.615,1.465,4.700
1.038,-0.019,0.192,-3.540,-0.061,4.150
1.023,-0.024,0.206,-1.831,-2.319,3.235
0.997,-0.023,0.210,-0.610,-4.700,2.014
0.981,-0.018,0.209,-0.549,-5.920,1.404
0.956,-0.016,0.201,-1.648,-5.493,1.831
0.941,-0.034,0.190,-2.930,-4.150,2.930
0.936,-0.021,0.187,-3.662,-2.075,2.808
0.930,-0.029,0.194,-4.150,-0.488,2.625
0.947,-0.031,0.197,-4.944,0.244,1.526
0.971,-0.022,0.192,-5.737,-0.061,0.061
0.971,-0.023,0.179,-5.920,-0.854,-1.099
0.974,-0.010,0.168,-5.371,-1.465,-1.282
0.981,-0.003,0.163,-4.272,-1.160,-0.732
0.982,0.002,0.159,-2.930,-0.061,-0.122
0.981,0.002,0.162,-1.770,1.282,0.244
0.986,-0.005,0.167,-1.099,1.831,-0.183
0.986,-0.005,0.161,-1.709,1.343,-1.404
0.980,-0.000,0.158,-2.319,0.488,-2.380
0.992,0.007,0.162,-2.380,-0.488,-2.136
0.985,0.008,0.161,-2.258,-1.465,-0.916
0.969,0.003,0.156,-1.709,-2.136,0.244
0.969,0.008,0.159,-1.404,-1.404,0.977
0.974,0.006,0.166,-0.916,0.305,1.831
0.977,-0.000,0.175,-0.366,1.526,2.441
0.975,0.000,0.183,0.000,1.892,2.441
0.971,-0.000,0.182,0.061,1.587,1.953
1.022,0.003,0.186,-0.122,0.854,1.709
1.035,0.000,0.184,-0.916,-1.160,2.258
0.991,0.000,0.167,-2.075,-4.761,2.869
0.968,0.010,0.151,-2.686,-5.859,2.808
0.952,0.022,0.141,-2.991,-4.639,2.075
0.955,0.021,0.152,-2.563,-1.770,1.709
0.959,0.025,0.165,-1.526,0.122,1.160
0.967,0.018,0.182,-0.916,0.977,1.343
0.974,0.011,0.200,-0.061,0.122,1.099
0.980,0.005,0.212,0.793,-2.014,0.793
0.976,-0.009,0.218,1.160,-4.395,0.488
0.953,-0.021,0.218,0.977,-5.493,-0.183
0.937,-0.017,0.219,1.160,-4.272,-1.038
0.940,-0.013,0.221,0.916,-1.099,-1.465
0.952,-0.011,0.221,0.244,2.075,-1.709
0.964,-0.005,0.218,-0.916,3.540,-1.709
0.980,-0.003,0.214,-2.014,3.296,-1.587
0.999,-0.003,0.208,-2.869,1.831,-1.221
1.009,-0.002,0.199,-3.540,-0.366,-0.977
1.004,0.000,0.193,-3.784,-2.136,-0.916
1.000,0.001,0.191,-3.418,-3.723,-0.854
0.993,0.000,0.191,-3.052,-4.700,-1.282
0.995,-0.000,0.187,-2.441,-5.127,-1.587
1.000,0.000,0.185,-1.465,-4.639,-1.709

1.064,-0.597,-0.888,296.204,-21.362,9.033
1.093,-0.660,-0.842,315.735,-5.432,5.920
1.113,-0.695,-0.755,335.571,12.024,3.113
1.117,-0.710,-0.643,354.431,28.381,3.601
1.127,-0.747,-0.563,371.521,39.246,6.226
1.157,-0.799,-0.487,387.207,44.373,8.667
1.203,-0.847,-0.398,402.771,46.875,7.996
1.235,-0.866,-0.299,416.687,47.302,4.517
1.221,-0.884,-0.200,429.382,43.823,-0.366
1.163,-0.919,-0.114,438.232,36.011,-3.906
1.083,-0.947,-0.027,440.979,25.391,-4.944
0.993,-0.960,0.048,437.317,13.977,-4.272
0.909,-0.964,0.145,428.345,3.052,-3.540
0.876,-0.947,0.302,417.603,-6.409,-2.991
0.878,-0.951,0.459,408.203,-17.761,-3.540
0.855,-0.952,0.591,397.583,-31.555,-5.859
0.787,-0.973,0.712,386.414,-44.617,-9.949
0.702,-0.994,0.797,368.408,-55.237,-14.709
0.589,-0.972,0.854,341.003,-60.913,-18.860
0.481,-0.919,0.881,305.054,-57.800,-21.362
0.438,-0.843,0.878,262.939,-46.204,-20.874
0.451,-0.787,0.880,219.177,-31.311,-17.578
0.513,-0.931,0.940,174.500,-17.639,-11.230
0.411,-1.204,1.263,124.817,-7.080,-2.747
0.521,-1.479,2.301,42.969,22.583,-1.343
0.707,-1.110,2.374,-73.792,53.955,-3.174
0.857,-0.481,1.200,-146.057,15.930,14.404
0.844,-0.231,0.520,-151.123,-0.610,32.715
0.769,-0.125,0.634,-119.751,31.494,37.537
0.845,-0.076,0.499,-86.426,46.021,36.133
0.945,-0.061,0.272,-57.007,51.331,32.410
0.991,-0.039,0.171,-34.668,58.777,24.048
1.054,-0.034,0.071,-19.226,57.312,14.832
1.108,-0.001,-0.010,-9.216,49.622,7.629
1.110,0.032,-0.078,-2.625,38.635,1.404
1.109,0.070,-0.133,2.502,25.574,-2.930
1.102,0.090,-0.161,7.690,12.390,-4.883
1.118,0.077,-0.179,12.390,2.014,-5.432
1.099,0.061,-0.150,15.259,-5.432,-5.188
1.036,0.048,-0.138,15.930,-12.268,-4.639
1.035,0.045,-0.145,14.221,-15.442,-3.967
1.033,0.017,-0.074,12.451,-10.681,-2.869
1.032,0.002,-0.031,10.742,-6.775,-1.038
1.039,-0.040,0.057,9.583,-2.014,0.549
1.057,-0.033,0.086,7.385,-0.061,2.075
1.025,-0.070,0.112,6.409,1.587,4.822
1.028,-0.101,0.113,5.310,2.625,6.531
1.035,-0.105,0.105,3.296,2.258,6.836
0.952,-0.121,0.079,1.709,0.305,7.263
0.985,-0.096,0.065,0.854,-1.587,6.042
0.996,-0.086,0.055,1.160,-1.465,5.249
0.918,-0.101,0.029,2.197,-1.648,4.822
0.930,-0.080,0.028,3.052,-1.282,2.869
0.923,-0.081,0.037,4.700,-0.671,1.831
0.931,-0.091,0.032,5.859,-0.732,0.854
0.953,-0.089,0.026,7.019,-0.549,-0.244
0.955,-0.094,0.024,7.690,-0.366,-0.732
0.967,-0.088,0.018,7.263,-0.183,-0.854
0.975,-0.093,0.014,5.737,-0.549,-0.305
0.951,-0.095,0.006,3.540,-0.732,0.366
0.969,-0.069,-0.001,1.526,0.061,0.061
0.974,-0.080,0.007,0.854,2.075,0.610
0.999,-0.064,0.016,0.732,3.662,0.671
1.001,-0.071,0.030,0.671,4.456,1.099
1.009,-0.076,0.032,0.305,3.906,1.343
1.022,-0.078,0.039,0.427,3.418,1.465
1.021,-0.074,0.046,0.549,3.418,1.709
1.031,-0.081,0.054,0.854,3.601,2.075
1.033,-0.073,0.058,0.916,2.747,2.380
1.033,-0.067,0.054,0.977,0.793,2.563
1.038,-0.063,0.043,1.282,-0.977,2.075
1.037,-0.053,0.022,1.160,-2.502,1.038
1.026,-0.047,-0.003,0.427,-3.662,0.122
1.034,-0.040,-0.017,-0.488,-3.845,-0.305
1.035,-0.035,-0.036,-1.648,-3.845,-0.366
1.034,-0.037,-0.045,-3.296,-3.967,0.183
1.027,-0.043,-0.043,-4.272,-4.517,0.732
1.018,-0.052,-0.035,-4.639,-5.493,0.854
1.003,-0.053,-0.030,-4.272,-6.470,0.366
0.989,-0.056,-0.029,-3.662,-7.446,-0.061
0.978,-0.065,-0.021,-2.258,-7.874,0.183
0.973,-0.073,-0.009,-0.977,-7.751,0.793
0.971,-0.082,0.009,0.427,-7.507,0.732
0.977,-0.090,0.028,1.160,-7.446,0.488
0.978,-0.094,0.040,1.160,-8.606,-0.366
0.966,-0.094,0.044,0.549,-9.827,-1.282
0.954,-0.093,0.042,-0.366,-10.742,-1.587
0.939,-0.091,0.034,-1.648,-10.071,-1.099
0.929,-0.090,0.027,-2.563,-7.812,-0.610
0.934,-0.087,0.028,-2.869,-4.517,-0.366
0.952,-0.080,0.034,-3.174,-1.099,0.061
0.956,-0.082,0.040,-2.991,1.831,0.366
0.975,-0.083,0.044,-2.380,3.357,0.122
0.996,-0.080,0.047,-2.686,3.357,-0.244
1.008,-0.081,0.039,-2.747,2.014,-0.427
1.025,-0.073,0.035,-2.686,0.122,-0.916
1.032,-0.068,0.037,-2.319,-2.014,-1.648
1.040,-0.067,0.038,-1.709,-4.150,-2.319
1.039,-0.061,0.043,-0.977,-5.981,-2.991
1.036,-0.059,0.055,-0.244,-7.812,-3.052
1.008,-0.078,0.062,0.061,-9.521,-3.601
1.039,-0.043,0.075,-0.061,-10.620,-4.395
1.049,-0.084,0.093,0.854,-12.024,-2.319
1.003,-0.084,0.076,0.183,-15.137,-1.892
1.017,-0.072,0.078,-0.793,-15.320,-1.587
1.013,-0.076,0.081,-2.563,-15.320,-1.221
0.980,-0.075,0.052,-4.761,-15.320,-0.427
0.983,-0.089,0.043,-6.958,-12.878,0.488
0.965,-0.070,0.027,-9.155,-10.681,-0.061
0.962,-0.071,0.035,-10.437,-6.775,0.366
0.970,-0.066,0.039,-11.902,-4.028,1.343
0.979,-0.068,0.051,-12.756,-2.563,2.197
0.987,-0.070,0.056,-12.817,-2.441,2.869
0.999,-0.070,0.055,-12.817,-3.662,3.052
0.994,-0.072,0.044,-12.512,-5.310,2.441
0.969,-0.071,0.031,-11.902,-6.958,1.831
0.960,-0.071,0.026,-10.803,-7.019,1.343
0.961,-0.072,0.021,-9.888,-6.531,0.610
0.977,-0.077,0.014,-9.155,-5.554,-0.549

1.844,-0.081,-0.787,81.909,-9.155,0.732
1.895,-0.109,-0.871,101.501,-27.466,8.911
1.908,-0.129,-0.940,122.009,-42.358,15.686
1.920,-0.192,-1.033,143.066,-50.842,23.193
1.928,-0.255,-1.130,162.109,-52.551,30.457
1.945,-0.280,-1.151,181.702,-46.448,36.743
2.018,-0.367,-1.146,204.468,-35.461,43.213
2.087,-0.470,-1.169,225.891,-23.010,50.049
2.092,-0.517,-1.146,244.629,-9.277,57.251
2.017,-0.522,-1.077,262.573,3.845,66.528
1.920,-0.536,-1.002,280.701,14.221,78.857
1.820,-0.594,-0.922,300.232,21.179,90.637
1.672,-0.632,-0.821,318.665,25.635,98.206
1.493,-0.655,-0.706,334.412,28.076,101.440
1.351,-0.668,-0.617,347.778,29.175,101.501
1.230,-0.693,-0.531,359.680,29.053,99.182
1.089,-0.717,-0.439,369.629,29.175,95.947
1.000,-0.736,-0.333,376.709,28.870,92.041
0.957,-0.726,-0.239,380.981,29.663,87.952
0.894,-0.735,-0.147,384.460,31.006,84.839
0.812,-0.764,-0.072,385.864,30.823,81.787
0.759,-0.761,-0.018,382.568,30.457,77.942
0.671,-0.720,0.066,375.732,34.119,76.721
0.561,-0.725,0.180,369.934,38.452,78.918
0.529,-0.752,0.263,362.427,40.527,79.529
0.532,-0.762,0.366,351.440,42.542,77.454
0.543,-0.735,0.476,335.876,44.006,72.937
0.552,-0.706,0.577,318.970,41.199,66.956
0.531,-0.671,0.670,299.988,34.241,60.364
0.479,-0.620,0.732,279.053,24.414,54.077
0.410,-0.571,0.753,257.629,14.221,49.683
0.396,-0.526,0.742,234.985,6.958,44.495
0.412,-0.465,0.724,212.158,5.310,38.757
0.397,-0.401,0.719,192.932,7.996,33.203
0.390,-0.353,0.713,177.246,12.878,29.724
0.341,-0.316,0.750,164.734,19.775,27.527
0.108,-0.323,0.801,153.137,29.785,26.794
-0.102,-0.372,0.824,138.916,52.734,24.170
-0.065,-0.520,0.933,115.295,93.628,17.517
0.442,-0.750,1.412,82.153,131.165,7.996
0.834,-0.676,1.841,28.503,116.699,-2.991
0.966,-0.469,1.466,-40.894,67.139,-1.160
0.839,-0.090,0.876,-81.726,29.968,6.409
0.737,0.103,0.556,-79.712,15.625,10.254
0.821,0.162,0.399,-57.129,10.193,10.193
0.940,0.178,0.281,-34.180,8.301,6.714
0.974,0.181,0.190,-17.883,9.277,0.793
0.990,0.217,0.085,-9.277,8.057,-5.676
1.021,0.269,-0.025,-5.981,5.737,-11.475
1.037,0.314,-0.111,-5.249,4.761,-15.015
1.047,0.353,-0.172,-4.944,4.150,-15.686
1.078,0.359,-0.203,-3.784,4.028,-14.526
1.141,0.362,-0.194,-2.136,3.906,-12.451
1.137,0.351,-0.160,1.221,1.404,-9.583
1.146,0.341,-0.136,5.493,-3.113,-5.554
1.039,0.259,-0.080,10.742,-4.150,-3.052
0.997,0.346,-0.037,13.733,-3.235,-3.235
1.089,0.259,0.035,16.602,-1.953,1.709
1.067,0.203,0.054,16.235,-2.930,3.540
0.907,0.162,0.071,14.404,-6.165,2.075
0.868,0.170,0.049,12.512,-6.531,-0.061
1.005,0.203,0.087,10.864,-2.808,0.549
0.908,0.113,0.146,9.338,0.000,2.197
1.038,0.150,0.149,5.859,-2.258,1.160
0.973,0.158,0.094,2.502,-7.141,1.831
