aX,aY,aZ,gX,gY,gZ
1.841,-1.698,0.173,184.692,223.938,-376.221
2.258,-1.708,0.056,131.470,255.371,-340.637
2.691,-1.572,-0.023,73.303,263.550,-282.104
3.007,-1.331,-0.082,22.034,243.408,-208.374
3.218,-1.084,-0.144,-16.418,190.125,-126.587
3.208,-0.882,-0.179,-42.664,112.000,-37.292
2.973,-0.866,-0.223,-57.739,26.611,53.101
2.581,-0.864,-0.265,-67.505,-48.767,131.531
2.191,-0.834,-0.216,-72.937,-103.943,193.848
1.836,-0.699,-0.190,-75.073,-144.104,238.525
1.519,-0.510,-0.151,-72.571,-170.898,273.071
1.170,-0.436,-0.112,-65.430,-186.035,304.260
0.758,-0.397,-0.142,-59.509,-195.007,329.712
0.305,-0.413,-0.207,-58.411,-192.200,349.121
-0.107,-0.436,-0.280,-66.528,-172.668,362.183
-0.343,-0.416,-0.268,-80.261,-142.700,369.751
-0.413,-0.405,-0.186,-86.487,-123.657,365.295
-0.418,-0.382,-0.309,-80.444,-130.005,331.604
-0.464,-0.275,-0.329,-70.129,-136.902,262.939
-0.559,-0.156,-0.505,-56.335,-146.973,177.734
-0.697,0.013,-0.573,-35.706,-147.766,89.539
-0.840,0.266,-0.586,-6.958,-136.047,4.578
-0.849,0.318,-0.560,28.137,-114.868,-67.078
-0.735,0.301,-0.397,66.467,-77.454,-125.916
-0.433,0.186,-0.265,99.243,-29.968,-171.692
-0.075,0.105,-0.043,125.366,14.404,-212.219
0.303,-0.029,0.049,153.015,44.250,-243.286
0.619,-0.290,0.089,175.110,69.885,-267.944
0.943,-0.567,0.150,184.998,100.586,-286.438
1.292,-0.833,0.271,179.199,140.503,-293.640
1.768,-1.032,0.382,153.442,184.448,-283.691
2.153,-1.090,0.471,108.887,220.703,-253.967
2.404,-0.956,0.374,56.458,233.154,-209.045
2.609,-0.733,0.143,12.573,225.586,-150.024
2.843,-0.554,0.014,-16.541,206.299,-78.308
2.938,-0.457,-0.065,-33.630,173.279,1.892
2.835,-0.432,-0.091,-40.161,129.456,77.271
2.621,-0.417,-0.078,-38.574,81.299,139.771
2.321,-0.373,-0.060,-32.043,32.593,189.636
1.995,-0.333,-0.054,-23.071,-11.719,230.225
1.663,-0.341,-0.044,-14.099,-48.523,263.428
1.319,-0.383,-0.041,-9.216,-77.759,290.466
0.964,-0.407,-0.070,-10.803,-100.037,311.951
0.618,-0.395,-0.103,-17.212,-116.150,327.881
0.330,-0.397,-0.163,-26.855,-128.174,340.515
0.091,-0.333,-0.237,-37.048,-134.705,347.778
-0.158,-0.348,-0.206,-44.861,-128.540,346.741
-0.305,-0.342,-0.213,-53.650,-119.385,331.116
-0.350,-0.285,-0.353,-56.519,-111.511,305.603
-0.450,-0.310,-0.573,-48.462,-98.145,261.230
-0.589,-0.200,-0.639,-42.236,-81.177,183.228
-0.535,0.049,-0.598,-31.128,-69.458,83.252
-0.335,0.279,-0.502,-4.944,-60.425,-23.682
-0.141,0.253,-0.438,32.593,-53.162,-124.451
-0.035,0.128,-0.290,68.298,-42.236,-218.140
0.116,0.073,-0.138,98.083,-26.550,-304.687
0.303,-0.048,-0.080,129.028,-6.592,-372.925
0.468,-0.181,-0.078,160.339,25.696,-419.617
0.619,-0.334,-0.061,187.317,78.552,-442.444
0.862,-0.653,0.032,199.829,149.536,-433.838
1.161,-0.948,0.098,178.467,234.314,-388.977
1.544,-1.013,0.190,127.075,312.256,-319.153
2.039,-0.790,0.067,71.594,355.408,-247.253
2.466,-0.412,0.036,32.349,357.910,-178.711
2.736,-0.170,-0.056,13.428,310.730,-101.624
2.798,-0.155,-0.039,4.700,242.432,-16.724
2.799,-0.238,0.051,-1.282,159.180,61.890
2.681,-0.290,0.076,-5.615,59.204,124.023
2.394,-0.316,0.056,-11.169,-40.894,171.753
2.057,-0.338,0.040,-20.874,-132.019,209.961
1.719,-0.368,-0.020,-31.982,-214.355,238.098
1.370,-0.397,-0.135,-41.809,-284.119,253.845
0.981,-0.367,-0.258,-50.964,-333.618,255.554
0.581,-0.273,-0.396,-55.664,-362.061,243.042
0.205,-0.188,-0.501,-51.208,-363.464,214.233
-0.157,-0.138,-0.551,-40.283,-337.158,165.344
-0.346,-0.020,-0.518,-23.193,-283.081,96.130
-0.252,0.078,-0.448,0.427,-213.013,19.348
-0.088,0.042,-0.403,27.710,-138.977,-55.237
-0.068,-0.004,-0.313,53.345,-65.369,-124.390
-0.031,-0.083,-0.234,72.449,5.249,-176.392
0.159,-0.217,-0.182,79.346,79.041,-200.195
0.505,-0.316,-0.121,72.327,152.771,-197.388
0.916,-0.302,-0.031,55.176,212.524,-175.232
1.275,-0.297,-0.035,36.621,244.629,-141.296
1.604,-0.234,0.093,20.081,251.404,-98.938
1.807,-0.146,0.073,7.507,229.248,-48.340
1.855,-0.110,-0.055,1.221,188.721,5.737
1.932,-0.205,0.121,-5.066,151.367,57.922
1.978,-0.182,0.149,-12.146,95.581,96.985
1.885,-0.187,0.197,-12.939,31.372,125.061
1.759,-0.243,0.178,-12.512,-33.997,143.677
1.577,-0.319,0.102,-14.404,-94.788,151.917
1.340,-0.317,0.008,-19.958,-142.151,148.804
1.084,-0.252,-0.096,-26.062,-170.410,138.550
0.862,-0.183,-0.160,-30.029,-176.208,125.488
0.700,-0.127,-0.160,-31.494,-160.828,111.145
0.617,-0.064,-0.151,-31.677,-133.240,94.788
0.586,-0.020,-0.145,-30.212,-99.304,77.026
0.592,0.037,-0.124,-27.100,-63.660,57.495
0.606,0.091,-0.105,-21.484,-29.968,38.330
0.650,0.104,-0.064,-12.634,-1.526,20.203
0.757,0.108,-0.022,-3.601,20.630,3.113
0.839,0.115,0.012,4.822,33.691,-11.719
0.884,0.114,0.024,12.939,38.208,-24.475
0.920,0.109,0.046,20.325,38.879,-33.875
0.948,0.108,0.064,25.330,36.865,-38.574
0.967,0.096,0.058,28.992,34.241,-38.025
0.990,0.095,0.089,29.785,32.288,-32.288
1.009,0.076,0.091,28.076,29.663,-22.400
1.025,0.071,0.122,24.414,27.283,-10.620
1.036,0.065,0.110,19.836,22.461,1.709
1.037,0.057,0.122,13.733,17.151,15.198
1.036,0.042,0.137,7.080,11.414,27.588
1.030,0.019,0.141,0.610,5.127,36.682
1.001,0.003,0.137,-5.493,-2.075,42.175
0.972,-0.008,0.115,-11.108,-8.850,44.189
0.948,-0.019,0.094,-16.052,-14.832,43.457
0.924,-0.019,0.067,-20.874,-18.982,40.771

2.390,0.321,-0.228,19.775,148.437,-90.454
2.478,0.260,-0.109,16.663,95.398,0.977
2.403,0.087,-0.047,5.249,34.119,89.844
2.292,-0.132,0.011,-11.841,-25.269,174.011
2.230,-0.357,-0.017,-30.518,-89.172,238.831
2.031,-0.417,0.007,-52.917,-146.851,279.907
1.674,-0.410,-0.050,-75.134,-184.143,308.716
1.377,-0.347,-0.073,-93.445,-202.820,324.524
1.156,-0.204,-0.047,-101.257,-205.505,324.707
0.942,0.050,-0.041,-95.642,-197.021,307.983
0.713,0.277,0.020,-73.547,-179.382,276.001
0.477,0.453,0.086,-41.321,-156.433,232.910
0.266,0.537,0.059,-5.859,-128.357,184.631
0.100,0.455,0.078,26.428,-85.083,132.019
-0.004,0.282,0.121,50.476,-31.372,75.745
-0.044,0.210,0.140,65.491,21.301,15.198
-0.042,0.189,0.145,73.853,65.369,-50.354
-0.025,0.143,0.159,79.712,102.600,-114.380
0.016,0.106,0.186,83.252,133.972,-170.227
0.126,0.094,0.180,82.153,155.518,-213.135
0.356,0.122,0.217,75.378,166.931,-239.929
0.527,0.214,0.185,66.467,165.527,-246.460
0.693,0.207,0.185,56.580,156.189,-234.314
0.825,0.196,0.125,42.969,142.334,-218.750
0.929,0.152,0.063,30.090,124.451,-199.463
1.011,0.127,-0.007,17.090,106.750,-176.270
1.114,0.107,-0.044,4.517,93.018,-144.653
1.260,0.069,-0.048,-9.766,84.412,-104.980
1.431,0.012,-0.036,-25.696,73.059,-59.875
1.534,-0.007,-0.041,-39.246,51.575,-18.127
1.552,-0.034,-0.085,-49.622,25.208,22.278
1.494,-0.033,-0.124,-60.913,5.554,63.904
1.452,-0.031,-0.117,-68.909,-7.996,103.394
1.432,-0.019,-0.079,-69.946,-21.790,133.850
1.406,0.003,-0.057,-64.026,-35.522,151.001
1.358,0.079,-0.053,-52.246,-49.438,153.259
1.275,0.194,-0.043,-34.912,-61.890,145.691
1.167,0.231,-0.044,-13.489,-70.068,133.972
0.988,0.225,-0.067,8.484,-71.960,117.004
0.788,0.191,-0.055,30.396,-62.622,93.628
0.661,0.131,-0.016,48.279,-43.762,64.514
0.545,0.128,0.016,60.486,-22.095,29.480
0.486,0.132,0.045,68.298,2.380,-6.531
0.458,0.114,0.076,72.571,29.297,-40.588
0.449,0.090,0.105,73.608,54.871,-70.984
0.512,0.031,0.154,72.449,72.693,-96.741
0.600,0.005,0.179,68.054,78.247,-118.713
0.709,0.007,0.155,61.218,75.134,-133.240
0.796,0.015,0.122,51.880,67.627,-136.902
0.869,0.043,0.074,43.091,57.495,-131.104
0.947,0.064,0.032,35.889,42.236,-115.845
1.004,0.087,0.021,27.100,25.452,-91.370
1.072,0.054,0.029,15.869,13.489,-57.678
1.150,-0.016,0.032,2.380,3.601,-20.691
1.186,-0.016,-0.013,-13.611,-8.179,12.451
1.171,-0.014,-0.051,-30.762,-15.442,42.908
1.156,-0.034,-0.073,-47.180,-17.639,69.946
1.144,-0.053,-0.087,-58.350,-17.151,88.257
1.171,-0.046,-0.091,-62.195,-12.390,94.299
1.195,0.002,-0.121,-60.730,-6.104,91.614
1.135,0.101,-0.168,-54.565,5.920,86.182
1.028,0.141,-0.201,-45.898,33.081,84.290
0.962,0.183,-0.263,-39.612,72.998,87.891
0.977,0.278,-0.338,-32.715,116.699,96.558
1.070,0.346,-0.359,-22.156,161.316,111.633
1.256,0.393,-0.292,-10.132,195.801,129.883
1.487,0.405,-0.208,6.104,205.750,144.287
1.667,0.388,-0.113,27.405,184.265,149.719
1.696,0.358,-0.022,48.462,136.841,146.057
1.624,0.274,0.010,65.613,73.853,136.414
1.519,0.185,0.068,74.341,2.319,124.756
1.362,0.166,0.089,73.364,-69.946,110.535
1.115,0.175,0.089,63.538,-136.292,92.834
0.837,0.203,0.098,49.805,-185.059,73.853
0.634,0.262,0.114,36.377,-213.257,52.612
0.495,0.177,0.119,23.560,-227.356,25.757
0.368,0.193,0.080,8.850,-230.408,-12.634
0.250,0.227,0.007,-3.662,-219.482,-52.917
0.156,0.151,-0.041,-11.902,-191.650,-92.590
0.070,0.222,-0.044,-17.273,-150.635,-134.949
0.032,0.246,-0.028,-12.024,-105.286,-165.588
0.075,0.158,-0.038,-1.587,-59.448,-186.462
0.158,0.115,-0.053,7.080,-12.085,-208.435
0.310,0.052,-0.028,15.259,38.147,-222.534
0.509,0.055,-0.045,19.043,79.712,-229.980
0.780,0.067,-0.095,22.949,107.178,-228.699
1.035,0.081,-0.102,27.222,124.512,-213.989
1.232,0.125,-0.123,29.236,137.756,-183.899
1.499,0.230,-0.156,29.358,143.799,-139.526
1.808,0.296,-0.130,28.320,136.047,-79.529
2.068,0.298,-0.024,27.771,108.582,-10.071
2.090,0.123,0.041,21.362,64.392,65.918
1.967,-0.069,0.012,2.502,16.541,133.545
1.870,-0.257,-0.050,-21.912,-29.053,184.387
1.725,-0.250,-0.072,-49.622,-66.040,220.032
1.532,-0.242,-0.039,-72.754,-90.759,244.934
1.414,-0.025,-0.006,-85.632,-110.474,252.075
1.309,0.157,0.041,-83.862,-127.991,247.192
1.148,0.393,0.060,-70.557,-144.531,230.469
0.917,0.534,0.043,-45.776,-154.663,209.106
0.644,0.583,-0.002,-14.099,-149.780,179.138
0.493,0.485,0.033,18.433,-124.939,141.418
0.363,0.261,0.030,40.649,-91.370,93.628
0.273,0.238,0.072,50.110,-51.147,37.964
0.218,0.151,0.061,56.458,-12.634,-15.381
0.265,0.087,0.164,57.373,20.691,-74.829
0.289,0.051,0.194,56.702,44.067,-131.104
0.312,0.023,0.209,57.251,60.364,-183.899
0.316,0.029,0.160,60.181,72.693,-228.149
0.403,0.028,0.155,64.697,83.191,-257.935
0.490,0.069,0.106,69.153,89.844,-274.658
0.621,0.073,0.073,72.205,95.825,-272.766
0.757,0.060,-0.001,70.251,97.961,-258.057
0.877,-0.011,-0.072,66.528,96.924,-233.459
1.007,-0.049,-0.118,59.753,93.933,-204.529
1.180,-0.022,-0.108,49.438,90.393,-170.593
1.356,-0.005,-0.064,37.476,85.876,-130.737
1.475,-0.016,-0.021,26.855,74.158,-90.576
1.526,-0.051,0.003,16.418,53.040,-54.443

2.289,-0.180,-0.173,5.432,136.169,-130.127
2.375,-0.201,-0.250,0.732,99.121,-77.637
2.459,-0.214,-0.283,-5.005,55.664,-23.071
2.408,-0.266,-0.296,-9.338,10.620,33.630
2.317,-0.349,-0.290,-15.076,-30.212,87.463
2.161,-0.389,-0.268,-21.545,-63.904,134.583
1.947,-0.370,-0.273,-30.334,-84.961,176.392
1.747,-0.302,-0.274,-38.940,-95.581,213.989
1.622,-0.249,-0.239,-44.189,-99.487,245.728
1.504,-0.196,-0.174,-45.593,-98.267,269.470
1.349,-0.124,-0.134,-44.006,-96.375,285.095
1.185,-0.055,-0.109,-40.955,-94.116,294.556
1.037,-0.032,-0.094,-37.598,-88.196,299.805
0.941,-0.012,-0.037,-37.048,-79.041,301.147
0.848,0.030,-0.019,-37.537,-74.219,297.058
0.758,0.082,0.023,-36.560,-72.815,286.438
0.652,0.162,0.054,-34.241,-74.341,270.752
0.549,0.232,0.060,-28.687,-78.613,253.906
0.429,0.304,0.030,-20.569,-83.374,236.694
0.252,0.381,0.010,-10.254,-84.045,217.041
0.062,0.392,-0.035,1.709,-75.317,195.251
-0.077,0.329,-0.072,12.573,-55.298,166.565
-0.169,0.398,-0.062,17.517,-29.053,130.432
-0.202,0.460,-0.023,21.667,-2.930,99.365
-0.199,0.498,0.030,26.855,21.301,71.350
-0.156,0.500,0.083,32.410,41.077,44.983
-0.098,0.485,0.143,36.316,52.246,19.348
-0.026,0.454,0.215,37.354,54.993,-6.042
0.044,0.434,0.287,35.156,47.852,-32.959
0.113,0.409,0.333,30.212,32.532,-61.401
0.169,0.379,0.348,22.888,11.841,-90.271
0.191,0.377,0.320,14.343,-9.583,-119.080
0.212,0.364,0.277,7.996,-27.222,-146.606
0.238,0.351,0.218,5.310,-38.513,-175.598
0.269,0.353,0.197,6.226,-41.992,-203.064
0.410,0.253,0.180,12.085,-39.001,-224.915
0.488,0.198,0.127,20.447,-33.936,-251.892
0.584,0.092,0.119,33.081,-20.691,-274.841
0.674,-0.041,0.084,46.936,-5.554,-297.058
0.785,-0.201,0.044,58.289,12.512,-317.139
0.929,-0.328,-0.009,66.895,35.034,-332.275
1.107,-0.380,-0.092,68.115,61.279,-338.928
1.308,-0.339,-0.087,61.768,90.271,-332.397
1.525,-0.308,-0.074,55.420,115.662,-311.035
1.752,-0.299,-0.083,51.514,130.432,-278.564
1.928,-0.218,-0.089,46.326,137.634,-236.267
2.051,-0.109,-0.079,41.687,134.216,-185.730
2.095,-0.042,-0.138,40.222,117.920,-131.104
2.119,-0.045,-0.141,40.100,97.229,-74.280
2.086,-0.103,-0.138,38.940,73.792,-21.301
1.975,-0.192,-0.093,38.513,48.279,23.560
1.822,-0.276,-0.058,36.743,23.682,58.472
1.677,-0.320,-0.052,34.119,1.404,83.374
1.553,-0.307,-0.032,30.029,-15.991,99.976
1.461,-0.264,-0.004,25.146,-30.273,111.694
1.368,-0.221,0.017,20.142,-41.992,122.009
1.263,-0.185,0.035,14.282,-50.964,131.348
1.174,-0.154,0.030,7.812,-59.143,139.282
1.096,-0.100,0.033,2.441,-65.735,145.264
1.025,-0.057,0.034,-1.221,-70.618,149.414
0.964,-0.035,0.041,-3.113,-74.646,151.123
0.907,-0.024,0.052,-3.784,-77.698,150.330
0.860,0.001,0.073,-4.211,-80.444,145.691
0.841,0.012,0.093,-4.578,-81.909,138.855
0.809,0.060,0.115,-4.944,-84.167,129.517
0.770,0.049,0.112,-4.456,-86.426,119.873
0.712,0.057,0.115,-4.822,-88.562,106.628
0.642,0.094,0.108,-4.944,-88.440,93.567
0.625,0.107,0.124,-5.127,-85.327,81.177
0.630,0.143,0.151,-5.127,-80.933,67.810
0.637,0.180,0.182,-5.066,-77.087,55.847
0.620,0.213,0.184,-5.676,-73.547,47.607
0.621,0.249,0.170,-6.836,-68.970,41.992
0.647,0.295,0.166,-7.019,-63.843,38.086
0.677,0.320,0.171,-6.409,-57.922,36.194
0.701,0.324,0.180,-4.944,-52.185,34.363
0.704,0.330,0.184,-2.991,-46.997,31.494
0.718,0.323,0.192,-0.305,-41.565,28.320
0.749,0.311,0.197,2.136,-36.499,24.414
0.778,0.304,0.208,5.005,-31.982,19.592
0.805,0.306,0.219,7.690,-28.076,14.221
0.835,0.299,0.231,10.498,-25.269,8.728
0.874,0.270,0.238,13.428,-23.926,3.052
0.918,0.237,0.242,15.808,-23.804,-3.418
0.951,0.214,0.249,16.418,-23.315,-10.437
0.978,0.202,0.262,14.893,-22.156,-16.846
1.006,0.191,0.276,10.315,-20.630,-20.386
1.032,0.202,0.289,3.967,-19.470,-19.226
1.050,0.227,0.289,-2.686,-18.921,-13.977
1.077,0.234,0.290,-9.460,-17.822,-5.615
1.093,0.222,0.292,-16.357,-15.625,3.967
1.102,0.223,0.292,-22.888,-13.916,14.526
1.113,0.259,0.288,-28.198,-13.733,23.926
1.112,0.289,0.286,-30.945,-14.709,31.555
1.106,0.285,0.280,-31.128,-17.517,37.964
1.090,0.280,0.278,-29.968,-21.790,42.542
1.062,0.276,0.279,-28.442,-27.222,44.861
1.039,0.265,0.283,-26.672,-32.715,46.448
1.001,0.266,0.288,-25.879,-36.987,48.584
0.962,0.256,0.271,-26.001,-40.771,51.147
0.937,0.245,0.269,-28.137,-42.480,54.321
0.908,0.264,0.276,-32.532,-41.504,58.228
0.889,0.288,0.281,-37.048,-40.466,63.232
0.888,0.291,0.277,-41.382,-40.283,68.665
0.872,0.300,0.283,-46.326,-40.161,73.975
0.883,0.324,0.309,-51.758,-39.795,78.552
0.904,0.350,0.340,-56.702,-41.016,83.069
0.914,0.372,0.361,-60.669,-44.189,88.135
0.962,0.369,0.364,-63.049,-48.828,93.750
0.964,0.364,0.361,-66.223,-50.903,101.074
0.974,0.373,0.341,-70.923,-50.110,110.535
1.032,0.374,0.332,-75.195,-47.241,120.544
1.086,0.388,0.337,-79.468,-42.358,130.127
1.087,0.402,0.346,-82.825,-36.987,138.489
1.080,0.432,0.351,-86.365,-31.372,146.484
1.121,0.471,0.326,-89.783,-23.560,154.602
1.184,0.502,0.322,-91.370,-15.320,162.048
1.219,0.548,0.330,-91.492,-8.301,168.091
1.225,0.576,0.318,-89.294,-2.930,174.316

0.123,-0.657,1.604,239.258,-72.083,-68.970
0.148,-0.172,1.826,205.627,-25.879,-62.866
0.415,-0.223,1.557,191.833,-5.127,-25.146
0.581,-0.376,1.629,188.232,27.344,-8.911
0.629,-0.190,1.795,179.443,50.354,-3.174
0.679,-0.042,1.913,170.471,54.077,3.662
0.730,0.080,2.025,158.875,47.302,4.211
0.645,-0.020,1.936,145.935,25.940,6.897
0.556,0.096,1.959,126.587,5.676,0.732
0.423,0.122,1.796,109.192,-14.954,4.150
0.288,0.109,1.620,96.558,-26.001,10.132
0.181,0.070,1.452,84.473,-27.344,14.160
0.118,0.087,1.271,73.059,-20.813,15.442
0.076,0.071,1.084,64.026,-9.644,14.832
0.026,0.078,0.921,57.861,3.052,13.794
0.052,0.053,0.850,54.565,20.813,14.282
0.205,0.174,1.167,54.077,34.302,14.832
0.203,0.527,1.641,71.228,34.302,20.081
-0.027,-0.219,1.975,138.062,30.823,29.541
-0.187,-0.882,2.357,195.740,2.991,38.391
-0.502,-0.852,2.080,162.537,-47.424,25.024
-0.489,-0.690,1.563,97.961,-68.359,0.305
-0.490,-0.683,1.120,21.179,-46.570,-9.705
-0.365,-0.173,0.725,-37.415,14.404,-14.221
-0.051,-0.032,0.484,-55.237,50.781,-19.897
0.223,-0.103,0.471,-54.993,58.655,-15.686
0.239,-0.060,0.622,-44.128,49.011,-4.089
0.116,0.022,0.830,-23.132,29.114,9.216
0.024,-0.017,0.993,0.732,5.188,19.348
-0.096,-0.135,1.119,18.860,-13.184,24.536
-0.226,-0.236,1.213,23.254,-19.287,22.339
-0.284,-0.267,1.243,14.282,-11.108,15.503
-0.220,-0.219,1.134,-1.160,2.319,8.179
-0.084,-0.132,0.963,-14.221,11.414,5.005
0.004,-0.052,0.863,-20.569,16.052,4.761
0.033,-0.016,0.863,-20.386,17.944,5.737
0.043,-0.028,0.935,-15.808,17.883,7.080
0.043,-0.049,0.998,-11.597,16.663,7.019
0.049,-0.064,1.005,-10.132,13.794,5.188
0.053,-0.052,0.996,-11.902,10.864,3.723
0.057,-0.035,0.998,-13.367,9.277,2.136
0.062,-0.033,1.001,-13.306,8.606,0.732
0.065,-0.042,0.991,-13.000,7.996,-0.366
0.067,-0.047,0.964,-13.000,7.141,-1.160
0.063,-0.038,0.944,-13.184,5.981,-1.221
0.055,-0.022,0.952,-13.733,4.272,-0.732
0.046,-0.022,0.978,-13.428,2.808,-0.244
0.038,-0.037,0.989,-11.963,1.770,-0.305
0.032,-0.048,0.980,-11.658,1.160,-0.549
0.029,-0.046,0.967,-12.512,0.977,-0.854
0.032,-0.036,0.968,-13.123,0.671,-1.160
0.033,-0.028,0.978,-13.306,0.549,-1.648
0.035,-0.034,0.980,-12.634,0.305,-2.258
0.033,-0.041,0.971,-12.146,0.061,-3.052
0.038,-0.043,0.962,-12.085,-0.305,-3.479
0.043,-0.030,0.961,-12.268,-0.854,-4.150
0.051,-0.017,0.975,-12.634,-1.343,-4.822
0.061,-0.008,0.984,-12.695,-2.136,-5.371
0.072,-0.007,0.985,-12.512,-3.235,-5.920
0.086,-0.001,0.981,-12.756,-4.761,-6.348
0.105,0.017,0.984,-13.550,-6.653,-6.775
0.116,0.034,0.995,-15.198,-9.277,-6.775
0.113,0.037,0.999,-16.663,-12.390,-6.470
0.094,0.028,1.002,-18.005,-15.747,-5.920
0.063,0.010,1.000,-18.494,-18.616,-4.761
0.029,0.000,0.986,-19.348,-21.240,-3.540
-0.018,0.005,0.970,-20.691,-21.667,-3.235
-0.072,0.014,0.939,-20.386,-18.982,-3.723
-0.094,0.051,0.923,-18.311,-13.123,-5.127
-0.104,0.072,0.906,-15.686,-6.836,-4.211
-0.124,0.058,0.896,-11.902,-0.549,-1.709
-0.146,0.045,0.893,-7.690,6.165,1.404
-0.141,0.062,0.903,-3.174,13.062,5.066
-0.116,0.079,0.915,1.770,18.982,9.644
-0.079,0.080,0.933,7.690,24.109,14.648
-0.041,0.077,0.954,14.282,28.259,20.386
-0.015,0.070,0.984,19.653,32.227,27.466
-0.001,0.053,1.009,23.010,36.743,36.743
0.011,0.045,1.029,26.001,39.978,46.387
0.041,0.035,1.027,30.518,38.147,53.955
0.078,0.054,1.008,35.767,31.128,60.181
0.095,0.098,0.992,42.175,19.958,66.711
0.081,0.113,0.989,50.232,4.761,74.829
0.062,0.090,1.001,59.143,-12.512,82.153
0.002,0.039,1.015,66.528,-31.189,86.426
-0.098,-0.017,1.022,70.679,-46.387,86.426
-0.207,-0.069,1.028,71.350,-53.833,81.055
-0.271,-0.145,1.047,69.275,-51.758,72.449
-0.283,-0.220,1.066,62.866,-43.884,59.875
-0.260,-0.250,1.064,50.232,-34.241,43.823
-0.207,-0.235,1.031,34.973,-24.292,28.564
-0.146,-0.225,0.992,20.081,-16.235,15.869
-0.103,-0.206,0.961,6.897,-11.108,4.150
-0.060,-0.175,0.921,-2.136,-9.338,-6.714
-0.019,-0.162,0.865,-7.751,-8.118,-17.700
-0.017,-0.183,0.816,-11.597,-7.080,-30.212
-0.024,-0.223,0.773,-13.184,-5.920,-45.227
-0.002,-0.235,0.725,-14.832,-4.761,-63.110
0.013,-0.248,0.679,-17.151,-1.099,-81.116
0.004,-0.226,0.649,-23.071,5.249,-101.196
0.007,-0.161,0.608,-31.982,12.024,-121.460
0.041,-0.141,0.593,-38.086,20.691,-134.705
0.079,-0.120,0.615,-44.861,33.630,-140.991
0.151,-0.026,0.811,-54.382,54.199,-138.306
0.353,0.180,1.407,-61.890,82.397,-121.094
0.673,0.251,1.927,-46.875,99.609,-92.896
1.022,-0.075,1.918,-19.226,82.092,-64.026
0.976,-0.218,1.423,-25.818,26.855,-40.771
0.639,-0.040,1.077,-43.030,-18.005,-16.785
0.377,0.126,0.865,-49.622,-40.466,5.249
0.218,0.108,0.725,-49.072,-50.903,22.400
0.119,0.077,0.755,-46.082,-49.866,29.419
0.040,0.088,0.876,-44.861,-44.434,32.715
-0.046,0.110,0.976,-42.297,-38.452,37.048
-0.112,0.058,1.008,-37.720,-31.433,41.809
-0.125,-0.026,1.015,-37.842,-21.973,47.241
-0.102,-0.055,1.005,-45.471,-12.024,53.650
-0.068,-0.020,1.008,-55.847,-4.700,58.411
-0.045,0.019,1.041,-62.500,0.793,59.204

0.697,-1.897,1.556,351.624,108.643,-283.203
2.655,-2.873,4.000,225.586,238.892,-166.260
3.641,-1.696,2.371,39.429,290.466,-26.611
2.808,-0.681,1.370,-61.462,177.612,37.720
1.978,-0.777,1.286,-100.769,139.404,56.458
1.588,-1.071,1.044,-115.417,97.046,86.365
1.414,-0.963,0.699,-125.427,38.269,88.196
1.231,-0.744,0.437,-124.817,0.244,71.350
1.047,-0.631,0.304,-107.788,-5.981,56.519
0.983,-0.599,0.310,-84.351,5.493,42.847
0.994,-0.576,0.339,-62.561,18.066,25.818
1.043,-0.512,0.402,-41.260,25.818,9.277
1.089,-0.441,0.459,-21.606,24.231,-1.038
1.116,-0.422,0.536,-5.188,13.306,-4.700
1.076,-0.437,0.606,5.859,-3.357,-4.456
0.975,-0.457,0.635,10.803,-22.034,-2.258
0.844,-0.464,0.662,12.695,-36.499,-0.122
0.709,-0.463,0.671,11.902,-46.448,0.732
0.587,-0.452,0.684,9.033,-51.758,0.854
0.485,-0.446,0.695,5.188,-55.115,0.427
0.405,-0.436,0.697,0.916,-56.335,-0.916
0.336,-0.423,0.690,-2.808,-54.810,-2.747
0.286,-0.418,0.682,-5.676,-50.415,-4.456
0.263,-0.414,0.669,-7.385,-43.457,-6.287
0.256,-0.421,0.660,-9.033,-33.997,-7.751
0.269,-0.422,0.655,-10.193,-23.132,-8.972
0.315,-0.424,0.659,-10.864,-12.024,-9.033
0.377,-0.443,0.664,-11.169,-2.258,-7.874
0.437,-0.448,0.679,-11.475,6.287,-6.653
0.488,-0.446,0.683,-12.024,11.841,-5.188
0.527,-0.450,0.679,-12.268,15.747,-3.479
0.565,-0.448,0.673,-11.963,18.311,-1.953
0.600,-0.447,0.666,-11.414,20.081,-0.122
0.628,-0.444,0.658,-10.010,21.057,0.977
0.654,-0.434,0.653,-7.996,21.301,1.526
0.677,-0.427,0.651,-5.798,20.203,1.770
0.700,-0.424,0.655,-4.028,18.005,1.831
0.716,-0.415,0.661,-2.075,14.221,1.587
0.719,-0.404,0.666,-1.099,8.606,1.099
0.702,-0.404,0.660,0.122,2.441,0.671
0.677,-0.394,0.660,0.977,-2.747,0.183
0.648,-0.390,0.660,1.221,-7.019,-0.061
0.615,-0.390,0.656,1.465,-9.583,-0.366
0.589,-0.391,0.654,1.404,-10.681,-0.854
0.569,-0.388,0.659,1.404,-10.315,-1.404
0.552,-0.390,0.662,1.221,-9.338,-1.892
0.553,-0.405,0.663,0.916,-7.874,-2.258
0.563,-0.409,0.669,0.427,-6.104,-2.625
0.575,-0.405,0.682,-0.366,-4.700,-2.380
0.575,-0.415,0.689,-0.732,-4.517,-1.648
0.565,-0.422,0.690,-1.282,-4.822,-0.916
0.552,-0.422,0.693,-1.831,-4.639,-0.671
0.548,-0.428,0.693,-1.892,-4.089,-0.427
0.555,-0.435,0.698,-2.258,-2.930,-0.305
0.562,-0.444,0.696,-2.991,-2.502,-0.488
0.563,-0.443,0.696,-3.357,-1.709,-0.977
0.561,-0.438,0.699,-3.784,-1.282,-1.038
0.554,-0.434,0.699,-3.784,-0.671,-0.793
0.544,-0.430,0.696,-3.723,-0.244,-0.549
0.536,-0.423,0.691,-3.845,0.793,-0.061
0.538,-0.419,0.689,-3.540,1.831,0.854
0.549,-0.416,0.690,-3.052,2.258,1.648
0.555,-0.417,0.691,-2.502,2.808,1.892
0.568,-0.422,0.693,-2.075,3.235,1.892
0.581,-0.422,0.690,-1.587,3.113,1.587
0.586,-0.417,0.691,-1.648,2.991,0.977
0.593,-0.421,0.660,-1.648,2.625,0.916
0.589,-0.412,0.709,-1.587,3.418,0.732
0.598,-0.421,0.694,-1.160,0.916,0.488
0.595,-0.419,0.687,-0.854,-0.244,-0.061
0.585,-0.412,0.691,-0.183,-0.977,-0.183
0.578,-0.418,0.682,0.000,-1.770,-0.061
0.569,-0.417,0.684,0.488,-1.404,-0.122
0.571,-0.416,0.683,0.549,-1.160,-0.244
0.570,-0.415,0.679,0.916,-1.343,-0.305
0.561,-0.412,0.678,1.282,-1.709,-0.244
0.548,-0.410,0.677,1.465,-1.831,-0.122
0.533,-0.410,0.674,1.587,-1.526,0.244
0.523,-0.410,0.674,1.587,-1.099,0.183
0.521,-0.417,0.673,1.465,-0.305,-0.122
0.528,-0.418,0.673,1.038,0.977,-0.671
0.532,-0.412,0.672,0.549,1.831,-1.038
0.534,-0.415,0.669,0.244,2.563,-0.854
0.532,-0.412,0.666,0.122,3.479,-0.610
0.534,-0.406,0.668,0.000,4.822,-0.305
0.539,-0.410,0.671,-0.122,6.042,0.366
0.551,-0.413,0.665,-0.427,7.202,0.671
0.574,-0.417,0.671,-0.427,8.789,0.916
0.600,-0.420,0.672,-1.099,9.766,0.977
0.623,-0.427,0.671,-1.770,10.437,0.977
0.651,-0.426,0.676,-2.258,10.681,0.916
0.676,-0.428,0.679,-2.808,10.193,1.038
0.690,-0.429,0.683,-2.991,8.789,1.221
0.697,-0.422,0.688,-3.052,6.042,1.587
0.696,-0.425,0.692,-3.052,2.380,1.953
0.688,-0.424,0.693,-2.991,-1.404,1.831
0.672,-0.426,0.695,-2.808,-4.700,1.404
0.650,-0.424,0.697,-2.441,-7.446,0.549
0.628,-0.421,0.703,-2.563,-9.644,-0.061
0.607,-0.421,0.706,-2.441,-11.780,-0.610
0.583,-0.420,0.708,-2.808,-13.367,-1.038
0.564,-0.419,0.709,-3.357,-14.465,-1.648
0.548,-0.420,0.708,-3.601,-14.709,-2.014
0.531,-0.418,0.706,-4.028,-14.099,-2.197
0.520,-0.419,0.702,-4.089,-12.878,-2.380
0.509,-0.418,0.696,-4.028,-10.803,-2.502
0.505,-0.415,0.692,-4.150,-8.545,-2.075
0.507,-0.413,0.690,-3.601,-6.226,-1.770
0.512,-0.410,0.685,-3.296,-4.028,-1.526
0.517,-0.406,0.678,-3.052,-2.014,-0.977
0.525,-0.401,0.671,-2.136,-0.671,-0.549
0.537,-0.395,0.662,-1.038,0.427,-0.122
0.547,-0.392,0.658,-0.366,1.465,0.427
0.557,-0.391,0.657,0.610,1.953,0.793
0.566,-0.394,0.660,1.892,2.075,0.732
0.573,-0.396,0.662,2.563,1.648,0.610
0.578,-0.397,0.664,2.869,0.977,0.488
0.584,-0.402,0.670,3.174,0.366,0.000
0.588,-0.405,0.678,3.479,-0.244,0.000

1.286,-0.823,4.000,75.134,-120.361,-17.151
0.819,-1.501,4.000,79.529,-154.663,-49.194
0.670,-2.105,1.820,14.099,-74.951,-3.784
0.303,-0.490,0.620,-99.304,-28.381,51.331
-0.363,0.651,0.778,-137.634,24.780,63.965
-0.419,0.416,0.779,-104.736,36.377,50.842
-0.069,0.045,0.385,-74.097,6.592,34.912
0.056,-0.005,0.239,-61.157,-2.869,37.659
0.025,0.062,0.372,-51.208,17.517,46.631
0.001,0.087,0.377,-41.992,31.311,50.903
0.023,0.044,0.303,-29.907,37.476,52.124
0.087,0.013,0.252,-15.930,43.579,49.561
0.164,0.008,0.286,-1.526,47.241,42.847
0.219,-0.031,0.511,13.672,41.260,36.499
0.368,0.031,1.044,25.696,18.005,34.119
0.674,0.046,1.849,46.692,-28.320,31.738
0.639,-0.300,1.847,81.360,-94.299,13.245
0.084,-0.356,1.501,70.007,-129.639,-4.883
-0.475,-0.256,1.352,36.316,-97.778,-5.920
-0.466,-0.407,1.294,9.277,-35.400,4.028
-0.248,-0.311,0.966,-20.142,2.258,8.179
-0.064,-0.083,0.728,-45.227,17.151,2.502
0.037,0.031,0.682,-52.979,15.503,2.441
0.064,0.142,0.815,-44.250,6.653,3.174
0.102,0.128,0.984,-24.780,3.235,2.747
0.128,-0.020,0.958,-8.789,2.625,0.854
0.094,-0.034,0.895,-5.676,5.005,0.122
0.081,0.037,0.945,-8.240,8.423,2.319
0.105,0.039,1.009,-5.676,8.484,4.883
0.099,-0.017,1.013,-0.061,5.798,3.906
0.054,-0.043,0.978,1.038,3.601,1.892
0.040,-0.036,0.931,-1.709,4.211,1.343
0.066,-0.020,0.919,-3.479,6.409,1.648
0.113,-0.016,0.964,-2.747,8.362,1.465
0.153,-0.039,1.005,-0.549,7.263,0.977
0.157,-0.053,1.007,-0.244,3.906,0.610
0.152,-0.048,0.977,-2.808,0.488,1.038
0.148,-0.031,0.963,-4.944,-1.892,1.465
0.137,-0.016,0.965,-5.554,-3.418,1.953
0.122,-0.016,0.969,-5.249,-4.944,2.319
0.106,-0.011,0.978,-4.395,-6.592,2.502
0.085,-0.011,0.977,-3.784,-7.263,2.808
0.061,-0.012,0.965,-3.601,-7.202,3.113
0.042,-0.009,0.952,-3.662,-5.920,3.174
0.037,0.001,0.955,-3.235,-4.028,2.991
0.041,-0.002,0.967,-2.136,-2.197,2.319
0.046,-0.018,0.965,-0.549,-1.038,1.282
0.058,-0.019,0.960,-0.610,0.549,0.854
0.076,-0.014,0.968,-0.610,1.770,0.916
0.094,-0.021,0.975,-0.305,2.502,1.221
0.100,-0.025,0.976,0.000,2.502,1.404
0.100,-0.023,0.976,-0.305,1.953,1.587
0.097,-0.025,0.964,-0.244,1.099,1.709
0.092,-0.023,0.958,-0.793,0.671,1.648
0.094,-0.019,0.965,-0.610,0.366,1.343
0.097,-0.020,0.975,-0.305,0.061,1.160
0.095,-0.023,0.973,0.122,-0.366,1.282
0.087,-0.024,0.967,-0.244,-0.671,1.465
0.085,-0.017,0.968,0.000,-0.671,1.648
0.087,-0.016,0.972,-0.366,-0.305,1.587
0.090,-0.021,0.975,-0.671,-0.244,1.648
0.092,-0.021,0.972,-0.488,-0.427,1.587
0.094,-0.019,0.966,-0.488,-0.610,1.648
0.092,-0.019,0.963,-0.427,-0.793,1.587
0.093,-0.021,0.969,-0.427,-1.099,1.587
0.097,-0.018,0.975,-0.549,-1.038,1.770
0.093,-0.022,0.979,-0.549,-1.282,1.892
0.088,-0.023,0.974,-0.610,-1.526,1.892
0.087,-0.018,0.969,-1.099,-1.465,1.953
0.086,-0.017,0.967,-0.977,-1.587,1.953
0.089,-0.018,0.968,-1.160,-1.526,2.014
0.088,-0.017,0.968,-1.221,-1.587,2.197
0.079,-0.018,0.971,-1.038,-1.465,2.319
0.076,-0.017,0.971,-1.160,-1.160,2.136
0.079,-0.015,0.969,-1.526,-0.793,2.197
0.082,-0.012,0.968,-1.343,-0.427,2.014
0.079,-0.009,0.967,-1.160,-0.244,1.770
0.074,-0.009,0.967,-0.977,0.000,1.709
0.076,-0.010,0.969,-0.916,0.610,1.526
0.081,-0.010,0.969,-0.732,1.343,1.282
0.089,-0.010,0.968,-0.610,1.282,1.099
0.095,-0.012,0.967,-0.305,0.916,0.793
0.099,-0.014,0.969,-0.122,0.671,0.793
0.100,-0.015,0.972,-0.244,0.244,0.854
0.102,-0.016,0.974,-0.183,-0.488,0.793
0.097,-0.015,0.971,-0.244,-0.916,0.793
0.093,-0.015,0.971,-0.305,-1.282,0.671
0.088,-0.016,0.967,-0.427,-1.709,0.488
0.087,-0.016,0.968,-0.488,-1.770,0.549
0.086,-0.015,0.968,-0.366,-1.709,0.549
0.086,-0.016,0.969,-0.549,-1.648,0.427
0.082,-0.016,0.970,-0.427,-1.587,0.488
0.078,-0.017,0.972,-0.305,-1.465,0.610
0.078,-0.016,0.968,-0.244,-1.282,0.488
0.079,-0.015,0.969,-0.610,-0.916,0.549
0.080,-0.014,0.969,-0.427,-0.610,0.671
0.081,-0.015,0.971,-0.610,-0.183,0.610
0.082,-0.015,0.971,-0.366,-0.061,0.549
0.087,-0.017,0.971,-0.427,0.000,0.549
0.089,-0.016,0.973,-0.488,0.183,0.610
0.094,-0.013,0.969,-0.854,0.244,0.671
0.092,-0.016,0.974,-1.099,0.061,0.671
0.095,-0.011,0.974,-1.160,-0.366,0.732
0.091,-0.011,0.971,-1.099,-0.610,0.732
0.086,-0.011,0.967,-1.160,-0.610,0.732
0.086,-0.007,0.965,-0.854,-0.854,0.488
0.085,-0.006,0.966,-0.610,-0.549,0.488
0.087,-0.008,0.967,-0.488,-0.671,0.366
0.090,-0.011,0.970,-0.183,-0.977,0.366
0.090,-0.013,0.971,-0.366,-0.977,0.305
0.089,-0.013,0.970,-0.366,-0.977,0.305
0.089,-0.012,0.970,-0.061,-1.221,0.183
0.089,-0.011,0.968,-0.305,-1.404,0.305
0.088,-0.009,0.971,-0.183,-1.282,0.488
0.089,-0.013,0.969,-0.122,-1.282,0.610
0.086,-0.012,0.969,-0.183,-1.221,0.549
0.086,-0.011,0.970,0.061,-1.465,0.671
0.086,-0.012,0.969,-0.122,-1.404,0.854
0.086,-0.013,0.970,-0.610,-1.404,0.854

2.093,-0.932,3.999,227.966,-84.106,-28.564
0.952,-1.161,2.123,185.608,-186.462,-70.740
-0.426,-1.166,1.250,89.600,-140.808,-23.987
-0.787,-0.507,1.145,32.898,-32.471,5.127
-0.580,0.027,0.746,-21.851,12.207,-8.850
-0.283,0.102,0.477,-50.964,49.744,-14.038
0.006,-0.093,0.418,-56.091,83.252,-8.057
0.109,-0.104,0.398,-59.570,101.868,-3.357
0.119,-0.018,0.460,-60.242,111.450,0.610
0.242,-0.012,0.596,-55.542,107.239,5.981
0.482,-0.012,0.806,-44.861,80.322,10.193
0.598,0.016,0.986,-29.358,27.222,12.939
0.489,0.073,1.133,-8.545,-34.485,11.536
0.377,0.123,1.320,18.799,-82.520,5.920
0.228,0.012,1.177,45.776,-110.901,2.563
-0.058,-0.254,0.932,55.908,-112.610,2.319
-0.281,-0.332,1.024,41.138,-78.430,6.470
-0.286,-0.180,1.177,17.029,-31.555,8.057
-0.179,-0.126,1.126,-2.319,-9.583,5.249
-0.114,-0.107,0.957,-14.343,-1.404,1.770
-0.087,-0.026,0.851,-20.691,6.592,1.343
-0.031,0.013,0.851,-18.372,14.221,1.526
0.090,0.008,0.941,-11.658,19.592,1.465
0.196,-0.020,1.006,-4.761,19.104,1.526
0.203,-0.053,1.003,-0.732,14.648,1.953
0.157,-0.067,0.967,-0.305,10.559,3.479
0.113,-0.060,0.948,-2.014,9.155,4.150
0.108,-0.063,0.949,-3.479,8.972,3.723
0.137,-0.068,0.979,-4.089,8.667,2.930
0.168,-0.071,0.999,-3.967,6.958,2.136
0.171,-0.070,0.978,-4.578,4.211,1.953
0.156,-0.060,0.947,-5.554,2.197,2.197
0.151,-0.042,0.951,-6.348,0.732,2.319
0.165,-0.036,0.970,-5.554,-1.282,1.587
0.169,-0.041,0.974,-4.517,-4.089,0.977
0.147,-0.045,0.965,-4.028,-6.958,0.671
0.121,-0.037,0.956,-3.540,-8.484,0.793
0.093,-0.034,0.947,-3.052,-8.850,0.671
0.078,-0.033,0.956,-2.380,-8.362,0.366
0.074,-0.037,0.977,-0.977,-6.836,0.000
0.068,-0.045,0.980,-0.427,-5.127,0.305
0.060,-0.048,0.964,-0.610,-3.357,0.549
0.065,-0.043,0.957,-1.038,-0.793,0.671
0.087,-0.044,0.965,-0.793,1.465,0.793
0.107,-0.050,0.971,-0.305,2.502,0.671
0.118,-0.043,0.970,-0.427,2.258,0.732
0.123,-0.045,0.968,-0.732,1.831,1.465
0.125,-0.045,0.966,-0.671,1.343,1.648
0.123,-0.044,0.965,-0.610,0.793,1.648
0.121,-0.044,0.967,-0.427,0.000,1.404
0.121,-0.044,0.966,-0.061,-0.671,1.404
0.115,-0.045,0.961,0.061,-1.038,1.526
0.112,-0.044,0.962,-0.305,-1.099,1.709
0.112,-0.046,0.968,-0.244,-1.038,1.892
0.112,-0.049,0.969,-0.183,-1.221,1.953
0.108,-0.046,0.966,-0.366,-1.221,1.953
0.108,-0.045,0.963,-0.427,-1.099,2.014
0.111,-0.043,0.965,-0.305,-1.038,1.831
0.113,-0.042,0.969,-0.549,-1.099,1.709
0.114,-0.044,0.969,-0.183,-1.282,1.648
0.114,-0.045,0.969,-0.488,-1.343,1.587
0.113,-0.045,0.962,-0.488,-1.526,1.465
0.109,-0.043,0.959,-0.305,-1.709,1.404
0.111,-0.046,0.964,0.000,-1.709,1.343
0.112,-0.048,0.971,0.122,-1.892,1.160
0.109,-0.050,0.971,0.122,-2.075,1.099
0.104,-0.050,0.967,0.000,-2.258,1.099
0.104,-0.048,0.965,-0.061,-1.892,0.916
0.106,-0.043,0.960,0.183,-1.831,0.671
0.103,-0.044,0.963,0.427,-1.526,0.610
0.101,-0.047,0.970,0.427,-1.282,0.793
0.103,-0.047,0.970,0.488,-1.038,0.793
0.101,-0.045,0.965,0.183,-1.038,0.732
0.103,-0.044,0.964,0.000,-0.732,0.671
0.105,-0.044,0.965,0.244,-0.671,0.732
0.108,-0.044,0.967,0.488,-0.488,0.732
0.111,-0.045,0.968,0.549,-0.488,0.549
0.110,-0.046,0.967,0.488,-0.671,0.610
0.109,-0.045,0.967,0.427,-0.732,0.610
0.109,-0.045,0.963,0.427,-0.793,0.427
0.110,-0.045,0.964,0.793,-1.038,0.244
0.110,-0.045,0.968,0.610,-1.099,0.366
0.110,-0.045,0.969,0.549,-1.221,0.366
0.109,-0.047,0.971,0.183,-1.404,0.488
0.105,-0.047,0.969,0.061,-1.709,0.305
0.102,-0.047,0.965,-0.122,-1.648,0.305
0.100,-0.048,0.967,0.000,-1.648,0.305
0.101,-0.049,0.968,-0.427,-1.160,0.488
0.103,-0.049,0.968,-0.671,-1.038,0.427
0.101,-0.046,0.968,-1.038,-0.916,0.549
0.100,-0.047,0.966,-1.038,-0.732,0.671
0.101,-0.047,0.965,-1.038,-0.549,0.610
0.105,-0.047,0.965,-1.221,-0.366,0.549
0.108,-0.046,0.967,-1.343,-0.488,0.732
0.109,-0.045,0.969,-1.404,-0.427,0.732
0.111,-0.046,0.969,-1.648,-0.610,0.854
0.109,-0.044,0.968,-1.587,-0.793,0.916
0.107,-0.042,0.965,-1.587,-0.916,0.732
0.106,-0.042,0.964,-1.404,-0.977,0.732
0.106,-0.042,0.966,-1.526,-0.916,0.732
0.106,-0.042,0.968,-1.343,-0.854,0.732
0.105,-0.041,0.969,-1.343,-1.038,0.671
0.103,-0.041,0.966,-1.282,-1.038,0.732
0.102,-0.040,0.964,-0.854,-1.282,0.610
0.101,-0.040,0.965,-0.732,-1.038,0.610
0.101,-0.040,0.966,-1.038,-1.099,0.610
0.102,-0.041,0.967,-0.732,-1.099,0.610
0.103,-0.041,0.967,-0.671,-1.099,0.488
0.102,-0.041,0.969,-0.427,-1.099,0.427
0.101,-0.041,0.967,-0.183,-1.038,0.305
0.103,-0.041,0.966,-0.366,-0.916,0.305
0.105,-0.041,0.967,-0.610,-0.732,0.305
0.105,-0.042,0.968,-0.427,-0.854,0.305
0.106,-0.041,0.967,-0.488,-0.793,0.366
0.106,-0.041,0.967,-0.488,-0.916,0.366
0.104,-0.041,0.965,-0.305,-1.099,0.244
0.102,-0.041,0.967,-0.610,-1.160,0.488
0.101,-0.041,0.968,-0.610,-0.977,0.549
0.100,-0.041,0.968,-0.610,-0.916,0.610

-1.430,-4.000,4.000,33.386,126.099,-24.231
-0.116,-1.437,3.892,-180.786,325.378,-18.982
0.729,0.535,1.454,-319.275,114.868,64.514
0.886,0.307,0.560,-263.245,26.367,93.079
0.286,0.053,0.345,-158.081,45.654,58.716
-0.027,0.332,0.695,-84.351,45.044,45.227
0.046,0.228,0.558,-22.827,0.916,47.974
0.177,-0.008,0.364,19.104,-26.611,43.335
0.125,-0.105,0.442,42.603,-16.846,35.339
0.059,-0.102,0.569,53.162,-5.066,31.555
0.036,-0.129,0.622,54.260,-3.235,26.917
0.035,-0.158,0.733,47.913,-0.244,17.700
0.025,-0.228,0.943,39.673,5.066,10.376
-0.046,-0.456,1.284,25.635,12.451,6.897
0.012,-0.479,1.682,6.958,25.635,3.540
0.067,-0.223,1.524,-14.099,7.263,0.061
-0.002,-0.144,1.083,-29.602,-14.648,3.967
-0.096,-0.065,0.831,-27.954,-12.573,5.493
-0.093,-0.010,0.786,-14.709,-1.709,5.859
-0.018,-0.050,0.826,-0.977,6.348,5.798
0.026,-0.101,0.832,7.629,6.714,5.493
0.028,-0.115,0.900,10.559,4.822,4.211
0.036,-0.143,1.028,11.536,4.822,2.441
0.079,-0.174,1.113,10.498,5.554,0.488
0.119,-0.169,1.068,6.348,3.845,-0.061
0.117,-0.111,0.944,1.404,1.160,0.610
0.087,-0.090,0.878,1.404,-1.160,0.610
0.066,-0.119,0.929,4.944,-1.770,-0.244
0.044,-0.154,1.009,7.080,-1.526,-1.099
0.027,-0.169,1.032,6.226,-1.770,-1.160
0.007,-0.156,0.979,3.906,-2.625,-0.549
-0.001,-0.139,0.915,2.136,-2.563,0.488
0.010,-0.148,0.932,1.709,-0.977,0.549
0.029,-0.167,0.996,1.587,0.732,0.122
0.052,-0.177,1.016,0.000,1.282,0.122
0.056,-0.155,0.979,-2.563,0.061,0.488
0.044,-0.140,0.943,-4.517,-1.160,0.610
0.040,-0.138,0.945,-4.639,-0.610,0.610
0.037,-0.145,0.972,-4.272,-0.061,0.610
0.031,-0.150,0.993,-4.639,0.610,0.671
0.026,-0.148,0.991,-5.615,1.221,0.732
0.025,-0.143,0.970,-7.324,1.709,0.732
0.027,-0.129,0.955,-8.545,2.625,0.671
0.041,-0.123,0.958,-9.033,3.418,0.854
0.051,-0.126,0.961,-8.362,3.296,1.282
0.051,-0.123,0.962,-7.324,2.502,1.587
0.046,-0.122,0.961,-6.165,1.709,1.953
0.042,-0.124,0.961,-5.371,1.465,2.075
0.042,-0.129,0.966,-5.188,1.709,2.319
0.043,-0.131,0.967,-5.249,1.953,2.319
0.045,-0.127,0.967,-5.127,2.319,2.014
0.050,-0.126,0.962,-4.944,2.502,1.831
0.050,-0.129,0.959,-4.333,2.197,1.770
0.051,-0.128,0.961,-3.540,2.014,1.282
0.054,-0.127,0.967,-3.052,1.709,0.854
0.057,-0.125,0.964,-2.686,1.038,0.793
0.055,-0.121,0.958,-2.075,0.061,0.793
0.051,-0.119,0.960,-1.404,-0.488,0.793
0.048,-0.122,0.966,-0.793,-0.671,0.732
0.045,-0.123,0.969,-0.488,-0.671,0.671
0.043,-0.123,0.970,-0.671,-0.427,0.854
0.045,-0.121,0.967,-1.099,-0.122,0.916
0.047,-0.112,0.968,-1.648,0.183,1.099
0.052,-0.127,0.964,-1.770,0.488,1.587
0.047,-0.123,0.970,-1.526,0.488,1.282
0.050,-0.119,0.971,-1.404,0.183,0.977
0.050,-0.123,0.970,-1.892,0.244,0.977
0.049,-0.128,0.970,-2.197,0.061,0.916
0.046,-0.126,0.968,-2.380,-0.122,0.977
0.047,-0.124,0.966,-2.869,0.061,0.793
0.044,-0.122,0.967,-2.930,0.061,0.732
0.043,-0.125,0.964,-2.747,-0.061,0.427
0.044,-0.123,0.963,-2.747,0.122,0.427
0.043,-0.121,0.964,-2.563,0.366,0.366
0.044,-0.120,0.964,-2.319,0.488,0.366
0.047,-0.120,0.967,-2.319,0.854,0.549
0.049,-0.119,0.968,-2.319,0.793,0.427
0.051,-0.120,0.969,-2.441,0.732,0.427
0.052,-0.118,0.968,-2.808,0.916,0.427
0.052,-0.117,0.966,-3.235,0.854,0.366
0.052,-0.117,0.968,-3.174,0.732,0.427
0.051,-0.115,0.967,-3.052,0.793,0.488
0.051,-0.114,0.966,-2.991,0.488,0.427
0.051,-0.114,0.967,-2.686,0.488,0.366
0.052,-0.114,0.966,-2.686,0.488,0.488
0.051,-0.113,0.968,-2.808,0.488,0.366
0.049,-0.112,0.967,-2.869,0.366,0.366
0.050,-0.112,0.966,-2.563,0.366,0.427
0.051,-0.110,0.968,-2.197,0.305,0.183
0.050,-0.111,0.968,-2.258,0.366,0.122
0.053,-0.110,0.966,-2.502,0.305,0.305
0.053,-0.109,0.966,-2.441,0.122,0.305
0.053,-0.109,0.967,-2.380,0.122,0.305
0.053,-0.109,0.968,-2.380,0.122,0.427
0.053,-0.109,0.968,-1.953,-0.061,0.427
0.053,-0.108,0.967,-1.953,-0.122,0.427
0.052,-0.107,0.968,-1.892,-0.061,0.305
0.054,-0.107,0.966,-1.831,-0.061,0.244
0.051,-0.105,0.968,-1.770,-0.061,0.183
0.052,-0.111,0.969,-1.465,-0.244,-0.061
0.055,-0.110,0.967,-1.221,-0.244,0.000
0.054,-0.107,0.968,-1.465,-0.122,0.183
0.050,-0.107,0.966,-1.282,-0.305,0.488
0.049,-0.108,0.966,-1.160,-0.305,0.488
0.050,-0.108,0.967,-1.160,-0.183,0.427
0.051,-0.107,0.968,-1.099,-0.244,0.610
0.051,-0.107,0.968,-1.038,-0.244,0.549
0.052,-0.107,0.969,-1.038,0.061,0.549
0.053,-0.108,0.968,-1.038,-0.061,0.732
0.053,-0.107,0.967,-1.221,0.122,0.610
0.054,-0.107,0.966,-1.221,0.122,0.671
0.055,-0.106,0.967,-0.916,0.061,0.610
0.055,-0.106,0.969,-0.854,-0.183,0.549
0.055,-0.105,0.969,-0.854,-0.183,0.671
0.053,-0.106,0.967,-0.854,-0.366,0.610
0.052,-0.106,0.967,-0.793,-0.488,0.488
0.051,-0.106,0.967,-0.916,-0.427,0.610
0.052,-0.106,0.967,-0.977,-0.305,0.610
0.051,-0.107,0.969,-0.793,-0.244,0.671

1.311,0.371,-0.827,7.996,-618.774,57.495
1.332,0.378,-0.815,-11.047,-651.062,74.829
1.375,0.425,-0.771,-29.541,-683.655,92.529
1.379,0.497,-0.758,-43.396,-717.651,112.000
1.311,0.541,-0.760,-50.293,-753.479,131.226
1.199,0.574,-0.777,-51.331,-788.208,150.208
1.086,0.604,-0.799,-48.218,-817.383,169.312
0.976,0.654,-0.815,-41.016,-842.468,187.988
0.793,0.606,-0.817,-28.381,-862.122,206.055
0.538,0.555,-0.932,-15.015,-875.549,218.262
0.246,0.527,-1.016,-4.822,-875.244,225.159
-0.080,0.544,-0.948,0.427,-852.600,225.525
-0.460,0.627,-0.820,5.188,-810.425,215.698
-0.876,0.716,-0.778,12.817,-751.709,201.660
-1.310,0.825,-0.669,19.653,-663.879,186.157
-1.670,0.856,-0.434,28.625,-540.771,168.335
-1.855,0.858,-0.230,41.321,-398.193,142.822
-1.796,0.965,-0.099,54.749,-255.798,111.023
-1.615,0.751,0.241,66.223,-120.667,83.496
-1.433,0.764,0.345,67.688,-5.798,47.668
-1.243,0.484,0.222,68.726,94.360,29.846
-1.039,0.458,0.303,64.941,186.096,-6.104
-0.776,0.531,0.378,56.458,270.996,-40.833
-0.505,0.706,0.563,47.485,337.952,-64.758
-0.296,0.742,0.609,36.804,382.507,-80.139
-0.143,0.604,0.617,24.353,416.016,-87.036
-0.008,0.570,0.624,6.958,447.815,-97.961
0.154,0.611,0.715,-9.094,477.112,-102.478
0.321,0.665,0.761,-21.729,488.037,-101.685
0.436,0.706,0.738,-31.311,479.919,-100.647
0.508,0.713,0.702,-35.828,463.257,-98.816
0.588,0.788,0.704,-37.598,440.063,-95.032
0.637,0.763,0.644,-38.147,406.555,-83.557
0.632,0.786,0.621,-37.903,372.803,-72.083
0.588,0.798,0.581,-34.607,340.332,-60.730
0.586,0.807,0.536,-28.625,309.998,-49.744
0.673,0.820,0.539,-21.545,280.029,-37.842
0.765,0.867,0.578,-14.587,243.896,-23.804
0.752,0.795,0.583,-7.874,200.684,-9.338
0.669,0.705,0.507,-2.686,158.569,-2.930
0.720,0.788,0.584,-0.854,119.385,1.221
0.666,0.732,0.459,1.343,78.247,13.550
0.589,0.667,0.467,1.892,45.471,19.104
0.516,0.683,0.443,-0.793,19.409,21.118
0.481,0.696,0.429,-3.418,-1.465,24.536
0.446,0.720,0.409,-5.310,-17.517,26.794
0.422,0.767,0.395,-6.409,-31.555,29.297
0.444,0.784,0.422,-5.859,-45.349,32.898
0.435,0.740,0.387,-5.310,-62.317,35.339
0.403,0.782,0.348,-4.761,-76.782,35.522
0.376,0.773,0.349,-2.686,-86.243,38.696
0.360,0.779,0.350,-1.099,-95.581,39.551
0.347,0.778,0.350,-0.183,-105.042,40.039
0.331,0.784,0.364,0.854,-112.671,40.161
0.301,0.778,0.359,1.465,-118.225,39.856
0.257,0.774,0.361,1.038,-120.544,39.368
0.217,0.785,0.379,-1.282,-118.958,37.964
0.196,0.804,0.392,-2.808,-115.234,35.828
0.187,0.812,0.395,-3.296,-109.863,33.508
0.169,0.816,0.395,-3.479,-102.844,31.128
0.147,0.822,0.395,-3.113,-94.849,28.381
0.136,0.828,0.404,-2.197,-85.632,25.757
0.128,0.831,0.410,-0.977,-75.745,23.254
0.120,0.834,0.421,0.610,-65.552,21.179
0.113,0.830,0.427,2.563,-55.298,19.043
0.117,0.819,0.430,4.578,-45.654,17.151
0.129,0.806,0.438,6.226,-37.598,15.259
0.137,0.798,0.450,7.446,-30.640,13.611
0.139,0.799,0.456,8.362,-24.719,11.963
0.140,0.802,0.464,9.399,-20.264,10.742
0.137,0.801,0.468,10.803,-16.602,10.193
0.132,0.796,0.471,12.390,-12.817,10.132
0.140,0.791,0.473,14.465,-9.644,10.254
0.148,0.791,0.476,16.541,-6.836,10.559
0.153,0.789,0.491,18.250,-4.395,11.108
0.158,0.790,0.509,19.653,-2.869,11.719
0.160,0.792,0.522,20.752,-2.380,12.146
0.159,0.788,0.529,22.095,-2.686,12.695
0.157,0.775,0.535,23.682,-3.540,12.939
0.156,0.766,0.543,23.743,-4.211,13.367
0.157,0.762,0.556,22.705,-4.883,13.367
0.162,0.762,0.572,20.996,-5.798,12.817
0.161,0.769,0.580,18.921,-7.385,11.902
0.156,0.776,0.583,16.785,-9.216,10.620
0.143,0.771,0.571,15.991,-11.108,9.949
0.137,0.764,0.573,14.954,-12.451,9.766
0.135,0.761,0.579,13.245,-13.184,9.827
0.136,0.765,0.581,11.169,-13.733,9.644
0.132,0.776,0.584,9.583,-14.465,9.216
0.124,0.779,0.584,8.850,-15.198,9.033
0.117,0.780,0.580,9.155,-15.442,8.667
0.114,0.775,0.575,9.216,-14.771,8.545
0.116,0.766,0.571,9.705,-13.916,8.179
0.116,0.762,0.571,9.705,-12.817,7.568
0.113,0.761,0.571,9.460,-11.902,6.653
0.108,0.759,0.570,9.094,-10.620,5.981
0.111,0.761,0.572,9.155,-9.644,5.432
0.112,0.759,0.568,8.911,-9.033,5.127
0.110,0.756,0.567,8.911,-8.606,4.944
0.110,0.755,0.570,8.423,-8.240,5.005
0.110,0.757,0.574,7.507,-7.996,5.371
0.113,0.762,0.580,7.385,-8.362,5.554
0.119,0.759,0.580,7.812,-9.277,5.615
0.128,0.751,0.583,8.240,-11.047,6.104
0.130,0.747,0.592,8.240,-13.733,6.531
0.127,0.746,0.601,7.629,-16.602,7.019
0.123,0.747,0.604,6.775,-19.531,7.324
0.119,0.751,0.604,5.676,-22.644,7.629
0.113,0.754,0.601,4.639,-25.513,7.812
0.110,0.759,0.601,4.028,-27.893,7.996
0.098,0.761,0.596,4.517,-29.541,8.179
0.089,0.756,0.591,5.371,-30.823,8.301
0.086,0.751,0.593,5.615,-31.311,8.301
0.079,0.753,0.596,5.981,-31.189,8.118
0.071,0.756,0.599,5.981,-31.006,7.812
0.061,0.760,0.599,6.226,-31.067,7.629
0.056,0.765,0.601,7.263,-30.457,7.202
0.052,0.768,0.601,8.545,-29.480,6.592
0.045,0.764,0.598,10.681,-28.442,6.165

-0.035,-3.713,4.000,123.352,2.869,-99.915
0.393,-1.535,1.387,-97.717,-26.184,29.907
0.164,0.753,-0.290,-146.484,-74.463,73.669
-0.298,1.439,0.183,-90.881,-41.199,41.321
-0.297,-0.073,0.659,21.729,28.320,30.762
-0.028,-0.607,0.304,36.499,4.944,9.827
0.265,-0.203,0.146,21.667,-5.127,-1.831
0.117,0.077,0.216,23.193,16.296,5.981
0.016,-0.032,0.348,30.823,26.428,8.423
0.116,-0.136,0.445,29.724,20.691,6.958
0.281,-0.163,0.575,24.963,8.545,4.028
0.289,-0.310,0.968,19.409,-13.367,0.916
-0.025,-0.331,1.866,10.986,-32.959,-2.380
-0.423,-0.332,2.523,11.475,-36.255,-15.564
-0.428,-0.591,1.740,-7.202,-32.410,-8.484
-0.329,-0.171,0.678,-42.480,-36.804,7.019
-0.242,0.224,0.442,-37.292,-12.085,10.254
-0.127,0.037,0.652,-7.507,18.555,8.606
-0.024,-0.181,0.854,11.292,27.161,4.944
0.025,-0.187,0.871,11.047,20.569,1.648
0.044,-0.109,0.861,4.639,17.212,0.977
0.103,-0.125,0.992,2.441,20.935,1.343
0.173,-0.182,1.193,3.906,23.437,0.183
0.213,-0.200,1.224,3.052,19.653,0.183
0.141,-0.126,0.981,-2.014,7.629,2.380
0.042,-0.075,0.787,-4.089,-0.732,2.991
0.040,-0.129,0.831,0.183,-0.427,2.136
0.067,-0.175,1.003,4.456,1.831,0.488
0.074,-0.204,1.085,4.456,1.770,-0.854
0.068,-0.189,1.002,-0.122,0.122,0.061
0.040,-0.148,0.911,-4.517,-0.488,0.916
0.046,-0.137,0.898,-5.066,0.549,0.488
0.072,-0.149,0.962,-3.418,0.977,-0.244
0.073,-0.160,1.013,-2.869,-0.610,-0.610
0.058,-0.159,1.005,-3.784,-2.563,-0.732
0.038,-0.145,0.964,-5.371,-3.723,-0.366
0.015,-0.127,0.932,-5.493,-3.479,-0.122
0.009,-0.125,0.933,-4.150,-2.075,0.183
0.011,-0.143,0.961,-2.136,-0.183,0.549
0.019,-0.153,0.985,-1.282,1.221,0.549
0.028,-0.150,0.981,-1.648,2.258,0.916
0.034,-0.143,0.970,-3.296,3.235,1.526
0.045,-0.133,0.967,-4.395,4.211,1.648
0.058,-0.144,0.971,-4.944,4.211,2.075
0.060,-0.140,0.975,-5.188,3.662,1.892
0.061,-0.136,0.968,-6.104,2.991,1.831
0.060,-0.136,0.963,-6.653,2.747,1.953
0.057,-0.135,0.967,-7.202,2.563,1.953
0.058,-0.136,0.971,-7.202,2.625,1.831
0.056,-0.136,0.969,-7.385,2.319,1.709
0.053,-0.130,0.960,-7.263,2.014,1.587
0.052,-0.127,0.953,-6.958,1.648,1.526
0.052,-0.128,0.954,-5.981,1.587,1.343
0.051,-0.127,0.961,-5.127,1.648,1.160
0.052,-0.128,0.964,-4.517,1.770,1.099
0.050,-0.129,0.962,-4.211,1.892,1.099
0.050,-0.125,0.960,-3.906,2.075,1.282
0.052,-0.124,0.960,-3.479,1.953,1.099
0.058,-0.127,0.969,-3.235,2.075,0.854
0.062,-0.131,0.974,-2.808,1.770,0.793
0.065,-0.127,0.971,-2.747,1.587,0.671
0.063,-0.124,0.963,-3.174,1.038,0.610
0.061,-0.123,0.960,-3.296,0.793,0.793
0.061,-0.123,0.960,-3.113,0.427,0.793
0.060,-0.124,0.967,-2.991,0.549,0.549
0.059,-0.124,0.971,-2.930,0.488,0.366
0.058,-0.124,0.968,-2.441,0.366,0.366
0.056,-0.122,0.964,-2.441,-0.061,0.366
0.054,-0.122,0.963,-2.136,-0.183,0.427
0.053,-0.123,0.962,-1.526,-0.061,0.549
0.053,-0.124,0.965,-1.526,0.122,0.549
0.057,-0.123,0.967,-1.587,0.244,0.610
0.057,-0.123,0.965,-1.648,0.366,0.610
0.056,-0.122,0.962,-1.648,0.427,0.671
0.057,-0.121,0.965,-1.709,0.427,0.671
0.060,-0.121,0.965,-1.404,0.366,0.671
0.061,-0.122,0.971,-1.709,0.305,0.671
0.061,-0.122,0.970,-1.953,0.122,0.732
0.061,-0.122,0.969,-2.258,0.244,0.671
0.059,-0.121,0.967,-2.502,0.305,0.977
0.059,-0.122,0.967,-2.869,0.183,1.099
0.058,-0.120,0.965,-2.869,0.122,0.977
0.057,-0.120,0.969,-3.113,0.366,1.160
0.053,-0.118,0.969,-3.479,0.732,1.221
0.056,-0.116,0.967,-3.357,0.977,1.221
0.059,-0.114,0.966,-3.540,1.099,1.221
0.062,-0.113,0.963,-3.418,1.099,1.099
0.061,-0.111,0.964,-2.869,1.038,1.099
0.061,-0.111,0.966,-2.686,0.977,1.038
0.065,-0.111,0.966,-2.625,0.854,1.038
0.066,-0.109,0.966,-2.319,0.793,1.099
0.065,-0.107,0.965,-2.014,0.610,0.854
0.064,-0.106,0.963,-1.648,0.244,0.793
0.063,-0.106,0.964,-1.221,0.061,0.732
0.065,-0.107,0.967,-1.221,-0.366,0.732
0.065,-0.109,0.970,-0.977,-0.488,0.549
0.063,-0.109,0.969,-0.793,-0.488,0.488
0.061,-0.110,0.966,-0.671,-0.549,0.488
0.060,-0.111,0.965,-0.549,-0.671,0.366
0.060,-0.112,0.965,-0.610,-0.549,0.244
0.059,-0.111,0.967,-0.488,-0.427,0.427
0.060,-0.113,0.970,-0.610,-0.427,0.549
0.059,-0.113,0.969,-0.671,-0.305,0.488
0.059,-0.113,0.967,-0.732,-0.183,0.610
0.058,-0.113,0.964,-0.427,-0.244,0.488
0.060,-0.114,0.966,-0.427,0.000,0.610
0.062,-0.111,0.968,-0.732,0.061,0.732
0.062,-0.111,0.966,-0.854,0.000,0.793
0.061,-0.111,0.966,-0.916,0.061,0.793
0.063,-0.111,0.968,-0.488,0.122,0.732
0.064,-0.110,0.965,-0.366,0.122,0.610
0.064,-0.111,0.967,-0.610,0.183,0.854
0.063,-0.111,0.969,-0.977,0.183,0.854
0.061,-0.114,0.968,-0.916,0.183,0.916
0.067,-0.113,0.968,-1.038,0.122,0.916
0.069,-0.109,0.969,-1.404,0.061,1.038
0.066,-0.109,0.966,-0.977,-0.244,0.916
0.064,-0.108,0.967,-1.221,-0.183,0.793
0.064,-0.108,0.968,-1.099,-0.244,0.793

1.528,-0.230,1.884,114.258,90.027,-38.269
1.548,-0.221,1.777,68.665,28.687,-21.179
1.144,-0.197,1.267,26.611,-35.095,-2.869
0.815,-0.181,1.161,-0.244,-50.171,11.475
0.705,-0.120,1.037,-24.536,-41.809,22.156
0.608,-0.036,0.912,-41.443,-34.058,26.611
0.486,0.056,0.848,-50.537,-21.606,25.940
0.435,0.141,0.779,-53.711,-11.475,23.682
0.417,0.203,0.726,-52.734,-4.700,22.705
0.384,0.237,0.689,-48.706,-0.793,23.743
0.390,0.250,0.676,-42.358,2.380,26.672
0.418,0.272,0.681,-33.569,2.319,30.457
0.430,0.287,0.705,-21.912,-2.441,35.461
0.427,0.281,0.769,-8.545,-11.353,40.588
0.394,0.289,0.824,2.686,-24.963,45.532
0.335,0.289,0.854,12.146,-41.626,50.110
0.273,0.268,0.873,19.409,-58.044,54.626
0.214,0.241,0.903,23.926,-73.425,57.190
0.156,0.236,0.936,26.794,-87.769,56.580
0.095,0.220,0.951,27.710,-99.731,54.382
0.060,0.191,0.956,24.841,-109.314,52.490
-0.062,0.193,1.059,21.179,-118.103,48.889
-0.201,0.214,1.014,15.686,-127.869,39.795
-0.313,0.213,1.000,13.367,-126.953,28.503
-0.384,0.219,0.988,9.583,-112.976,18.372
-0.456,0.202,0.952,4.883,-90.393,10.864
-0.484,0.180,0.940,2.197,-60.486,2.625
-0.490,0.150,0.983,1.770,-25.024,-3.967
-0.309,0.124,1.035,-0.122,10.864,-9.521
-0.122,0.116,1.025,-2.686,30.701,-15.137
-0.078,0.119,1.004,-5.127,36.987,-20.142
-0.053,0.130,0.969,-9.094,38.208,-23.315
-0.018,0.141,0.930,-11.841,37.842,-24.414
0.002,0.167,0.905,-12.329,36.499,-25.208
0.031,0.202,0.889,-10.620,33.997,-25.696
0.059,0.208,0.892,-7.202,31.616,-25.330
0.093,0.196,0.883,-3.052,28.259,-24.048
0.130,0.181,0.902,0.427,24.353,-22.339
0.157,0.173,0.930,3.357,19.958,-20.874
0.177,0.169,0.946,6.409,15.198,-19.775
0.178,0.166,0.944,9.216,11.414,-18.555
0.157,0.162,0.915,11.597,9.399,-15.747
0.157,0.148,0.906,13.611,12.451,-10.620
0.181,0.147,0.937,14.160,21.301,-5.432
0.209,0.132,0.974,13.550,30.640,-1.404
0.209,0.107,1.003,11.597,36.743,2.136
0.191,0.102,1.014,8.362,40.100,4.150
0.153,0.114,0.998,5.005,43.335,4.089
0.096,0.110,0.984,2.380,49.377,3.113
0.049,0.100,0.974,-0.366,57.983,1.343
0.021,0.083,0.983,-3.662,67.566,-1.221
0.020,0.073,0.995,-7.690,76.477,-4.944
0.037,0.065,1.011,-12.329,83.923,-10.254
0.062,0.069,1.026,-16.968,88.318,-16.785
0.104,0.072,1.025,-20.996,88.684,-24.048
0.146,0.081,1.018,-24.170,85.693,-32.593
0.152,0.091,1.020,-24.902,79.529,-42.236
0.134,0.111,1.016,-24.780,69.702,-50.842
0.115,0.118,1.018,-24.780,58.594,-58.167
0.105,0.140,1.024,-24.658,48.218,-67.017
0.096,0.167,1.007,-22.766,39.490,-77.881
0.085,0.190,0.984,-19.226,33.569,-89.783
0.068,0.225,0.936,-15.137,31.128,-100.525
0.049,0.232,0.928,-11.597,31.616,-105.896
0.052,0.214,0.958,-9.583,34.058,-107.971
0.080,0.189,0.990,-9.033,39.001,-112.122
0.142,0.160,1.032,-9.155,46.631,-118.469
0.264,0.145,1.032,-10.742,49.805,-126.404
0.400,0.130,0.994,-13.367,44.495,-133.911
0.493,0.091,1.016,-17.700,33.936,-139.282
0.564,0.029,1.062,-26.123,15.747,-141.174
0.622,0.018,1.056,-39.124,-12.329,-137.268
0.660,0.111,0.988,-51.331,-41.138,-127.258
0.637,0.223,0.839,-57.190,-62.500,-113.708
0.577,0.281,0.760,-54.016,-72.693,-98.999
0.541,0.302,0.728,-44.739,-75.928,-85.571
0.505,0.280,0.689,-32.776,-77.698,-72.510
0.472,0.233,0.603,-19.897,-77.576,-63.232
0.420,0.219,0.533,-6.287,-72.266,-58.960
0.388,0.201,0.513,8.911,-60.791,-56.885
0.394,0.103,0.482,22.705,-46.997,-54.138
0.498,0.020,0.556,33.691,-32.227,-52.734
0.654,0.003,0.685,38.391,-25.085,-49.805
0.788,-0.004,0.745,38.086,-32.166,-41.504
0.816,-0.011,0.781,35.034,-45.288,-27.222
0.799,-0.003,0.787,31.555,-60.181,-11.841
0.772,0.036,0.762,29.419,-73.547,1.282
0.709,0.065,0.765,31.250,-81.604,15.991
0.591,0.018,0.783,36.438,-85.205,30.640
0.454,-0.081,0.833,42.358,-84.839,39.673
0.357,-0.116,0.896,45.349,-80.444,39.307
0.328,-0.068,0.938,44.128,-70.923,33.386
0.329,-0.018,0.975,41.260,-56.702,29.236
0.361,-0.033,1.057,39.856,-42.480,29.053
0.374,-0.052,1.115,37.354,-33.569,30.823
0.355,-0.068,1.133,32.166,-29.907,33.203
0.271,-0.052,1.096,26.245,-30.762,33.203
0.203,0.010,1.002,21.912,-34.546,29.602
0.185,0.027,0.935,19.470,-32.898,28.015
0.182,0.039,0.870,18.494,-27.527,28.137
0.208,0.078,0.832,19.775,-22.339,29.297
0.243,0.113,0.799,21.851,-20.752,33.630
0.259,0.070,0.795,23.499,-21.118,42.297
0.205,-0.033,0.821,23.865,-21.851,50.415
0.186,-0.062,0.835,20.752,-22.034,52.307
0.217,-0.085,0.840,14.343,-20.081,52.856
0.219,-0.076,0.843,6.897,-18.372,52.551
0.256,-0.024,0.852,0.610,-19.836,53.467
0.281,0.036,0.877,-2.197,-23.376,58.838
0.274,0.035,0.894,-1.160,-27.100,66.589
0.237,-0.022,0.954,3.235,-31.311,73.792
0.187,-0.041,1.002,8.911,-40.100,75.439
0.133,-0.026,1.018,14.648,-51.147,73.181
0.072,-0.040,1.046,20.081,-57.617,70.740
0.001,-0.054,1.078,23.865,-58.716,68.115
-0.065,-0.048,1.097,25.879,-56.458,65.002
-0.137,-0.039,1.112,26.245,-52.307,62.561
-0.211,-0.034,1.109,25.513,-45.898,59.265
-0.280,-0.017,1.086,23.682,-36.926,54.626

1.085,-0.381,1.620,-156.372,214.905,-14.709
1.233,-0.309,1.596,-184.509,204.529,-3.052
1.298,-0.161,1.463,-207.520,183.899,12.390
1.380,-0.054,1.314,-222.168,164.124,32.715
1.399,0.031,1.250,-230.835,154.053,57.739
1.322,0.120,1.147,-238.098,154.724,85.510
1.329,0.255,1.041,-240.540,161.072,110.596
1.384,0.380,0.970,-232.056,168.823,131.409
1.403,0.493,0.894,-214.111,175.842,146.362
1.390,0.589,0.846,-191.284,180.847,154.907
1.323,0.601,0.832,-166.687,185.059,161.682
1.252,0.525,0.796,-143.860,187.317,167.847
1.126,0.404,0.759,-128.052,191.284,175.110
0.959,0.323,0.687,-121.582,204.956,185.974
0.918,0.310,0.624,-119.690,226.074,200.073
0.919,0.287,0.593,-117.981,254.089,218.323
0.846,0.262,0.543,-118.164,290.283,239.624
0.849,0.359,0.444,-119.690,330.566,261.963
1.040,0.483,0.375,-113.770,363.892,284.912
1.258,0.509,0.352,-97.839,381.470,302.673
1.325,0.490,0.321,-76.233,377.686,307.617
1.270,0.461,0.303,-51.392,354.431,297.119
1.215,0.427,0.319,-26.001,316.101,276.733
1.089,0.374,0.337,-2.502,267.334,251.465
0.876,0.281,0.300,18.677,215.942,225.891
0.614,0.205,0.258,34.607,173.462,202.026
0.364,0.167,0.234,44.556,149.719,182.922
0.217,0.167,0.216,51.758,143.860,172.363
0.116,0.169,0.215,58.960,151.733,167.053
0.014,0.177,0.213,64.514,167.725,166.504
-0.047,0.190,0.214,67.566,185.913,171.021
-0.048,0.217,0.246,67.932,201.416,177.490
-0.028,0.254,0.292,66.528,209.778,182.556
-0.046,0.272,0.315,63.904,207.520,184.265
-0.107,0.301,0.313,60.425,198.059,180.176
-0.187,0.347,0.314,56.458,185.791,172.302
-0.294,0.404,0.329,53.894,175.171,161.499
-0.389,0.493,0.353,53.894,166.931,149.658
-0.461,0.549,0.363,58.411,161.316,136.902
-0.515,0.576,0.417,65.247,159.424,123.169
-0.540,0.559,0.488,70.679,157.898,110.535
-0.547,0.544,0.512,72.388,153.442,95.459
-0.596,0.543,0.492,70.496,149.597,79.163
-0.653,0.542,0.480,65.613,150.391,64.453
-0.697,0.547,0.460,59.143,155.029,51.514
-0.700,0.578,0.465,53.955,162.842,39.551
-0.623,0.647,0.499,52.124,172.363,28.076
-0.564,0.709,0.497,54.016,175.476,16.785
-0.568,0.759,0.500,59.509,173.279,5.798
-0.554,0.811,0.540,68.604,169.861,-1.038
-0.492,0.844,0.602,81.116,164.124,-3.052
-0.423,0.826,0.632,94.116,154.663,-3.052
-0.380,0.802,0.643,102.173,142.578,-1.831
-0.393,0.762,0.635,104.675,130.432,2.258
-0.407,0.702,0.625,102.783,120.789,8.362
-0.368,0.655,0.618,96.069,112.427,14.221
-0.296,0.658,0.628,85.510,105.103,17.639
-0.254,0.689,0.639,74.036,96.497,18.860
-0.207,0.691,0.645,62.012,85.632,18.555
-0.209,0.628,0.651,47.363,72.937,13.611
-0.309,0.614,0.693,28.931,66.711,4.333
-0.326,0.689,0.702,12.207,69.336,-3.967
-0.316,0.701,0.721,-1.709,67.505,-10.742
-0.251,0.713,0.682,-12.817,66.895,-14.587
-0.121,0.745,0.692,-24.780,65.002,-13.428
-0.082,0.742,0.711,-38.208,58.289,-7.446
-0.057,0.746,0.642,-51.208,42.480,1.282
-0.018,0.793,0.611,-62.500,20.996,14.526
-0.053,0.933,0.569,-66.101,-1.770,27.222
-0.078,1.051,0.541,-60.059,-23.987,29.602
-0.016,1.130,0.567,-44.861,-38.269,23.682
0.032,1.183,0.599,-25.879,-45.532,11.841
0.083,1.165,0.615,-8.179,-48.035,-2.808
0.181,1.117,0.617,3.357,-48.462,-15.503
0.260,1.053,0.602,9.033,-50.415,-21.240
0.340,0.966,0.576,9.705,-54.138,-19.958
0.413,0.887,0.547,5.066,-63.782,-12.695
0.457,0.886,0.512,-2.808,-83.069,-3.418
0.505,0.864,0.479,-8.545,-112.854,6.348
0.536,0.816,0.414,-12.634,-148.865,17.273
0.467,0.760,0.257,-16.418,-188.477,29.419
0.316,0.697,0.186,-20.935,-220.032,44.250
0.116,0.750,0.140,-29.907,-233.093,56.274
-0.109,0.856,0.060,-35.706,-229.431,61.401
-0.302,0.961,0.047,-33.997,-207.092,57.922
-0.400,1.038,0.015,-26.489,-169.250,46.082
-0.418,1.032,-0.009,-14.343,-122.437,29.175
-0.334,0.999,0.014,-2.075,-69.031,11.902
-0.127,0.993,0.055,7.935,-19.226,-2.747
0.076,0.999,0.098,15.808,15.320,-14.282
0.208,0.972,0.192,21.118,36.865,-21.484
0.233,0.933,0.333,20.203,49.927,-23.315
0.161,0.889,0.378,12.634,54.382,-21.729
0.079,0.856,0.359,2.869,48.096,-18.982
0.045,0.863,0.371,-5.005,37.476,-15.808
-0.021,0.847,0.339,-9.033,24.048,-11.780
-0.100,0.829,0.297,-9.338,9.521,-10.193
-0.125,0.915,0.318,-6.958,-3.418,-13.367
-0.167,0.838,0.255,2.930,-19.958,-14.099
-0.281,0.836,0.204,10.925,-30.518,-18.494
-0.302,0.941,0.199,17.334,-24.475,-24.475
-0.271,0.883,0.204,24.658,-12.207,-25.208
-0.257,0.863,0.191,26.917,0.977,-28.687
-0.227,0.854,0.174,29.663,11.108,-38.391
-0.200,0.889,0.144,35.767,18.250,-52.002
-0.204,0.852,0.156,45.471,27.527,-64.819
-0.187,0.765,0.364,52.795,44.983,-73.364
-0.065,0.804,0.491,49.194,68.726,-69.702
0.221,0.778,0.575,36.621,80.383,-55.664
0.418,0.742,0.700,15.503,76.050,-33.020
0.437,0.687,0.710,-9.521,49.194,-7.629
0.378,0.684,0.573,-36.011,0.488,16.968
0.233,0.714,0.520,-55.298,-51.147,42.542
-0.060,0.780,0.531,-66.895,-90.698,65.918
-0.397,0.913,0.304,-68.604,-118.652,72.754
-0.538,1.121,0.092,-52.612,-123.962,73.975
-0.400,1.387,-0.026,-17.212,-102.051,75.134
-0.182,1.320,0.314,31.921,-65.979,78.064
-0.769,0.838,0.821,43.884,-26.367,59.143

-0.412,0.908,0.769,27.832,26.001,10.010
-0.030,0.864,0.782,27.771,48.828,9.094
0.216,0.875,0.775,22.339,40.833,12.573
0.495,0.880,0.784,15.808,-3.357,22.156
0.618,0.838,0.659,10.010,-69.641,39.490
0.451,0.781,0.417,4.028,-140.808,58.228
0.211,0.790,0.165,-1.099,-196.289,72.693
0.043,0.804,-0.011,0.122,-229.126,82.397
-0.137,0.729,-0.083,3.845,-244.812,86.914
-0.319,0.698,-0.057,-0.977,-244.324,77.332
-0.414,0.723,-0.060,-5.737,-230.957,52.368
-0.468,0.756,-0.148,-3.418,-214.111,29.053
-0.559,0.736,-0.114,0.793,-186.707,13.428
-0.628,0.800,-0.038,1.160,-152.405,0.549
-0.691,0.852,0.022,2.686,-118.469,-10.498
-0.725,0.874,0.081,5.554,-85.510,-20.142
-0.723,0.884,0.144,8.972,-54.504,-28.564
-0.635,0.911,0.230,11.963,-29.358,-35.828
-0.483,0.939,0.303,17.639,-14.709,-43.091
-0.353,0.933,0.354,26.001,-11.597,-50.720
-0.255,0.928,0.400,33.813,-17.944,-57.251
-0.193,0.917,0.447,40.649,-32.104,-61.462
-0.150,0.916,0.497,46.631,-51.758,-63.477
-0.148,0.898,0.509,51.819,-76.294,-63.843
-0.190,0.889,0.544,53.528,-102.417,-63.232
-0.262,0.905,0.604,53.406,-127.563,-61.584
-0.357,0.879,0.594,53.467,-152.283,-56.946
-0.459,0.792,0.578,49.927,-177.124,-49.988
-0.573,0.725,0.555,38.574,-199.768,-45.227
-0.736,0.643,0.451,23.743,-214.661,-43.213
-0.917,0.575,0.275,5.798,-213.013,-46.021
-1.071,0.502,0.132,-15.137,-184.937,-52.551
-1.258,0.603,0.100,-36.072,-132.568,-67.322
-1.362,0.669,-0.014,-46.997,-65.186,-90.088
-1.239,0.749,-0.023,-46.875,18.433,-117.310
-0.995,0.768,-0.026,-39.124,98.389,-141.479
-0.759,0.759,-0.031,-27.527,159.912,-166.138
-0.571,0.706,-0.032,-15.564,203.430,-191.711
-0.396,0.621,-0.035,-5.676,231.567,-214.417
-0.236,0.560,-0.031,0.183,246.521,-233.398
-0.116,0.537,-0.023,2.625,252.014,-247.314
-0.007,0.517,-0.067,4.333,251.282,-254.761
0.070,0.453,-0.128,5.981,246.887,-256.042
0.115,0.460,-0.175,6.409,242.676,-254.211
0.075,0.419,-0.306,9.827,240.295,-248.535
0.154,0.356,-0.297,17.151,243.164,-244.934
0.293,0.363,-0.294,26.062,237.122,-246.887
0.494,0.388,-0.295,36.743,219.971,-246.399
0.683,0.353,-0.185,50.415,195.740,-237.610
0.833,0.283,-0.085,59.631,149.658,-226.929
0.955,0.328,-0.061,66.650,82.764,-214.722
1.032,0.362,-0.027,76.111,9.460,-195.801
1.046,0.339,-0.044,88.928,-67.261,-174.988
1.054,0.352,-0.115,103.149,-140.259,-159.790
1.034,0.379,-0.161,121.826,-199.707,-144.897
0.982,0.389,-0.154,141.724,-244.873,-129.333
0.938,0.428,-0.126,161.743,-279.236,-113.770
0.856,0.465,-0.104,182.434,-302.490,-97.595
0.762,0.503,-0.034,204.468,-314.514,-82.153
0.693,0.510,0.056,228.149,-320.984,-69.031
0.678,0.471,0.147,252.808,-327.820,-58.594
0.707,0.377,0.238,277.954,-336.060,-50.476
0.709,0.233,0.367,302.490,-346.191,-47.913
0.624,0.124,0.445,322.937,-354.187,-50.232
0.502,0.029,0.484,340.149,-358.582,-54.626
0.397,-0.092,0.604,355.652,-354.004,-59.082
0.295,-0.238,0.797,364.441,-341.919,-61.279
0.151,-0.363,0.983,360.291,-324.524,-58.228
-0.029,-0.471,1.122,344.666,-302.429,-53.101
-0.178,-0.556,1.194,319.519,-273.499,-49.011
-0.286,-0.567,1.224,288.391,-237.427,-46.021
-0.344,-0.532,1.244,257.874,-194.824,-41.931
-0.331,-0.505,1.249,232.117,-150.452,-37.415
-0.282,-0.489,1.216,210.205,-111.084,-33.325
-0.262,-0.466,1.187,190.308,-76.965,-28.015
-0.259,-0.440,1.163,170.105,-46.997,-21.912
-0.220,-0.505,1.202,149.414,-21.179,-15.808
0.032,-0.472,1.052,128.113,-3.662,-9.460
-1.117,-3.086,4.000,103.943,31.982,-8.667
-0.789,-2.771,4.000,-38.757,231.262,-33.020
0.224,-0.178,1.806,-225.525,153.687,37.781
0.744,0.682,-0.012,-206.909,-2.380,88.745
0.136,0.561,0.376,-104.797,39.734,42.053
-0.225,0.163,0.732,-34.302,56.824,27.100
-0.076,-0.086,0.280,-5.737,6.897,27.222
0.055,-0.110,0.179,16.174,-1.099,19.836
0.052,-0.069,0.311,32.593,16.235,10.742
0.053,-0.064,0.391,42.053,16.907,6.348
0.119,-0.141,0.492,46.204,10.376,2.869
0.214,-0.236,0.804,44.861,11.414,4.578
0.341,-0.322,1.315,44.739,16.602,7.324
0.353,-0.480,2.005,48.645,1.099,-1.587
0.240,-0.508,1.872,36.865,-23.987,-7.446
-0.034,-0.470,1.217,1.099,-30.518,4.150
-0.203,-0.162,0.771,-31.311,-16.357,11.475
-0.177,-0.002,0.655,-33.997,0.977,13.916
-0.014,-0.059,0.734,-20.813,9.583,13.062
0.053,-0.128,0.864,-8.606,4.883,10.193
0.020,-0.146,0.984,-3.235,-1.587,8.362
0.011,-0.167,1.024,-4.211,-2.197,7.874
0.029,-0.156,1.044,-8.362,2.197,7.324
0.052,-0.112,1.031,-11.414,6.287,7.019
0.080,-0.083,0.984,-12.024,6.409,6.042
0.079,-0.069,0.936,-9.827,3.540,4.578
0.059,-0.068,0.908,-5.859,0.610,2.869
0.039,-0.092,0.908,-1.282,-1.160,1.282
0.036,-0.117,0.947,2.075,-1.343,-0.183
0.047,-0.135,0.987,4.028,-1.160,-0.610
0.038,-0.154,1.009,3.906,-0.732,-0.061
0.028,-0.154,0.986,2.319,-0.488,0.427
0.033,-0.139,0.937,-0.244,-0.305,0.671
0.045,-0.130,0.933,-1.404,0.061,0.549
0.063,-0.137,0.975,-0.671,0.000,0.122
0.066,-0.146,1.001,-0.183,-1.099,0.122
0.042,-0.139,0.989,-1.465,-2.258,0.610
0.030,-0.136,0.963,-3.296,-2.197,1.282
0.024,-0.130,0.950,-4.395,-1.709,1.587
0.023,-0.129,0.957,-4.944,-1.099,2.014
0.027,-0.136,0.976,-4.700,-0.305,1.892

0.764,0.856,0.688,-53.589,31.189,-9.399
0.642,0.870,0.571,-45.837,-4.517,-1.343
0.664,0.891,0.483,-41.199,-26.550,6.287
0.774,0.853,0.365,-38.025,-44.067,14.404
0.799,0.794,0.267,-33.325,-63.171,21.179
0.692,0.747,0.209,-26.001,-77.698,22.949
0.569,0.726,0.147,-19.836,-82.581,22.644
0.469,0.729,0.086,-13.123,-77.454,21.790
0.379,0.805,0.019,-5.371,-66.895,18.433
0.295,0.856,-0.026,6.653,-52.612,11.414
0.288,0.844,-0.033,22.888,-38.147,0.916
0.335,0.796,0.018,38.208,-27.344,-10.742
0.382,0.727,0.116,48.340,-20.630,-22.461
0.383,0.675,0.228,50.842,-14.648,-30.823
0.371,0.619,0.309,45.532,-9.094,-35.217
0.403,0.605,0.359,34.119,-4.211,-34.912
0.464,0.645,0.425,20.325,-1.282,-29.236
0.506,0.688,0.374,8.545,-3.235,-19.531
0.507,0.688,0.301,0.488,-12.756,-5.859
0.472,0.691,0.260,-5.371,-28.687,8.301
0.378,0.720,0.247,-8.179,-47.119,18.433
0.247,0.708,0.287,-10.376,-58.960,21.484
0.156,0.697,0.346,-12.878,-57.007,20.264
0.160,0.665,0.406,-13.062,-47.668,19.836
0.282,0.697,0.438,-13.733,-39.246,20.874
0.339,0.667,0.435,-15.381,-33.997,20.630
0.425,0.655,0.445,-17.456,-29.541,19.775
0.504,0.653,0.448,-20.508,-29.663,20.935
0.548,0.649,0.460,-24.231,-35.767,21.973
0.554,0.643,0.444,-28.625,-45.959,20.752
0.506,0.679,0.421,-32.471,-55.176,16.602
0.409,0.688,0.406,-34.363,-60.608,11.963
0.351,0.698,0.427,-34.241,-58.228,8.301
0.309,0.727,0.421,-33.081,-50.110,6.470
0.291,0.776,0.439,-28.992,-40.100,7.446
0.349,0.789,0.505,-22.949,-29.724,11.780
0.400,0.789,0.516,-17.883,-24.597,18.188
0.404,0.777,0.516,-15.320,-27.344,25.574
0.380,0.779,0.511,-15.991,-33.081,31.433
0.369,0.795,0.495,-17.090,-39.856,36.438
0.350,0.820,0.481,-16.724,-46.265,39.978
0.334,0.827,0.481,-13.245,-52.795,40.833
0.318,0.827,0.487,-8.484,-58.167,39.246
0.288,0.803,0.463,-3.723,-62.927,36.316
0.251,0.786,0.443,0.244,-65.674,33.142
0.206,0.764,0.450,3.357,-64.331,30.090
0.202,0.731,0.456,5.127,-57.678,27.588
0.210,0.719,0.466,4.517,-50.537,24.902
0.227,0.737,0.467,2.502,-45.044,21.057
0.219,0.750,0.455,0.977,-41.931,16.663
0.235,0.802,0.469,0.244,-40.588,12.390
0.220,0.828,0.501,0.122,-42.358,7.751
0.162,0.874,0.498,0.244,-45.288,1.282
0.115,0.891,0.492,1.526,-46.143,-5.554
0.071,0.895,0.504,2.563,-43.823,-12.329
0.047,0.895,0.541,3.052,-39.063,-18.860
0.045,0.874,0.579,4.150,-34.485,-24.536
0.041,0.848,0.581,3.906,-31.006,-29.968
0.047,0.836,0.598,2.808,-26.062,-34.607
0.093,0.795,0.626,-0.305,-23.743,-38.147
0.138,0.792,0.674,-6.653,-24.963,-40.039
0.174,0.804,0.710,-14.648,-26.733,-39.246
0.198,0.818,0.699,-23.376,-28.931,-34.912
0.206,0.801,0.696,-31.677,-31.311,-27.588
0.258,0.750,0.714,-39.734,-34.363,-19.409
0.291,0.687,0.676,-48.584,-39.124,-11.353
0.285,0.635,0.617,-58.655,-42.480,-5.310
0.281,0.634,0.568,-68.481,-41.443,-3.235
0.310,0.655,0.521,-78.308,-36.621,-3.113
0.304,0.661,0.455,-87.830,-29.724,-2.502
0.258,0.674,0.380,-97.473,-20.020,0.000
0.291,0.592,0.353,-103.943,-7.507,2.380
0.307,0.642,0.320,-106.445,1.709,-2.869
0.216,0.854,0.227,-110.352,1.526,-9.338
0.262,0.871,0.139,-105.652,6.714,-9.155
0.327,0.892,0.067,-94.727,13.245,-6.714
0.374,0.956,0.032,-79.163,14.099,-3.784
0.363,1.039,-0.021,-59.631,10.193,-2.014
0.326,1.050,-0.076,-34.424,3.662,-0.427
0.303,1.028,-0.108,-5.676,-2.686,-0.854
0.308,1.008,-0.110,23.071,-8.057,-0.610
0.315,0.886,0.014,45.166,-10.498,0.061
0.293,0.757,0.200,55.359,-9.949,-2.319
0.289,0.734,0.324,51.147,-9.277,-5.127
0.288,0.760,0.374,38.269,-7.385,-6.287
0.276,0.805,0.363,24.109,-4.150,-5.615
0.270,0.871,0.324,13.245,-0.671,-4.456
0.264,0.939,0.278,8.057,2.380,-3.174
0.264,0.981,0.256,8.545,5.188,-1.770
0.253,0.995,0.242,13.062,7.629,0.366
0.243,1.003,0.236,20.081,9.705,2.258
0.229,0.996,0.238,28.931,11.780,4.395
0.210,0.971,0.265,37.903,13.855,6.409
0.200,0.951,0.296,45.532,15.503,7.996
0.212,0.945,0.301,53.345,16.113,9.338
0.302,0.779,0.399,61.279,13.733,10.620
0.422,0.852,0.451,65.857,-2.625,6.836
0.215,0.939,0.328,65.125,-26.428,10.071
0.253,0.792,0.322,67.017,-33.203,16.663
0.230,0.768,0.285,67.688,-39.001,20.325
0.167,0.774,0.290,65.552,-43.945,20.386
0.168,0.732,0.298,61.768,-44.861,19.775
0.168,0.695,0.287,57.861,-45.654,18.799
0.153,0.694,0.292,52.612,-43.945,16.296
0.143,0.689,0.296,46.631,-40.527,13.733
0.144,0.679,0.313,39.978,-35.583,10.925
0.141,0.664,0.361,30.823,-28.625,7.812
0.121,0.679,0.410,19.348,-20.081,4.395
0.135,0.702,0.461,7.690,-11.047,1.038
0.167,0.719,0.482,-2.319,-3.601,-1.648
0.189,0.770,0.488,-9.277,1.282,-2.808
0.196,0.823,0.486,-12.939,3.845,-2.075
0.194,0.849,0.474,-12.695,5.066,-0.244
0.159,0.856,0.488,-10.925,7.385,1.404
0.153,0.862,0.489,-7.751,12.207,2.441
0.183,0.865,0.496,-4.089,17.944,4.333
0.207,0.842,0.520,-1.892,23.743,6.165
0.216,0.821,0.586,-2.136,28.809,7.263
0.230,0.795,0.629,-4.578,33.142,5.981

1.605,-3.855,4.000,136.536,416.504,-43.579
2.084,-1.101,2.171,-80.078,178.040,23.621
1.119,1.023,-0.330,-118.469,-9.583,56.946
0.190,1.040,0.350,-45.654,37.659,35.522
0.019,0.011,0.870,24.597,60.547,30.884
0.197,-0.374,0.499,32.776,0.549,13.367
0.359,-0.253,0.290,30.640,-39.063,5.615
0.276,-0.060,0.321,30.823,-46.692,2.014
0.046,-0.177,0.313,28.198,-50.049,0.916
-0.142,-0.282,0.513,17.395,-28.442,2.197
-0.091,-0.203,0.645,-0.977,13.306,0.488
0.166,-0.287,0.909,-12.329,33.081,-3.479
0.341,-0.396,1.499,-12.756,19.226,-10.193
0.278,-0.249,1.993,-10.193,-17.944,-19.531
0.006,-0.331,1.601,-11.230,-46.692,-14.954
-0.238,-0.274,0.851,-21.484,-49.866,-1.282
-0.304,0.009,0.618,-23.987,-27.283,10.864
-0.209,-0.037,0.833,-7.507,1.099,10.803
-0.077,-0.176,0.994,6.897,9.460,5.737
-0.022,-0.208,0.902,5.127,5.737,4.578
-0.001,-0.156,0.808,-2.869,7.385,4.944
0.067,-0.119,0.929,-4.639,14.038,4.517
0.128,-0.139,1.139,-1.282,14.893,2.869
0.124,-0.178,1.162,0.549,9.094,2.747
0.022,-0.175,0.943,-3.784,3.113,5.249
-0.035,-0.114,0.815,-7.996,5.127,7.141
0.006,-0.095,0.902,-6.409,10.742,6.470
0.060,-0.127,1.016,-2.014,10.681,3.845
0.071,-0.164,1.031,-1.160,7.263,2.136
0.075,-0.167,0.992,-3.784,6.104,2.075
0.075,-0.142,0.948,-6.226,6.470,2.747
0.088,-0.125,0.932,-6.775,6.287,2.563
0.107,-0.126,0.953,-5.920,3.967,1.343
0.107,-0.146,0.989,-5.127,0.549,-0.122
0.081,-0.141,0.999,-5.005,-2.563,-1.282
0.060,-0.134,0.975,-6.226,-4.395,-1.343
0.035,-0.120,0.950,-6.775,-5.188,-1.160
0.014,-0.109,0.946,-6.348,-4.578,-1.160
0.000,-0.113,0.957,-5.127,-3.113,-1.099
-0.000,-0.125,0.976,-3.906,-1.404,-1.160
0.009,-0.129,0.982,-3.784,0.366,-1.038
0.021,-0.131,0.971,-4.150,1.709,-0.732
0.025,-0.121,0.911,-4.517,2.930,-0.488
0.006,-0.106,0.750,-6.104,3.113,0.061
0.022,-0.084,0.768,-7.507,4.639,-0.793
0.124,-0.109,1.286,-0.793,7.507,-2.136
0.236,-0.234,1.684,8.850,5.615,-3.052
0.105,-0.327,1.174,-1.526,-5.493,-0.793
-0.100,-0.141,0.577,-24.536,-10.376,2.686
-0.148,0.103,0.399,-31.738,-1.282,2.686
0.004,0.076,0.674,-18.311,11.597,3.601
0.143,-0.094,1.133,5.371,12.390,1.221
0.223,-0.257,1.338,18.616,4.517,-2.197
0.107,-0.286,1.029,7.751,-6.958,-0.488
-0.056,-0.084,0.792,-11.475,-7.935,3.662
-0.040,-0.002,0.860,-15.076,-1.160,5.920
0.091,-0.118,1.049,-2.136,3.601,4.028
0.104,-0.176,1.057,4.150,1.404,0.732
0.034,-0.125,0.918,-1.343,-2.808,1.038
0.013,-0.053,0.889,-5.249,-1.892,2.747
0.046,-0.102,0.969,-2.747,1.526,4.395
0.078,-0.136,1.023,1.465,1.892,3.601
0.061,-0.117,0.990,1.465,-0.305,2.502
0.044,-0.093,0.924,-1.343,-1.526,2.991
0.043,-0.101,0.918,-2.258,-0.854,4.211
0.058,-0.118,0.979,-0.183,0.366,3.845
0.066,-0.143,1.010,2.197,0.000,2.075
0.053,-0.147,0.994,1.648,-1.404,0.427
0.034,-0.132,0.958,-0.427,-2.014,-0.122
0.037,-0.122,0.949,-1.648,-0.977,-0.122
0.040,-0.123,0.946,-1.587,-0.427,-0.061
0.038,-0.123,0.948,-1.953,-0.610,-0.244
0.046,-0.119,0.977,-2.136,-0.427,-0.183
0.051,-0.125,0.997,-2.014,0.061,-0.061
0.047,-0.130,0.980,-2.686,0.122,-0.183
0.043,-0.116,0.952,-4.333,0.000,-0.244
0.045,-0.105,0.955,-4.944,0.427,-0.244
0.052,-0.109,0.969,-4.272,0.793,0.061
0.057,-0.113,0.974,-3.479,0.366,0.549
0.052,-0.112,0.975,-3.479,-0.061,0.916
0.049,-0.115,0.970,-3.418,-0.305,0.977
0.050,-0.110,0.959,-4.089,-0.366,1.038
0.051,-0.104,0.961,-4.456,-0.305,1.038
0.054,-0.105,0.971,-4.456,-0.244,1.221
0.056,-0.111,0.978,-4.211,-0.305,1.221
0.054,-0.110,0.979,-4.089,-0.671,1.465
0.050,-0.105,0.975,-4.150,-0.854,1.465
0.046,-0.103,0.965,-4.211,-0.977,1.404
0.044,-0.100,0.957,-4.089,-1.038,1.343
0.043,-0.098,0.957,-4.089,-0.916,1.282
0.046,-0.100,0.967,-3.479,-0.793,1.160
0.048,-0.106,0.974,-3.052,-0.671,0.916
0.048,-0.107,0.973,-2.991,-0.732,0.793
0.046,-0.103,0.969,-3.540,-0.610,1.038
0.045,-0.103,0.968,-3.723,-0.427,0.977
0.046,-0.101,0.967,-3.784,-0.427,0.854
0.045,-0.099,0.969,-3.845,-0.427,0.732
0.043,-0.099,0.971,-3.723,-0.122,0.488
0.043,-0.099,0.968,-3.845,0.000,0.427
0.045,-0.096,0.963,-4.272,0.244,0.488
0.047,-0.091,0.963,-4.089,0.366,0.610
0.052,-0.087,0.966,-3.784,0.305,0.732
0.052,-0.086,0.971,-3.174,0.000,0.732
0.052,-0.089,0.973,-2.197,-0.244,0.610
0.050,-0.089,0.971,-1.892,0.000,0.671
0.047,-0.090,0.966,-1.648,-0.061,0.488
0.048,-0.087,0.959,-1.404,-0.366,0.366
0.051,-0.088,0.962,-1.038,-0.366,0.305
0.055,-0.092,0.971,-0.427,-0.305,0.305
0.053,-0.095,0.973,0.000,-0.427,0.244
0.050,-0.096,0.971,-0.488,-0.366,0.122
0.047,-0.094,0.970,-0.488,-0.549,0.122
0.045,-0.092,0.965,-0.549,-0.427,0.000
0.046,-0.093,0.964,-0.427,-0.366,-0.061
0.049,-0.093,0.968,-0.183,-0.183,-0.061
0.052,-0.094,0.971,0.122,-0.366,-0.061
0.049,-0.094,0.969,-0.183,-0.183,0.183
0.046,-0.093,0.966,-0.244,-0.305,0.244
0.047,-0.093,0.965,-0.061,-0.305,-0.061

0.436,-2.251,2.885,218.628,9.033,-4.578
0.028,-1.024,2.016,25.269,-2.319,8.118
-0.342,0.183,0.786,-78.613,12.695,21.423
-0.117,0.363,0.315,-84.717,27.344,22.095
0.241,0.058,0.379,-63.599,52.612,10.315
0.357,-0.077,0.633,-31.067,44.128,-1.343
0.290,0.047,0.865,1.221,11.108,-6.470
0.275,-0.029,1.032,25.024,-13.733,-5.737
0.218,-0.261,1.104,34.180,-25.635,-1.526
0.078,-0.341,1.170,24.109,-24.414,3.296
-0.057,-0.194,1.113,3.723,-18.616,5.798
-0.076,-0.114,0.988,-9.521,-13.855,4.150
-0.039,-0.093,0.909,-12.512,-9.399,2.747
-0.025,-0.069,0.902,-11.963,-5.676,2.869
-0.023,-0.064,0.921,-9.644,-2.136,3.296
0.000,-0.076,0.955,-7.141,0.854,3.723
0.029,-0.082,0.995,-5.676,2.869,3.601
0.050,-0.090,1.011,-4.883,4.089,3.113
0.059,-0.096,0.977,-5.188,4.456,2.747
0.068,-0.078,0.941,-6.287,5.066,2.686
0.080,-0.057,0.938,-5.981,5.249,2.625
0.094,-0.060,0.956,-3.906,4.211,1.953
0.100,-0.076,0.974,-1.587,1.831,1.282
0.091,-0.088,0.979,-0.793,-0.366,0.854
0.076,-0.089,0.969,-1.038,-1.770,0.488
0.068,-0.083,0.961,-2.136,-2.563,0.610
0.062,-0.082,0.964,-2.197,-3.235,0.366
0.053,-0.086,0.979,-1.892,-3.479,0.122
0.043,-0.092,0.980,-1.526,-3.479,0.305
0.034,-0.090,0.967,-1.892,-3.113,0.427
0.028,-0.082,0.958,-2.380,-2.441,0.488
0.026,-0.080,0.961,-2.441,-1.282,0.732
0.032,-0.083,0.966,-2.136,-0.366,0.854
0.038,-0.086,0.969,-2.075,0.488,0.854
0.047,-0.085,0.972,-2.197,1.343,0.793
0.053,-0.087,0.968,-2.136,1.587,0.793
0.060,-0.085,0.965,-2.319,1.892,0.854
0.067,-0.082,0.973,-2.808,1.831,1.038
0.072,-0.082,0.977,-2.747,1.404,1.099
0.071,-0.079,0.971,-2.991,0.793,1.099
0.071,-0.076,0.967,-3.174,0.122,1.221
0.070,-0.077,0.965,-2.869,-0.671,1.221
0.066,-0.078,0.966,-2.319,-1.160,1.160
0.062,-0.076,0.967,-2.563,-1.404,1.221
0.060,-0.077,0.971,-2.380,-1.587,1.343
0.057,-0.078,0.973,-2.258,-1.587,1.465
0.054,-0.078,0.972,-2.380,-1.709,1.343
0.051,-0.075,0.969,-2.625,-1.648,1.099
0.049,-0.074,0.966,-2.380,-1.526,1.343
0.048,-0.073,0.963,-2.075,-1.282,1.282
0.043,-0.070,0.960,-1.343,-1.099,1.038
0.038,-0.070,0.960,-0.549,-0.977,0.732
0.038,-0.072,0.963,0.183,-0.488,0.549
0.043,-0.076,0.962,1.160,-0.061,0.244
0.050,-0.075,0.966,1.587,0.610,0.366
0.055,-0.079,0.970,1.404,0.854,0.488
0.058,-0.079,0.971,1.221,0.916,0.427
0.056,-0.079,0.972,0.854,0.732,0.549
0.056,-0.078,0.974,0.793,0.549,0.549
0.056,-0.079,0.969,0.610,0.305,0.366
0.055,-0.078,0.969,0.000,0.366,0.427
0.057,-0.077,0.972,-0.122,0.366,0.427
0.059,-0.079,0.973,-0.427,0.061,0.488
0.060,-0.078,0.973,-0.610,-0.061,0.366
0.060,-0.078,0.972,-0.610,-0.244,0.366
0.059,-0.077,0.971,-0.854,-0.427,0.244
0.059,-0.078,0.968,-1.038,-0.366,0.427
0.058,-0.076,0.967,-1.221,-0.488,0.549
0.057,-0.078,0.968,-0.977,-0.610,0.427
0.055,-0.079,0.968,-0.793,-0.610,0.549
0.054,-0.078,0.967,-0.610,-0.671,0.427
0.053,-0.078,0.967,-0.671,-0.854,0.549
0.051,-0.077,0.968,-0.854,-0.549,0.732
0.050,-0.077,0.967,-0.793,-0.488,0.793
0.052,-0.076,0.970,-0.977,-0.305,0.732
0.053,-0.076,0.970,-0.732,-0.244,0.671
0.054,-0.077,0.969,-0.549,-0.122,0.854
0.055,-0.076,0.969,-0.854,-0.061,0.854
0.055,-0.074,0.967,-0.854,0.061,0.854
0.056,-0.073,0.968,-0.732,0.000,0.854
0.057,-0.072,0.969,-0.549,0.000,0.854
0.057,-0.073,0.971,-0.671,0.061,0.854
0.057,-0.073,0.970,-0.366,-0.122,0.854
0.057,-0.072,0.971,-0.427,-0.183,0.916
0.056,-0.070,0.969,-0.488,-0.061,1.038
0.059,-0.072,0.970,-0.671,0.061,1.038
0.057,-0.074,0.969,-0.732,0.183,1.099
0.057,-0.073,0.969,-0.549,0.122,1.099
0.057,-0.075,0.968,-0.366,0.000,0.977
0.057,-0.075,0.969,-0.488,-0.061,0.916
0.057,-0.077,0.968,-0.488,0.000,0.854
0.057,-0.078,0.969,-0.732,-0.122,1.038
0.056,-0.079,0.969,-0.549,-0.061,0.854
0.057,-0.078,0.970,-0.732,-0.061,0.854
0.057,-0.079,0.968,-0.488,-0.305,0.732
0.058,-0.077,0.966,-0.610,-0.305,0.488
0.058,-0.076,0.968,-0.732,-0.427,0.427
0.058,-0.074,0.968,-0.610,-0.488,0.488
0.059,-0.074,0.969,-0.671,-0.427,0.488
0.058,-0.074,0.972,-0.671,-0.671,0.671
0.058,-0.074,0.971,-0.366,-0.793,0.488
0.056,-0.076,0.970,-0.793,-0.732,0.610
0.056,-0.073,0.970,-0.671,-0.610,0.610
0.056,-0.072,0.969,-0.793,-0.610,0.610
0.055,-0.074,0.968,-0.793,-0.732,0.610
0.055,-0.073,0.968,-0.793,-0.732,0.549
0.056,-0.073,0.969,-0.671,-0.610,0.610
0.057,-0.073,0.970,-0.977,-0.549,0.671
0.057,-0.072,0.968,-1.038,-0.549,0.610
0.057,-0.072,0.969,-0.793,-0.488,0.488
0.058,-0.073,0.970,-0.916,-0.488,0.427
0.058,-0.073,0.969,-0.793,-0.549,0.366
0.058,-0.073,0.970,-0.610,-0.732,0.427
0.058,-0.072,0.970,-0.732,-0.549,0.488
0.057,-0.072,0.969,-0.549,-0.549,0.427
0.057,-0.071,0.968,-0.671,-0.427,0.427
0.057,-0.070,0.970,-0.610,-0.610,0.366
0.057,-0.070,0.970,-0.671,-0.671,0.305
0.057,-0.068,0.970,-0.488,-0.610,0.488

-0.885,-2.929,2.606,170.593,-122.314,40.955
-0.853,-0.743,1.847,6.409,-35.828,20.752
-0.788,0.827,0.837,-74.585,-98.145,-27.222
-0.706,0.473,0.220,-59.814,-103.760,-33.142
-0.656,0.036,0.225,-37.720,-52.795,-28.381
-0.637,0.117,0.393,-31.616,1.038,-15.564
-0.534,0.200,0.735,-22.827,44.250,-3.662
-0.295,0.120,1.009,-10.010,49.438,-1.099
-0.178,-0.013,1.106,1.831,25.391,0.732
-0.242,-0.101,1.044,6.042,2.075,3.601
-0.316,0.019,0.986,0.916,-10.376,0.854
-0.386,0.145,0.913,-5.066,-16.663,1.526
-0.432,0.115,0.846,-5.676,-15.686,4.578
-0.432,0.083,0.841,-3.662,-10.620,3.540
-0.419,0.098,0.853,-2.319,-6.226,1.526
-0.394,0.102,0.874,-2.502,-2.502,1.526
-0.372,0.104,0.886,-3.052,-0.488,1.892
-0.354,0.109,0.920,-3.235,0.183,1.709
-0.334,0.109,0.957,-3.601,-1.160,1.221
-0.334,0.109,0.922,-3.540,-5.188,0.427
-0.360,0.121,0.857,-3.601,-8.728,-0.366
-0.373,0.132,0.847,-2.502,-8.972,-0.122
-0.379,0.128,0.885,-0.916,-8.301,1.038
-0.394,0.093,0.912,-0.610,-8.545,1.221
-0.399,0.090,0.907,-1.099,-9.155,0.671
-0.402,0.099,0.881,-2.319,-9.521,0.000
-0.406,0.108,0.866,-3.174,-8.850,-0.305
-0.395,0.110,0.876,-2.930,-7.690,-0.366
-0.380,0.104,0.902,-2.197,-6.958,-0.183
-0.381,0.097,0.907,-2.319,-7.996,-0.122
-0.394,0.098,0.887,-2.563,-9.521,-0.183
-0.411,0.106,0.865,-2.625,-9.644,-0.244
-0.403,0.109,0.876,-2.563,-8.301,-0.122
-0.406,0.103,0.891,-2.319,-7.324,0.305
-0.418,0.095,0.887,-2.258,-7.935,0.305
-0.419,0.100,0.881,-2.563,-8.118,0.122
-0.421,0.104,0.876,-3.235,-7.690,0.000
-0.424,0.112,0.868,-3.235,-6.592,0.000
-0.420,0.113,0.877,-2.991,-4.883,0.427
-0.414,0.111,0.890,-2.563,-3.662,0.488
-0.408,0.109,0.888,-2.502,-3.357,0.305
-0.391,0.106,0.880,-2.686,-2.869,0.366
-0.388,0.122,0.880,-2.441,-2.441,1.099
-0.407,0.112,0.880,-2.258,-3.235,0.916
-0.408,0.110,0.872,-2.319,-4.089,0.732
-0.399,0.114,0.882,-2.441,-4.395,0.549
-0.403,0.117,0.888,-2.747,-4.822,0.549
-0.412,0.113,0.884,-2.808,-5.554,0.488
-0.418,0.119,0.872,-2.625,-5.981,0.061
-0.426,0.123,0.870,-2.258,-5.615,-0.061
-0.416,0.114,0.871,-1.770,-4.456,0.488
-0.419,0.123,0.879,-1.160,-3.296,1.282
-0.437,0.113,0.878,-1.160,-3.235,1.099
-0.435,0.117,0.869,-1.099,-2.991,0.854
-0.431,0.118,0.870,-0.610,-1.831,0.671
-0.429,0.117,0.873,-0.671,-0.977,0.977
-0.422,0.114,0.879,-0.549,-0.183,1.038
-0.417,0.115,0.880,-0.427,0.610,1.282
-0.415,0.115,0.875,-0.488,0.793,1.465
-0.420,0.117,0.881,-0.244,0.977,1.221
-0.414,0.117,0.878,0.000,0.916,0.854
-0.411,0.117,0.874,0.000,0.916,1.099
-0.408,0.115,0.875,0.122,1.099,0.977
-0.405,0.116,0.879,0.061,1.099,0.732
-0.402,0.112,0.881,0.000,0.610,0.854
-0.402,0.114,0.882,-0.183,-0.061,0.793
-0.405,0.115,0.878,-0.061,-0.671,0.732
-0.411,0.114,0.876,-0.305,-0.977,0.854
-0.415,0.115,0.875,-0.366,-1.343,0.854
-0.417,0.114,0.876,-0.488,-1.160,0.793
-0.416,0.113,0.876,-0.488,-0.916,0.671
-0.412,0.112,0.876,-0.305,-0.671,0.732
-0.411,0.111,0.875,-0.122,-0.610,0.549
-0.407,0.112,0.877,-0.244,-0.732,0.610
-0.404,0.111,0.878,-0.732,-0.977,0.732
-0.404,0.111,0.878,-0.854,-1.587,0.793
-0.406,0.113,0.877,-1.160,-2.258,0.916
-0.409,0.113,0.875,-1.160,-2.930,0.977
-0.412,0.112,0.875,-0.793,-3.296,0.854
-0.415,0.113,0.875,-1.099,-3.479,0.793
-0.416,0.114,0.875,-1.404,-3.540,0.916
-0.418,0.114,0.875,-1.709,-3.540,0.977
-0.424,0.115,0.862,-1.526,-3.479,0.793
-0.386,0.130,0.901,-1.648,-1.953,1.221
-0.373,0.107,0.877,-1.465,-2.625,2.380
-0.447,0.118,0.873,-1.648,-4.883,1.587
-0.429,0.116,0.870,-1.282,-5.371,1.038
-0.431,0.113,0.868,-1.465,-5.310,0.610
-0.431,0.119,0.874,-1.587,-4.761,0.305
-0.428,0.116,0.874,-1.038,-4.395,0.305
-0.433,0.122,0.872,-0.916,-3.601,0.366
-0.439,0.118,0.868,-0.793,-2.563,0.488
-0.442,0.116,0.869,-0.305,-1.709,0.427
-0.442,0.119,0.870,-0.244,-0.793,0.427
-0.450,0.118,0.871,-0.183,-0.122,0.854
-0.464,0.111,0.867,0.305,1.404,1.160
-0.491,0.110,0.866,0.427,4.150,1.648
-0.529,0.118,0.858,0.427,7.507,2.258
-0.550,0.126,0.843,1.038,12.756,2.930
-0.565,0.135,0.844,2.930,20.813,4.211
-0.586,0.131,0.863,5.310,30.518,4.883
-0.565,0.128,0.865,8.484,41.565,6.409
-0.521,0.123,0.867,11.719,54.321,8.667
-0.492,0.087,0.907,15.991,68.237,11.353
-0.473,0.038,0.958,17.578,80.383,13.611
-0.455,0.014,1.000,14.038,88.074,12.512
-0.430,-0.017,1.028,5.371,92.346,8.545
-0.409,-0.080,1.070,-7.690,95.093,3.418
-0.407,-0.103,1.077,-24.109,98.877,-2.991
-0.437,-0.008,1.076,-41.565,102.661,-10.620
-0.438,0.083,1.024,-55.115,107.361,-16.541
-0.417,0.138,0.970,-62.073,113.281,-20.935
-0.382,0.161,0.958,-63.904,123.474,-24.109
-0.346,0.186,0.979,-63.599,136.108,-26.917
-0.324,0.235,1.002,-63.232,149.841,-29.602
-0.310,0.300,1.008,-62.622,165.222,-33.264
-0.281,0.377,1.000,-61.890,182.373,-37.842
-0.240,0.461,0.976,-62.439,200.378,-42.236
-0.157,0.477,0.929,-65.918,220.459,-45.532

0.955,1.085,0.850,-113.708,184.326,-50.293
1.008,1.170,0.791,-112.671,139.648,-39.795
1.023,1.201,0.695,-106.628,96.436,-27.222
1.009,1.183,0.590,-98.267,58.960,-12.146
0.974,1.189,0.488,-90.088,29.236,4.761
0.937,1.213,0.432,-79.468,8.118,24.780
0.902,1.224,0.396,-64.758,-6.348,47.302
0.853,1.198,0.386,-45.837,-17.090,70.190
0.784,1.172,0.377,-24.231,-25.513,90.393
0.685,1.150,0.369,-0.610,-29.297,107.056
0.590,1.104,0.382,23.682,-29.297,119.995
0.515,1.067,0.392,48.401,-29.114,129.089
0.448,0.997,0.402,73.730,-29.236,135.742
0.398,0.883,0.409,97.290,-29.419,139.709
0.371,0.743,0.427,117.249,-31.372,139.648
0.345,0.617,0.448,132.690,-37.231,134.277
0.304,0.509,0.450,143.921,-45.288,125.916
0.260,0.431,0.458,151.917,-52.490,116.394
0.220,0.354,0.467,158.081,-56.885,107.117
0.189,0.290,0.477,162.170,-59.753,99.243
0.140,0.229,0.482,166.138,-62.317,92.773
0.089,0.149,0.493,169.739,-63.171,86.975
0.048,0.059,0.505,172.119,-62.927,81.604
0.013,-0.026,0.521,171.936,-60.791,76.477
-0.016,-0.082,0.550,169.250,-56.519,71.228
-0.037,-0.120,0.575,163.635,-50.842,66.833
-0.039,-0.162,0.599,155.090,-44.678,63.660
-0.045,-0.192,0.623,144.165,-38.818,61.584
-0.067,-0.242,0.641,132.874,-33.875,59.509
-0.043,-0.271,0.685,122.864,-30.029,55.847
-0.060,-0.335,0.657,113.708,-30.090,51.880
-0.080,-0.326,0.665,104.919,-29.541,48.096
-0.095,-0.359,0.703,98.328,-27.893,47.058
-0.117,-0.415,0.735,93.445,-31.006,45.044
-0.104,-0.550,0.802,88.501,-39.490,42.053
-0.154,-0.493,0.748,80.872,-49.561,32.104
-0.171,-0.392,0.846,74.097,-48.096,28.748
-0.163,-0.517,0.823,67.505,-51.147,36.682
-0.190,-0.619,0.861,57.251,-51.636,36.865
-0.189,-0.660,0.887,45.044,-50.598,35.339
-0.175,-0.656,0.904,34.485,-50.781,34.668
-0.178,-0.654,0.919,27.771,-51.697,33.569
-0.195,-0.647,0.939,25.513,-53.284,32.227
-0.217,-0.617,0.957,26.611,-56.030,30.457
-0.230,-0.590,0.960,30.457,-59.448,28.381
-0.252,-0.614,0.962,35.889,-61.890,25.146
-0.285,-0.638,0.964,40.771,-63.049,18.982
-0.325,-0.676,0.945,44.678,-61.218,10.620
-0.351,-0.694,0.930,47.180,-54.688,0.488
-0.331,-0.679,0.939,49.316,-44.617,-8.057
-0.265,-0.634,1.031,51.331,-37.292,-11.597
-0.305,-0.673,1.148,51.636,-41.199,-13.916
-0.358,-0.791,1.255,41.687,-44.922,-12.390
-0.364,-0.649,1.205,25.635,-39.307,-7.141
-0.397,-0.571,1.079,10.559,-40.283,-3.723
-0.429,-0.558,1.044,-1.526,-32.654,-0.061
-0.437,-0.515,1.030,-12.817,-20.325,3.052
-0.420,-0.480,1.002,-24.231,-8.972,6.104
-0.426,-0.446,0.996,-35.278,2.380,8.118
-0.410,-0.411,0.975,-43.701,12.756,10.132
-0.376,-0.392,0.956,-48.279,23.376,10.254
-0.344,-0.353,0.958,-47.668,34.485,8.545
-0.307,-0.313,0.949,-42.419,44.434,5.737
-0.264,-0.283,0.960,-34.973,52.429,2.075
-0.237,-0.278,0.962,-27.771,59.326,-2.258
-0.210,-0.274,0.951,-21.912,64.270,-5.615
-0.177,-0.253,0.962,-19.287,68.298,-8.179
-0.157,-0.236,0.965,-17.883,69.641,-9.521
-0.149,-0.224,0.969,-17.090,68.054,-9.705
-0.129,-0.226,0.959,-15.747,64.148,-9.155
-0.100,-0.232,0.948,-14.465,58.289,-8.423
-0.086,-0.218,0.941,-12.939,51.636,-7.996
-0.095,-0.215,0.925,-11.414,44.983,-6.958
-0.111,-0.254,0.884,-9.338,39.001,-6.165
-0.119,-0.309,0.865,-9.216,36.316,-5.859
-0.125,-0.343,0.890,-12.390,38.391,-6.958
-0.126,-0.353,0.934,-16.724,43.457,-9.399
-0.110,-0.371,0.944,-19.775,48.950,-11.902
-0.077,-0.394,0.948,-23.743,53.650,-13.000
-0.063,-0.408,0.993,-29.419,58.167,-14.038
-0.047,-0.394,1.047,-35.828,60.913,-14.954
-0.009,-0.377,1.057,-41.199,59.265,-14.771
0.013,-0.350,1.011,-44.312,54.321,-14.038
0.012,-0.338,0.946,-44.922,49.133,-12.695
0.006,-0.324,0.870,-43.274,44.983,-11.169
0.005,-0.292,0.816,-39.246,42.297,-10.559
0.001,-0.255,0.799,-31.860,42.114,-11.353
-0.002,-0.211,0.825,-20.996,42.664,-12.939
-0.000,-0.172,0.849,-7.935,40.466,-14.526
0.016,-0.166,0.833,7.751,36.194,-17.090
0.022,-0.167,0.859,25.269,30.457,-20.020
0.037,-0.192,0.926,40.649,22.827,-22.034
0.075,-0.161,0.776,51.270,11.169,-23.743
0.147,-0.273,0.999,64.453,3.418,-22.156
0.195,-0.350,1.201,62.927,-3.601,-17.273
0.090,-0.444,1.025,46.814,-19.775,-10.193
-0.107,-0.498,1.164,25.696,-4.822,0.977
-0.161,-0.181,1.058,1.648,21.912,6.104
-0.090,-0.101,0.906,-9.460,20.996,3.845
-0.094,-0.184,0.900,-8.789,24.231,0.732
-0.040,-0.167,0.939,-6.775,29.968,-1.160
0.072,-0.139,0.984,-4.822,31.494,-2.014
0.128,-0.147,0.959,-1.892,26.184,-1.953
0.131,-0.176,0.937,1.892,21.484,-1.404
0.127,-0.205,0.952,5.066,18.982,-1.038
0.130,-0.203,0.950,5.920,16.113,-1.038
0.143,-0.206,0.957,5.859,14.282,-2.014
0.173,-0.204,0.982,5.127,12.817,-3.113
0.210,-0.199,0.998,3.113,9.766,-3.845
0.220,-0.186,0.997,0.488,5.310,-3.601
0.178,-0.176,0.976,-1.221,0.366,-2.686
0.117,-0.188,0.960,-1.709,-3.540,-1.404
0.079,-0.202,0.970,-1.465,-5.676,-0.122
0.055,-0.198,0.973,-2.441,-5.798,1.831
0.022,-0.208,0.965,-3.662,-4.700,3.845
-0.010,-0.222,0.970,-4.883,-1.892,6.226
-0.022,-0.223,0.989,-6.348,2.563,10.010
-0.037,-0.211,0.980,-7.751,7.751,14.343
-0.045,-0.212,0.986,-8.362,13.672,17.700

1.068,-0.377,0.882,-99.670,88.745,-274.231
1.109,-0.232,0.774,-109.436,59.692,-278.748
1.213,-0.171,0.705,-113.464,42.175,-274.414
1.162,0.053,0.640,-116.821,27.405,-275.635
1.148,0.150,0.740,-122.131,12.085,-270.142
1.079,0.193,0.670,-123.718,-11.719,-265.686
1.068,0.244,0.603,-127.014,-34.851,-267.212
1.085,0.238,0.534,-124.329,-43.030,-265.869
1.020,0.245,0.512,-116.211,-39.856,-265.259
0.952,0.301,0.487,-104.980,-28.320,-261.902
0.991,0.293,0.482,-92.773,-11.414,-252.197
1.033,0.253,0.450,-78.491,0.183,-241.699
1.103,0.417,0.761,-65.125,6.226,-232.971
1.077,0.445,0.726,-55.420,-8.911,-218.262
1.032,0.373,0.742,-51.941,-37.415,-202.087
1.034,0.398,0.656,-50.232,-59.570,-187.317
0.964,0.354,0.667,-51.758,-73.059,-168.335
0.798,0.288,0.701,-50.781,-76.721,-153.992
0.687,0.287,0.755,-50.720,-71.045,-141.541
0.644,0.240,0.841,-50.293,-55.176,-127.014
0.669,0.324,0.993,-49.988,-43.457,-117.004
0.663,0.446,1.019,-43.457,-36.682,-110.168
0.654,0.565,1.016,-36.804,-33.997,-106.689
0.734,0.670,0.991,-31.311,-37.903,-105.286
0.656,0.646,0.867,-24.231,-53.711,-104.004
0.559,0.576,0.833,-11.780,-65.430,-102.783
0.486,0.495,0.819,7.751,-74.768,-96.863
0.411,0.331,0.773,31.189,-87.585,-88.989
0.226,0.201,0.675,51.270,-109.924,-82.764
0.155,0.070,0.607,68.420,-118.530,-79.712
0.149,-0.004,0.615,86.304,-113.342,-77.698
0.012,-0.077,0.398,102.295,-102.417,-79.224
-0.552,-0.231,0.395,118.713,-58.838,-79.285
-0.699,-0.394,0.554,117.004,70.435,-87.402
-0.523,-1.206,1.860,101.257,248.718,-93.994
2.265,-2.657,4.000,42.236,431.091,-62.195
3.421,-0.989,2.263,-142.822,244.690,-4.028
2.098,-0.146,0.069,-208.130,104.187,67.200
0.643,0.472,0.415,-174.988,112.427,67.383
0.196,0.602,0.539,-114.258,61.584,70.190
0.347,0.375,0.287,-52.063,-2.747,50.110
0.602,0.257,0.386,-12.634,-37.903,31.006
0.763,0.281,0.851,13.000,-60.364,25.391
0.723,0.223,1.248,29.663,-97.412,19.897
0.351,0.078,1.290,42.969,-138.062,7.751
-0.205,-0.049,1.078,50.537,-148.804,-0.061
-0.550,-0.241,1.013,43.823,-117.554,-1.770
-0.695,-0.045,1.083,24.475,-69.641,0.854
-0.677,0.016,0.910,18.616,-41.992,1.587
-0.490,-0.044,0.741,18.677,-21.179,-1.770
-0.373,-0.105,0.775,21.423,-1.099,-2.197
-0.338,-0.145,0.871,22.217,13.733,-2.014
-0.255,-0.176,0.971,20.569,24.048,-1.892
-0.109,-0.224,1.062,15.747,33.997,-2.075
0.042,-0.240,1.091,5.859,41.443,-3.113
0.148,-0.205,1.026,-6.836,43.457,-3.479
0.209,-0.159,0.974,-19.226,43.030,-3.113
0.258,-0.118,0.976,-27.893,39.673,-1.892
0.290,-0.084,0.989,-30.457,31.616,-0.366
0.279,-0.060,0.968,-27.832,21.606,0.610
0.227,-0.048,0.918,-22.888,12.756,1.099
0.176,-0.037,0.902,-16.663,7.141,1.526
0.153,-0.035,0.937,-10.437,3.174,1.587
0.130,-0.052,0.982,-5.798,-0.671,1.160
0.090,-0.073,1.002,-3.845,-2.747,0.671
0.057,-0.074,0.981,-4.700,-2.075,0.244
0.043,-0.064,0.951,-6.470,0.122,-0.061
0.040,-0.062,0.963,-7.629,2.869,-0.671
0.036,-0.087,0.997,-8.667,5.676,-1.038
0.028,-0.114,1.011,-12.573,8.057,-1.465
0.018,-0.125,1.010,-18.921,11.292,-1.892
0.011,-0.119,1.006,-27.161,15.442,-2.686
0.024,-0.102,1.001,-35.217,19.897,-3.296
0.062,-0.072,0.986,-41.748,22.949,-4.272
0.100,-0.040,0.967,-44.739,24.231,-4.944
0.126,-0.015,0.954,-44.495,24.353,-3.967
0.136,0.006,0.930,-42.542,23.926,-3.052
0.148,0.024,0.922,-39.185,23.071,-2.808
0.167,0.030,0.936,-34.668,21.606,-2.502
0.183,0.027,0.950,-30.273,18.921,-2.258
0.191,0.017,0.958,-27.100,15.808,-1.770
0.187,0.016,0.960,-25.269,12.939,-1.526
0.185,0.023,0.955,-24.109,10.742,-1.343
0.172,0.030,0.947,-22.888,8.667,-0.977
0.154,0.043,0.948,-21.118,6.714,-0.732
0.146,0.048,0.953,-18.799,5.005,-0.854
0.138,0.045,0.951,-16.724,3.967,-0.916
0.134,0.041,0.952,-14.893,3.723,-1.343
0.129,0.037,0.953,-13.794,3.662,-1.709
0.125,0.036,0.959,-13.367,4.150,-2.014
0.127,0.040,0.962,-13.245,4.639,-2.197
0.134,0.044,0.960,-13.184,5.066,-2.258
0.137,0.047,0.955,-12.756,5.432,-1.953
0.141,0.051,0.951,-12.024,5.859,-1.526
0.147,0.055,0.950,-11.047,6.104,-1.343
0.150,0.059,0.949,-9.949,5.798,-1.160
0.156,0.057,0.950,-8.545,5.188,-0.977
0.160,0.054,0.950,-7.202,4.333,-1.099
0.167,0.056,0.954,-6.470,3.357,-1.038
0.174,0.053,0.955,-5.615,2.380,-1.221
0.176,0.045,0.962,-5.249,1.282,-1.160
0.176,0.035,0.975,-5.737,0.122,-0.916
0.171,0.029,0.981,-7.019,-0.549,-0.610
0.162,0.032,0.976,-9.277,-0.732,-0.183
0.154,0.041,0.968,-11.292,-0.732,-0.305
0.157,0.047,0.963,-12.634,-0.916,-0.427
0.165,0.046,0.962,-13.672,-1.465,-0.671
0.169,0.050,0.959,-14.465,-2.380,-0.671
0.166,0.056,0.954,-14.587,-3.845,-0.183
0.156,0.064,0.952,-14.709,-5.005,0.427
0.141,0.072,0.951,-14.709,-6.042,1.160
0.128,0.085,0.948,-14.282,-6.470,2.014
0.118,0.091,0.943,-13.184,-5.981,2.563
0.115,0.093,0.942,-11.902,-4.944,2.747
0.115,0.095,0.941,-10.376,-3.601,2.869
0.120,0.097,0.944,-9.277,-2.441,2.808
0.126,0.097,0.947,-7.935,-1.648,2.808
0.132,0.097,0.949,-6.836,-1.099,2.625
0.136,0.099,0.949,-5.798,-0.977,2.380

1.735,0.125,0.777,48.645,506.775,134.583
1.893,0.168,0.725,57.129,510.864,153.015
2.036,0.173,0.738,66.345,495.667,170.410
2.119,0.189,0.789,76.172,455.994,184.875
2.157,0.172,0.856,85.938,393.250,196.960
2.107,0.124,0.882,93.201,314.941,205.811
2.009,0.055,0.861,95.581,230.652,211.060
1.917,-0.036,0.815,93.140,150.269,214.050
1.756,-0.060,0.765,85.205,77.454,216.858
1.540,-0.036,0.711,75.928,12.024,220.459
1.293,-0.026,0.635,67.200,-41.809,223.877
1.077,-0.033,0.578,59.814,-79.041,226.196
0.885,-0.014,0.496,52.124,-94.421,226.868
0.711,-0.001,0.479,44.922,-86.182,229.614
0.588,0.012,0.440,37.964,-64.758,234.009
0.507,0.026,0.411,31.555,-33.142,237.732
0.409,0.059,0.395,24.963,9.399,243.103
0.333,0.125,0.373,18.555,57.190,250.000
0.344,0.182,0.367,16.541,102.539,255.493
0.397,0.225,0.378,21.301,138.123,257.568
0.453,0.259,0.413,30.518,162.231,256.226
0.544,0.281,0.484,41.687,173.828,251.465
0.665,0.263,0.550,53.101,170.105,243.347
0.693,0.235,0.547,60.303,155.457,234.802
0.632,0.211,0.579,63.416,140.076,229.187
0.634,0.204,0.683,62.378,121.704,223.694
0.613,0.229,0.669,56.824,96.863,223.450
0.473,0.243,0.642,47.424,76.050,230.591
0.394,0.253,0.662,35.828,64.575,237.732
0.399,0.250,0.754,20.508,60.303,243.835
0.338,0.315,0.670,1.038,54.260,252.380
0.139,0.289,0.661,-15.381,60.303,263.184
0.020,0.292,0.679,-31.067,77.942,262.817
-0.015,0.364,0.627,-47.546,101.501,259.277
0.023,0.397,0.611,-65.308,132.324,255.676
0.051,0.433,0.587,-83.252,159.485,249.268
0.011,0.456,0.501,-101.501,180.176,241.882
-0.071,0.512,0.357,-118.652,201.416,231.934
-0.148,0.587,0.205,-129.639,223.999,221.069
-0.224,0.648,0.032,-132.629,244.141,209.229
-0.332,0.636,-0.154,-128.540,265.869,195.557
-0.461,0.606,-0.289,-121.643,293.579,179.199
-0.515,0.615,-0.349,-111.877,319.946,159.485
-0.501,0.657,-0.389,-94.299,335.693,134.338
-0.440,0.691,-0.421,-68.176,338.196,103.210
-0.375,0.740,-0.397,-32.837,330.139,66.650
-0.289,0.725,-0.288,10.986,311.646,24.231
-0.153,0.674,-0.144,56.335,281.250,-18.616
-0.047,0.663,0.022,99.426,242.004,-59.387
0.023,0.664,0.210,142.029,196.960,-102.600
0.146,0.602,0.347,181.702,146.057,-149.170
0.263,0.576,0.398,214.539,95.276,-197.327
0.344,0.552,0.380,244.141,54.443,-243.774
0.424,0.461,0.312,270.691,26.611,-283.875
0.475,0.318,0.326,293.518,13.977,-314.514
0.586,0.056,0.576,307.617,26.001,-331.604
0.887,-0.097,0.833,291.992,51.453,-325.867
1.324,-0.118,1.095,236.145,78.308,-280.640
1.516,-0.140,1.234,155.640,100.159,-205.383
1.417,-0.077,1.051,78.125,90.576,-135.681
1.496,0.231,1.100,7.874,71.167,-71.960
1.682,0.489,1.275,-57.251,65.979,13.977
1.643,0.502,1.259,-102.478,70.801,95.947
1.516,0.534,1.143,-130.127,79.407,140.991
1.432,0.788,0.913,-142.761,93.445,164.062
1.338,0.833,0.820,-138.062,114.624,185.974
1.107,0.815,0.660,-126.526,131.592,198.242
0.874,0.818,0.511,-112.732,148.071,206.299
0.693,0.796,0.413,-99.121,164.246,215.881
0.583,0.742,0.318,-88.257,172.302,223.206
0.475,0.669,0.258,-82.581,167.542,227.966
0.280,0.600,0.232,-83.496,149.292,228.149
0.036,0.505,0.228,-88.928,122.314,223.389
-0.219,0.424,0.175,-97.412,87.219,209.473
-0.404,0.396,0.068,-106.445,51.025,184.998
-0.596,0.356,-0.064,-110.474,23.132,153.503
-0.849,0.329,-0.239,-106.689,1.038,110.291
-1.046,0.337,-0.294,-94.116,-17.090,49.927
-1.007,0.429,-0.302,-76.294,-34.424,-20.813
-0.864,0.487,-0.276,-55.298,-46.448,-87.036
-0.720,0.429,-0.195,-34.668,-53.467,-145.508
-0.526,0.404,-0.161,-18.982,-63.477,-202.515
-0.346,0.444,-0.159,-5.676,-71.289,-258.667
-0.085,0.537,-0.155,10.254,-72.937,-313.171
0.156,0.541,-0.120,31.006,-71.045,-360.840
0.381,0.549,-0.157,56.213,-69.519,-406.128
0.563,0.501,-0.187,86.609,-68.298,-443.909
0.733,0.419,-0.145,115.540,-63.843,-468.140
0.864,0.232,-0.069,140.259,-49.744,-476.990
0.930,0.062,0.064,158.081,-23.743,-480.530
1.136,-0.076,0.205,159.241,12.329,-471.436
1.667,-0.117,0.373,135.681,54.871,-432.251
2.184,0.107,0.387,87.524,82.886,-355.042
2.176,0.229,0.327,32.715,89.600,-255.493
2.124,0.278,0.214,-15.625,81.238,-163.147
2.465,0.468,0.151,-52.124,63.110,-71.167
2.695,0.603,0.205,-74.280,45.288,28.564
2.663,0.573,0.216,-80.139,19.775,119.263
2.511,0.513,0.182,-71.594,-13.550,183.960
2.234,0.525,0.175,-56.763,-41.687,229.248
1.920,0.474,0.156,-39.124,-57.373,263.306
1.643,0.474,0.098,-26.245,-58.472,294.495
1.421,0.373,0.095,-19.348,-48.279,329.529
1.261,0.299,0.100,-20.996,-37.598,356.689
1.077,0.261,0.117,-30.701,-33.142,375.488
0.928,0.264,0.169,-44.128,-35.583,386.841
0.712,0.321,0.140,-59.143,-52.429,390.564
0.355,0.379,0.011,-70.190,-77.087,379.272
-0.033,0.365,-0.112,-73.181,-89.417,358.826
-0.375,0.354,-0.220,-73.059,-88.623,331.726
-0.681,0.383,-0.322,-69.519,-77.271,291.260
-0.933,0.447,-0.410,-61.096,-56.519,237.671
-1.120,0.511,-0.487,-46.326,-33.142,171.875
-1.267,0.579,-0.506,-25.391,-11.414,96.619
-1.328,0.582,-0.417,-0.366,10.010,20.142
-1.240,0.559,-0.298,24.475,31.067,-49.255
-1.069,0.536,-0.172,46.814,47.241,-109.497
-0.850,0.529,-0.066,65.186,53.467,-162.292
-0.612,0.503,-0.004,79.712,49.866,-209.045

2.334,0.360,0.804,165.405,20.630,-282.715
2.308,0.242,0.767,120.605,-9.399,-173.401
2.231,0.222,0.672,65.735,-47.974,-89.844
2.260,0.412,0.693,10.132,-67.444,-17.212
2.129,0.478,0.689,-38.452,-64.453,52.490
1.943,0.438,0.702,-71.472,-36.865,101.746
1.827,0.477,0.643,-88.318,-1.160,124.695
1.702,0.557,0.574,-95.459,35.767,145.081
1.508,0.565,0.417,-96.802,70.129,169.067
1.316,0.504,0.304,-94.482,98.145,189.575
1.193,0.592,0.244,-92.651,119.507,206.482
1.015,0.627,0.213,-89.417,127.869,225.647
0.839,0.600,0.200,-86.426,121.338,239.624
0.620,0.563,0.219,-82.825,103.394,244.812
0.414,0.516,0.237,-79.468,76.538,239.990
0.313,0.603,0.190,-76.416,42.053,225.952
0.173,0.575,0.119,-68.604,5.005,212.830
-0.117,0.429,0.006,-57.068,-28.381,193.604
-0.477,0.444,-0.120,-45.410,-54.138,159.302
-0.674,0.463,-0.153,-31.189,-66.101,119.263
-0.724,0.514,-0.165,-16.541,-73.364,70.801
-0.674,0.538,-0.180,-0.793,-78.796,15.381
-0.676,0.527,-0.190,18.311,-78.491,-38.635
-0.689,0.483,-0.200,35.461,-73.120,-95.154
-0.589,0.400,-0.194,49.194,-63.171,-152.283
-0.397,0.351,-0.178,57.922,-51.880,-205.261
-0.179,0.328,-0.164,63.660,-39.612,-252.930
0.070,0.296,-0.144,68.726,-27.161,-297.485
0.346,0.296,-0.126,72.510,-16.479,-339.600
0.686,0.330,-0.118,79.834,-5.066,-374.023
1.083,0.322,-0.088,92.957,4.639,-392.334
1.424,0.286,0.095,105.774,8.789,-384.521
1.794,0.237,0.277,111.572,12.268,-351.685
2.273,0.250,0.498,103.943,15.747,-293.884
2.455,0.353,0.562,80.505,-3.235,-208.984
2.307,0.313,0.533,52.795,-36.804,-120.667
2.318,0.333,0.525,25.513,-75.195,-49.561
2.453,0.466,0.552,-5.310,-100.708,25.940
2.301,0.410,0.544,-33.142,-110.291,106.506
2.066,0.255,0.558,-52.734,-102.173,164.490
1.827,0.260,0.536,-68.542,-80.139,199.768
1.580,0.329,0.451,-80.994,-49.377,223.267
1.329,0.359,0.411,-89.722,-15.442,242.187
1.082,0.421,0.380,-95.276,13.916,257.080
0.825,0.491,0.313,-95.337,33.081,271.912
0.517,0.453,0.288,-90.393,44.434,287.476
0.179,0.373,0.290,-84.412,46.570,294.250
-0.109,0.435,0.193,-80.261,39.124,292.908
-0.323,0.365,0.239,-74.585,36.865,293.457
-0.459,0.285,0.206,-74.280,24.780,279.480
-0.641,0.221,0.134,-74.341,4.150,253.784
-0.872,0.273,-0.038,-73.120,-20.874,209.229
-0.985,0.370,-0.162,-61.707,-39.429,146.240
-1.088,0.432,-0.272,-38.147,-52.490,66.223
-1.143,0.431,-0.294,-5.981,-57.556,-25.208
-1.081,0.345,-0.207,23.621,-52.307,-109.375
-0.887,0.259,-0.105,41.260,-37.354,-185.486
-0.583,0.201,-0.049,48.889,-19.470,-252.258
-0.210,0.184,0.001,50.537,-3.174,-308.167
0.184,0.214,0.038,52.368,10.193,-357.117
0.531,0.229,0.034,59.753,21.606,-399.536
0.822,0.209,-0.040,70.984,34.058,-435.059
1.124,0.120,-0.126,85.510,52.917,-455.994
1.586,0.038,0.139,95.642,82.092,-446.594
2.245,0.142,0.446,92.712,109.314,-391.724
2.731,0.306,0.651,74.280,109.619,-290.283
2.692,0.384,0.685,42.603,77.454,-181.702
2.483,0.285,0.521,15.137,23.376,-94.482
2.616,0.360,0.417,-7.874,-19.287,-19.897
2.705,0.509,0.421,-22.217,-41.992,54.932
2.541,0.458,0.412,-25.024,-58.960,115.845
2.287,0.340,0.436,-25.391,-68.420,151.550
2.035,0.417,0.442,-31.494,-65.308,174.805
1.723,0.437,0.350,-38.025,-53.345,197.144
1.393,0.388,0.242,-43.335,-32.104,214.050
1.071,0.346,0.174,-50.598,-4.395,231.262
0.806,0.348,0.155,-56.702,23.010,244.690
0.613,0.394,0.142,-60.059,44.250,250.732
0.461,0.439,0.133,-58.899,58.411,255.066
0.314,0.452,0.157,-54.321,65.186,257.446
0.187,0.467,0.152,-49.500,59.998,255.859
0.007,0.376,0.143,-44.189,45.837,250.916
-0.230,0.281,0.117,-40.955,26.917,236.267
-0.436,0.259,0.076,-39.978,5.615,209.229
-0.601,0.270,-0.005,-38.818,-12.634,174.561
-0.722,0.338,-0.092,-33.325,-26.611,130.493
-0.783,0.428,-0.132,-21.484,-34.607,76.538
-0.756,0.467,-0.125,-6.165,-38.696,18.066
-0.658,0.441,-0.079,7.751,-40.710,-37.537
-0.522,0.428,-0.012,17.212,-39.124,-89.111
-0.362,0.455,0.029,20.874,-36.621,-137.878
-0.183,0.456,0.043,22.827,-33.936,-184.631
0.022,0.449,0.050,23.621,-29.968,-229.858
0.267,0.453,0.041,25.452,-23.254,-274.048
0.534,0.468,0.009,31.738,-11.963,-314.636
0.828,0.502,-0.107,44.861,5.066,-345.947
1.234,0.466,-0.153,66.528,31.494,-357.788
1.828,0.438,0.093,81.421,64.209,-337.036
2.207,0.445,0.447,76.111,87.341,-278.137
2.311,0.375,0.602,62.012,83.557,-206.543
2.388,0.476,0.464,45.288,51.147,-140.808
2.541,0.662,0.361,33.936,15.015,-62.622
2.680,0.725,0.379,23.315,-10.864,18.311
2.589,0.571,0.354,12.085,-35.034,86.060
2.413,0.440,0.358,3.967,-54.260,129.578
2.170,0.463,0.338,-2.014,-69.031,151.855
1.858,0.496,0.256,-5.371,-76.416,166.504
1.457,0.457,0.172,-7.507,-70.190,181.396
1.024,0.416,0.125,-10.803,-50.049,194.763
0.723,0.513,0.085,-15.442,-20.935,205.627
0.447,0.481,0.122,-18.250,10.864,221.985
0.106,0.407,0.146,-23.132,33.691,233.337
-0.204,0.361,0.137,-30.457,44.800,237.183
-0.495,0.330,0.097,-38.330,50.842,234.558
-0.784,0.266,0.046,-43.396,53.162,221.191
-0.995,0.262,0.005,-44.617,50.598,190.796
-0.985,0.292,0.013,-40.405,43.823,146.179
-0.751,0.269,0.002,-29.297,30.334,88.928
-0.613,0.221,-0.022,-12.634,11.292,17.395

2.217,0.327,0.529,22.034,53.406,-222.290
2.324,0.476,0.417,23.437,27.527,-169.861
2.507,0.550,0.400,23.499,11.169,-95.154
2.576,0.438,0.388,18.555,7.812,-11.475
2.618,0.284,0.451,9.827,8.179,55.115
2.699,0.280,0.509,-1.831,-0.244,99.792
2.449,0.352,0.348,-11.292,-22.217,132.446
2.096,0.345,0.333,-18.738,-31.067,161.072
1.872,0.422,0.355,-27.344,-31.799,186.768
1.586,0.402,0.265,-34.363,-33.997,212.891
1.249,0.389,0.223,-40.039,-27.771,233.154
0.895,0.317,0.230,-45.471,-13.489,246.704
0.612,0.378,0.153,-50.171,0.061,248.474
0.373,0.372,0.110,-49.927,17.212,250.061
0.165,0.429,0.107,-48.828,33.508,249.695
-0.055,0.371,0.130,-46.204,43.640,250.488
-0.292,0.304,0.146,-47.119,45.349,246.216
-0.534,0.229,0.130,-51.331,39.490,235.046
-0.744,0.184,0.118,-58.472,30.457,218.018
-0.912,0.132,0.102,-66.223,19.592,194.641
-0.959,0.184,0.078,-72.388,3.906,158.325
-0.840,0.243,0.026,-71.167,-11.108,113.464
-0.725,0.216,-0.016,-60.913,-27.039,60.669
-0.803,0.217,-0.081,-47.180,-47.546,-5.920
-0.870,0.262,-0.124,-30.579,-64.270,-77.637
-0.721,0.304,-0.098,-15.076,-67.627,-142.456
-0.454,0.308,-0.066,-1.831,-59.692,-197.021
-0.164,0.325,-0.054,10.437,-49.133,-242.432
0.088,0.379,-0.096,22.705,-38.513,-281.860
0.347,0.402,-0.157,38.879,-19.165,-316.956
0.714,0.391,-0.252,58.777,13.611,-345.886
1.197,0.339,-0.222,78.857,54.138,-357.300
1.823,0.345,0.052,88.745,93.750,-339.661
2.534,0.475,0.370,81.543,115.417,-284.485
2.942,0.529,0.514,60.913,107.422,-201.111
2.943,0.551,0.509,33.508,70.068,-121.033
2.850,0.640,0.409,5.554,22.339,-53.711
2.876,0.758,0.293,-15.381,-13.000,10.010
2.871,0.761,0.281,-26.062,-29.480,70.862
2.741,0.717,0.265,-23.804,-39.612,115.723
2.467,0.704,0.211,-14.893,-46.875,142.029
2.080,0.671,0.179,-7.629,-44.250,161.194
1.644,0.612,0.139,-3.357,-32.593,178.528
1.229,0.568,0.117,-1.892,-14.282,193.604
0.869,0.581,0.085,-2.502,6.165,207.214
0.523,0.530,0.066,-3.235,27.466,224.670
0.099,0.366,0.095,-6.348,44.678,239.380
-0.222,0.331,0.076,-15.625,50.232,241.699
-0.429,0.318,0.016,-25.269,50.842,238.831
-0.663,0.262,0.005,-32.166,50.903,226.196
-0.892,0.269,-0.040,-37.476,45.593,195.374
-0.971,0.272,-0.091,-36.865,38.696,154.419
-0.898,0.253,-0.157,-29.480,30.945,102.966
-0.917,0.175,-0.185,-14.893,21.362,38.391
-0.961,0.132,-0.162,1.099,5.615,-38.940
-0.798,0.124,-0.139,14.526,-10.193,-115.479
-0.516,0.149,-0.081,21.301,-20.996,-179.321
-0.239,0.185,-0.092,22.766,-26.184,-226.196
0.076,0.155,-0.114,23.315,-25.208,-258.118
0.472,0.167,-0.132,21.301,-23.193,-287.537
1.008,0.210,-0.179,21.606,-22.217,-316.895
1.714,0.270,-0.133,26.794,-22.156,-341.858
2.556,0.351,0.089,28.442,-24.048,-344.543
3.105,0.489,0.359,12.756,-19.592,-295.593
3.018,0.376,0.346,-9.521,-16.235,-217.346
2.690,0.543,0.359,-29.663,-28.564,-158.630
2.687,0.854,0.139,-33.997,-42.908,-91.675
3.024,0.964,0.295,-32.715,-22.888,21.057
3.059,0.790,0.396,-21.423,-1.038,130.249
2.923,0.589,0.334,2.136,2.747,192.566
2.616,0.490,0.295,20.996,0.732,222.290
2.036,0.396,0.321,31.860,-5.676,238.647
1.530,0.439,0.318,34.851,-20.691,251.465
1.084,0.446,0.208,35.217,-38.696,271.545
0.462,0.307,0.072,34.119,-42.847,296.204
-0.198,0.082,0.057,26.733,-29.968,318.176
-0.714,0.010,-0.009,8.484,-17.151,325.562
-1.052,-0.021,-0.015,-10.681,-2.014,320.923
-1.297,0.021,0.031,-24.780,13.977,298.706
-1.410,0.144,0.050,-32.349,16.968,257.141
-1.247,0.273,-0.088,-31.067,3.845,200.745
-1.250,0.120,-0.229,-17.212,-8.362,132.019
-1.459,0.115,-0.274,-2.319,-19.165,37.537
-1.505,0.168,-0.248,15.503,-24.109,-57.068
-1.297,0.121,-0.152,31.921,-18.433,-133.545
-0.976,0.126,-0.044,40.100,-6.897,-192.200
-0.649,0.116,0.034,45.410,7.812,-232.666
-0.221,0.024,0.148,47.974,21.790,-261.719
0.285,0.062,0.138,45.837,24.353,-293.274
0.912,0.188,-0.038,47.974,21.973,-322.449
1.566,0.309,-0.074,58.838,28.381,-341.614
2.260,0.469,0.181,67.627,40.222,-337.952
2.733,0.568,0.486,67.017,51.697,-296.387
2.834,0.445,0.607,60.181,45.959,-231.506
2.761,0.562,0.578,50.232,21.667,-176.147
2.948,0.781,0.516,44.800,-6.836,-105.957
3.180,0.758,0.569,38.269,-28.198,-10.193
3.069,0.498,0.563,26.855,-44.617,78.186
2.723,0.408,0.515,16.174,-55.603,132.690
2.368,0.429,0.469,6.042,-57.556,161.560
1.985,0.439,0.409,-4.578,-50.903,182.739
1.532,0.430,0.337,-16.663,-37.170,200.745
1.060,0.407,0.253,-27.344,-16.479,217.102
0.656,0.386,0.201,-37.842,9.155,233.582
0.222,0.416,0.149,-48.828,35.278,249.329
-0.219,0.424,0.096,-56.763,60.242,263.794
-0.605,0.432,0.027,-59.937,80.811,273.254
-0.922,0.322,0.024,-57.983,92.834,273.987
-1.071,0.431,-0.028,-52.002,89.050,252.869
-1.164,0.395,0.031,-36.987,78.552,221.191
-1.143,0.364,-0.012,-22.522,50.110,167.175
-1.070,0.253,-0.139,-4.333,16.724,94.971
-1.169,0.155,-0.105,15.564,-1.465,13.245
-1.152,0.166,-0.032,29.602,-16.113,-69.763
-0.921,0.145,0.030,35.156,-29.968,-136.475
-0.626,0.146,-0.018,31.799,-38.818,-188.354
-0.203,0.225,0.123,23.499,-37.659,-231.689
0.236,0.280,0.048,14.343,-43.213,-265.198
0.674,0.358,-0.117,12.756,-41.748,-289.734

2.790,0.727,0.402,18.616,10.620,-280.945
2.938,0.759,0.588,12.268,8.728,-219.910
2.891,0.641,0.539,8.545,-16.907,-159.546
2.877,0.757,0.518,2.686,-44.128,-95.215
2.892,0.854,0.579,-10.498,-61.035,-15.320
2.761,0.672,0.565,-23.804,-64.148,68.787
2.527,0.567,0.529,-31.860,-59.875,128.845
2.277,0.514,0.516,-39.978,-52.917,164.978
1.963,0.511,0.508,-52.490,-48.706,187.195
1.550,0.490,0.439,-66.467,-52.673,201.721
1.254,0.490,0.445,-80.017,-63.904,213.989
1.045,0.411,0.435,-94.055,-94.360,229.858
0.841,0.374,0.329,-108.582,-149.353,242.920
0.769,0.401,0.245,-120.056,-221.252,255.310
0.750,0.349,0.066,-126.831,-312.561,269.348
0.806,0.333,-0.106,-128.723,-420.288,276.367
0.772,0.413,-0.485,-122.803,-539.185,273.743
0.582,0.455,-0.862,-96.558,-640.930,260.864
0.310,0.583,-1.180,-58.533,-712.769,233.337
0.116,0.753,-1.308,-16.418,-750.671,202.759
0.097,0.885,-1.180,26.978,-764.954,178.345
0.018,0.918,-1.178,72.693,-772.766,162.292
-0.114,0.888,-1.178,112.427,-769.592,155.640
-0.128,0.749,-1.071,140.869,-754.333,162.354
-0.106,0.728,-0.928,160.645,-739.685,167.358
-0.161,0.617,-0.888,177.246,-727.966,176.453
-0.181,0.531,-0.797,190.308,-710.571,182.007
-0.287,0.477,-0.828,188.049,-693.176,184.631
-0.455,0.455,-0.718,184.265,-663.330,186.096
-0.570,0.543,-0.538,178.040,-625.305,181.396
-0.661,0.563,-0.430,174.988,-590.027,186.279
-0.803,0.562,-0.276,176.208,-552.490,193.542
-1.018,0.527,-0.111,181.641,-512.512,200.562
-1.253,0.479,0.034,186.157,-469.971,210.144
-1.428,0.301,0.173,187.134,-422.485,224.243
-1.597,0.096,0.353,179.199,-373.108,228.271
-1.751,-0.081,0.471,155.457,-328.247,216.064
-1.829,-0.167,0.516,114.746,-287.659,187.439
-1.819,-0.111,0.387,63.843,-243.530,141.418
-1.820,0.006,0.235,16.174,-184.265,89.661
-1.911,0.136,0.139,-20.020,-115.051,29.663
-2.129,0.270,-0.040,-44.800,-45.227,-34.729
-2.084,0.358,-0.117,-55.298,40.344,-98.572
-1.787,0.334,-0.106,-57.617,136.169,-149.841
-1.594,0.290,-0.150,-63.477,225.403,-185.791
-1.391,0.254,-0.214,-72.571,315.308,-213.928
-1.050,0.196,-0.265,-84.412,405.273,-234.741
-0.697,0.187,-0.315,-100.220,485.779,-246.155
-0.455,0.230,-0.361,-114.807,551.086,-248.474
-0.251,0.290,-0.354,-123.901,602.356,-248.230
-0.018,0.374,-0.307,-128.662,630.127,-244.751
0.263,0.511,-0.221,-128.113,630.066,-232.544
0.496,0.657,-0.016,-119.019,598.877,-212.402
0.833,0.728,0.336,-104.797,533.630,-182.068
1.281,0.830,0.678,-94.116,417.358,-136.719
1.427,0.961,0.714,-78.125,244.324,-84.167
1.386,0.926,0.462,-54.932,48.218,-25.696
1.276,0.878,0.198,-30.945,-135.010,46.936
1.042,0.810,0.011,1.099,-290.955,130.371
0.719,0.693,-0.152,34.668,-412.781,204.712
0.342,0.593,-0.276,62.378,-496.887,264.954
-0.067,0.671,-0.275,87.402,-545.959,310.547
-0.459,0.682,-0.408,110.474,-569.641,343.628
-0.731,0.586,-0.516,129.456,-565.002,363.037
-1.052,0.420,-0.419,148.682,-534.546,372.131
-1.468,0.256,-0.261,164.368,-496.277,364.868
-1.860,0.157,-0.178,171.265,-458.557,329.590
-2.008,0.087,-0.068,163.208,-410.828,269.531
-2.019,0.028,-0.228,139.587,-348.267,192.749
-2.429,-0.140,-0.412,112.610,-257.874,110.596
-2.992,-0.097,-0.490,81.543,-147.766,18.677
-3.015,-0.015,-0.499,49.927,-28.503,-71.167
-2.654,-0.026,-0.384,23.071,104.736,-134.216
-2.195,0.078,-0.148,-3.418,228.027,-177.246
-1.758,0.216,0.041,-29.419,314.026,-206.970
-1.307,0.362,0.241,-47.424,366.028,-225.281
-0.835,0.480,0.420,-54.504,388.306,-234.924
-0.436,0.533,0.542,-53.406,385.132,-238.159
-0.100,0.582,0.603,-49.622,359.863,-237.061
0.151,0.535,0.584,-46.692,322.632,-233.337
0.395,0.514,0.614,-52.612,279.907,-223.938
0.675,0.479,0.708,-70.923,224.670,-194.763
0.974,0.479,0.656,-97.046,148.804,-150.330
1.163,0.667,0.483,-118.591,62.500,-97.107
1.122,0.811,0.373,-124.756,-16.235,-24.292
0.953,0.797,0.283,-119.202,-87.769,57.739
0.828,0.795,0.208,-108.643,-151.978,133.484
0.689,0.818,0.169,-97.229,-200.134,205.200
0.473,0.832,0.115,-87.402,-235.657,271.118
0.134,0.736,0.011,-70.068,-260.925,323.914
-0.302,0.635,-0.177,-46.570,-277.283,356.140
-0.785,0.546,-0.273,-18.066,-283.875,368.530
-1.212,0.449,-0.242,9.460,-285.828,358.521
-1.421,0.271,-0.226,26.794,-294.434,324.463
-1.409,0.094,-0.340,29.663,-306.702,266.724
-1.599,-0.031,-0.570,24.109,-308.411,195.374
-2.178,-0.016,-0.783,16.113,-289.612,108.704
-2.659,0.130,-0.962,10.010,-244.568,4.089
-2.789,0.170,-1.066,11.353,-160.828,-98.206
-2.629,0.096,-0.944,17.273,-44.312,-181.335
-2.330,0.041,-0.753,17.944,74.768,-235.718
-1.965,0.117,-0.581,14.282,179.260,-266.479
-1.490,0.210,-0.421,10.010,264.160,-283.081
-1.007,0.232,-0.292,4.822,328.186,-292.725
-0.553,0.159,-0.101,-4.883,366.455,-290.710
-0.138,0.190,0.062,-22.095,380.066,-275.208
0.234,0.277,0.094,-41.870,365.295,-244.568
0.624,0.456,0.193,-59.021,316.528,-200.439
0.900,0.767,0.214,-67.566,241.455,-143.311
0.986,1.077,0.148,-58.960,148.437,-63.599
0.954,1.213,0.116,-32.715,50.903,31.311
0.821,1.118,0.079,0.916,-41.748,128.601
0.656,0.947,0.067,33.325,-127.380,219.604
0.457,0.738,0.050,58.044,-204.468,302.307
0.158,0.590,-0.057,79.468,-269.409,368.774
-0.320,0.458,-0.215,106.506,-320.618,409.424
-0.881,0.180,-0.297,134.155,-352.539,417.480
-1.355,-0.149,-0.149,143.921,-374.084,387.756
-1.421,-0.193,-0.224,123.901,-399.658,318.970

-3.469,0.053,-1.186,53.040,-230.286,-29.419
-3.247,0.074,-1.101,48.889,-77.576,-152.771
-2.710,-0.073,-0.858,49.316,93.262,-243.652
-2.234,0.009,-0.566,38.574,240.784,-307.800
-1.683,0.163,-0.292,29.053,356.384,-345.215
-1.068,0.258,-0.052,24.170,439.087,-364.258
-0.500,0.253,0.093,19.409,486.511,-374.695
-0.034,0.198,0.179,7.385,502.930,-376.892
0.285,0.179,0.234,-13.855,495.850,-370.789
0.492,0.201,0.245,-38.879,469.971,-353.149
0.762,0.276,0.333,-65.613,424.255,-318.420
1.023,0.523,0.341,-92.529,352.112,-263.123
1.124,0.901,0.223,-104.553,256.104,-186.157
1.233,1.228,0.136,-92.285,147.949,-84.900
1.349,1.355,0.176,-61.646,37.170,36.255
1.261,1.194,0.205,-29.419,-71.472,164.185
1.009,0.900,0.195,-9.583,-172.363,283.569
0.745,0.663,0.150,0.977,-260.315,381.470
0.441,0.487,0.031,12.512,-340.942,451.782
0.034,0.339,-0.162,29.968,-409.851,495.117
-0.534,0.199,-0.380,52.979,-460.815,509.033
-1.163,0.016,-0.512,68.298,-490.234,491.821
-1.577,-0.241,-0.483,65.552,-499.939,442.871
-1.583,-0.268,-0.650,43.091,-493.591,358.582
-1.807,-0.219,-0.991,20.020,-455.872,254.333
-2.731,-0.159,-1.267,7.507,-369.385,130.371
-3.284,0.095,-1.349,5.859,-248.535,-20.386
-3.035,0.074,-1.224,14.832,-96.863,-155.640
-2.644,-0.068,-0.954,25.024,65.674,-255.310
-2.255,-0.034,-0.639,19.836,206.238,-317.688
-1.738,0.156,-0.373,9.094,311.584,-347.168
-1.140,0.339,-0.179,2.136,382.080,-359.253
-0.610,0.392,-0.070,-1.892,417.419,-363.464
-0.213,0.376,-0.010,-9.338,424.194,-361.023
0.050,0.369,0.021,-21.790,412.659,-349.854
0.253,0.348,0.093,-37.903,386.658,-327.759
0.478,0.367,0.158,-58.716,342.529,-294.495
0.660,0.579,0.186,-79.590,277.649,-246.887
0.734,0.899,0.165,-91.675,200.745,-177.795
0.740,1.233,0.119,-88.501,113.953,-88.623
0.680,1.364,0.100,-66.345,24.475,14.465
0.594,1.315,0.123,-35.645,-59.204,122.925
0.472,1.155,0.104,-9.888,-136.475,229.370
0.321,0.854,0.124,8.240,-206.787,323.120
0.153,0.522,0.118,19.958,-281.006,390.686
-0.142,0.179,-0.022,28.076,-364.563,421.570
-0.572,-0.075,-0.055,26.062,-448.914,405.640
-0.902,-0.100,-0.387,1.038,-528.198,351.868
-1.229,-0.041,-0.956,-24.170,-565.857,272.156
-2.001,0.118,-1.327,-31.006,-520.569,171.143
-2.938,0.446,-1.524,-15.503,-416.016,38.269
-3.241,0.580,-1.438,15.808,-267.212,-106.689
-3.055,0.450,-1.222,53.467,-85.571,-225.647
-2.705,0.294,-0.913,78.674,91.187,-304.749
-2.195,0.213,-0.612,82.458,232.178,-346.741
-1.600,0.234,-0.349,72.205,326.599,-364.075
-1.001,0.296,-0.127,57.739,375.000,-371.277
-0.481,0.305,0.049,41.504,379.272,-372.681
-0.103,0.272,0.176,21.545,347.839,-367.554
0.162,0.207,0.221,-2.136,291.809,-356.262
0.350,0.132,0.185,-29.480,228.333,-336.670
0.493,0.095,0.111,-59.631,164.062,-304.687
0.673,0.169,0.022,-88.440,100.830,-258.301
0.803,0.362,-0.082,-112.427,36.621,-193.726
0.729,0.534,-0.166,-125.305,-19.836,-115.356
0.511,0.619,-0.271,-125.671,-66.711,-36.072
0.366,0.833,-0.389,-117.798,-103.088,41.260
0.248,1.046,-0.342,-102.478,-122.559,125.427
0.120,1.124,-0.218,-84.412,-134.705,211.060
-0.007,1.078,-0.130,-62.317,-154.968,290.039
-0.160,1.037,-0.052,-38.513,-186.401,359.924
-0.295,0.884,-0.022,-14.771,-228.760,418.640
-0.447,0.564,-0.089,5.127,-280.945,463.928
-0.713,0.117,-0.204,15.991,-328.918,479.736
-1.057,0.032,-0.300,11.414,-367.493,461.731
-1.090,-0.040,-0.399,-2.808,-402.527,438.171
-1.270,-0.236,-0.795,-13.062,-413.452,394.043
-1.726,-0.030,-1.167,-11.658,-374.268,310.181
-2.042,0.471,-1.291,-2.502,-296.814,196.411
-1.962,0.694,-1.318,29.480,-198.059,63.232
-1.716,0.623,-1.272,76.233,-94.055,-76.721
-1.392,0.521,-1.084,114.380,6.287,-210.937
-0.925,0.350,-0.890,135.681,95.154,-332.886
-0.408,0.170,-0.748,140.442,168.030,-440.308
0.069,0.019,-0.618,129.761,223.999,-530.945
0.473,-0.183,-0.541,108.765,262.207,-605.469
0.781,-0.425,-0.539,81.421,288.696,-663.208
0.983,-0.515,-0.557,50.171,312.256,-697.266
1.120,-0.421,-0.663,16.479,332.581,-690.979
1.271,-0.142,-0.591,-22.522,358.582,-625.183
1.375,0.548,-0.500,-73.853,377.625,-501.770
1.516,1.457,-0.640,-93.750,353.149,-353.333
1.821,2.070,-0.867,-55.481,268.738,-192.932
2.082,2.115,-0.723,12.939,169.067,-4.883
1.992,1.905,-0.394,72.937,66.650,191.772
1.796,1.618,-0.187,112.366,-59.509,360.352
1.528,1.284,-0.227,142.456,-201.843,492.249
1.153,0.911,-0.373,163.391,-336.243,587.341
0.612,0.460,-0.590,169.861,-444.092,653.259
-0.143,-0.168,-0.864,159.485,-506.958,687.866
-0.880,-0.510,-0.845,125.305,-522.827,686.279
-1.376,-0.584,-0.597,77.820,-518.921,660.889
-1.602,-0.524,-0.563,22.949,-511.719,592.468
-1.737,-0.307,-1.028,-22.644,-483.948,469.482
-2.495,-0.034,-1.471,-41.992,-387.939,291.260
-3.384,0.386,-1.780,-39.429,-242.737,59.570
-3.243,0.567,-1.677,-11.292,-74.463,-181.152
-2.375,0.341,-1.338,27.832,86.914,-382.568
-1.562,0.202,-0.979,45.776,217.712,-522.034
-0.843,0.211,-0.706,42.847,309.265,-603.577
-0.248,0.139,-0.643,31.616,363.037,-651.001
0.178,0.047,-0.633,15.381,392.334,-686.035
0.457,0.050,-0.635,-1.465,402.100,-707.947
0.689,0.167,-0.648,-13.428,393.066,-704.407
1.040,0.406,-0.652,-21.912,364.014,-667.053
1.424,0.770,-0.451,-27.466,314.697,-588.684
1.460,1.254,-0.360,-33.203,244.812,-463.013
1.442,1.440,-0.431,-20.142,161.011,-300.659
1.541,1.375,-0.500,5.432,69.275,-124.329

1.412,0.938,-0.474,29.053,-94.299,236.145
1.275,0.765,-0.448,15.930,-171.570,390.320
1.082,0.557,-0.480,8.118,-251.099,514.893
0.760,0.302,-0.700,4.333,-328.674,594.421
0.284,-0.044,-0.868,-0.549,-375.732,631.470
-0.229,0.062,-0.955,-16.907,-389.771,637.085
-0.672,0.026,-1.072,-27.893,-376.404,636.108
-1.134,0.108,-1.288,-30.457,-343.933,607.178
-1.398,0.310,-1.406,-19.226,-285.522,551.697
-1.499,0.514,-1.472,17.151,-203.613,462.891
-1.671,0.480,-1.453,65.491,-105.774,339.294
-1.749,0.319,-1.246,107.056,-14.709,183.411
-1.635,0.145,-1.077,132.202,57.434,12.939
-1.405,0.017,-0.943,138.672,119.995,-149.109
-1.073,-0.111,-0.696,123.047,184.998,-284.668
-0.695,-0.084,-0.453,93.445,241.760,-387.878
-0.331,-0.080,-0.245,61.890,286.316,-459.656
0.047,-0.053,-0.043,26.428,322.205,-506.653
0.460,-0.112,-0.010,-12.329,337.463,-529.053
0.840,-0.055,0.036,-51.392,334.656,-531.677
1.224,0.230,-0.151,-89.478,315.735,-498.047
1.484,0.732,-0.286,-116.760,285.950,-416.443
1.213,1.366,-0.487,-126.892,239.990,-306.396
0.704,1.885,-0.482,-97.229,183.899,-193.909
0.711,2.000,-0.550,-29.907,120.911,-69.092
1.234,1.779,-0.502,43.701,55.603,83.679
1.249,1.531,-0.386,94.177,-11.719,236.938
0.860,1.129,-0.462,128.174,-94.910,362.000
0.490,0.717,-0.653,148.987,-179.138,446.960
0.107,0.393,-0.869,157.166,-243.591,492.859
-0.338,0.149,-1.081,155.579,-275.330,508.606
-0.802,0.035,-1.214,146.179,-270.142,500.305
-1.065,0.200,-1.270,140.930,-230.469,470.337
-1.097,0.307,-1.350,162.720,-169.189,426.086
-1.221,0.083,-1.372,205.811,-105.896,362.732
-1.493,-0.034,-1.266,236.633,-49.988,266.418
-1.707,-0.047,-1.208,257.080,5.127,149.780
-1.699,-0.078,-1.052,273.926,69.824,29.114
-1.546,-0.207,-0.903,283.508,132.935,-81.299
-1.386,-0.267,-0.746,285.278,192.322,-171.997
-1.195,-0.189,-0.536,282.715,247.681,-241.028
-0.929,-0.075,-0.352,283.936,292.236,-290.405
-0.612,-0.002,-0.186,289.612,321.106,-324.280
-0.328,0.083,-0.014,296.143,332.703,-348.450
-0.101,0.214,0.172,306.274,329.956,-363.953
0.105,0.324,0.339,324.524,312.500,-370.972
0.281,0.402,0.479,348.267,278.931,-373.535
0.421,0.425,0.583,374.084,233.948,-371.887
0.524,0.442,0.623,403.687,182.556,-368.713
0.614,0.410,0.633,433.167,128.723,-363.220
0.680,0.384,0.622,460.449,73.547,-350.769
0.728,0.297,0.557,488.892,21.790,-328.552
0.731,0.197,0.478,512.085,-18.677,-287.292
0.642,0.049,0.465,527.832,-56.030,-231.628
0.552,-0.142,0.535,541.687,-95.947,-182.312
0.486,-0.359,0.597,555.359,-130.066,-146.179
0.434,-0.555,0.629,560.669,-153.381,-120.056
0.368,-0.819,0.691,551.575,-163.208,-96.863
0.377,-1.071,0.891,530.823,-156.860,-74.341
0.225,-0.721,0.950,494.385,-151.001,-62.378
0.055,-0.873,0.908,450.989,-135.437,-34.119
0.098,-0.942,1.167,408.630,-101.929,-10.071
0.125,-0.869,1.080,355.103,-88.440,3.479
-0.001,-0.838,1.037,301.636,-62.073,22.095
-0.101,-0.851,1.192,252.747,-12.756,38.330
-0.074,-0.871,1.273,205.505,32.410,50.415
0.036,-0.865,1.324,163.635,69.763,56.396
0.187,-0.818,1.393,129.517,92.896,61.279
0.506,-0.975,1.581,102.600,93.689,65.125
0.831,-1.051,1.495,78.247,66.650,57.678
0.696,-1.149,1.918,59.814,11.841,48.950
0.320,-1.420,2.000,27.954,-61.829,34.912
0.117,-1.203,1.969,-33.875,-110.474,16.174
-0.125,-0.896,1.484,-97.290,-133.789,2.991
-0.448,-0.667,1.173,-135.681,-119.934,-2.075
-0.534,-0.659,1.116,-149.109,-64.636,-0.427
-0.352,-0.574,0.975,-159.851,-6.775,-1.892
-0.150,-0.430,0.800,-161.621,29.419,7.568
-0.023,-0.258,0.802,-148.804,50.476,13.611
