aX,aY,aZ,gX,gY,gZ
0.424,-1.362,-0.630,6.775,79.712,44.312
0.308,-1.074,-0.623,-22.156,96.802,35.278
0.259,-0.843,-0.518,-22.217,132.629,32.043
0.269,-0.695,-0.379,-4.944,172.302,28.687
0.364,-0.769,-0.319,9.277,195.923,25.574
0.496,-0.954,-0.345,6.592,208.496,14.893
0.429,-0.811,-0.168,-2.075,220.764,0.977
0.420,-0.749,0.002,-3.601,211.182,15.137
0.507,-0.829,0.057,-4.761,182.190,31.433
0.606,-0.922,0.052,-7.812,158.203,28.992
0.685,-0.945,0.176,-18.311,146.851,20.325
0.666,-1.160,0.058,-15.869,134.521,24.902
0.581,-1.283,-0.090,-22.034,124.512,34.607
0.464,-1.260,-0.190,-77.637,120.911,46.814
0.404,-1.125,-0.187,-136.108,123.901,66.284
0.398,-0.938,-0.086,-144.104,127.991,84.290
0.328,-0.682,-0.028,-116.943,122.681,95.154
0.333,-0.444,0.062,-95.520,99.121,102.234
0.485,-0.606,0.005,-69.580,71.899,102.234
0.692,-0.764,0.013,-50.903,50.903,87.891
0.848,-0.766,0.115,-47.058,31.555,61.035
0.889,-0.989,0.081,-43.823,6.592,39.978
0.898,-1.049,0.103,-56.396,-23.865,35.950
0.808,-1.065,0.088,-64.270,-51.636,43.762
0.715,-1.070,0.010,-69.092,-79.407,71.350
0.687,-0.951,-0.106,-86.182,-102.478,106.812
0.622,-0.670,-0.265,-119.873,-98.511,107.483
0.527,-0.588,-0.489,-168.701,-61.951,81.970
0.455,-0.705,-0.650,-212.769,-3.235,78.003
0.471,-0.871,-0.678,-208.984,59.265,99.426
0.519,-0.991,-0.674,-163.757,109.802,117.676
0.597,-1.068,-0.627,-122.925,135.376,120.667
0.579,-1.026,-0.567,-111.023,135.742,110.657
0.575,-0.893,-0.417,-99.487,129.700,97.168
0.591,-0.809,-0.262,-69.763,123.230,81.604
0.538,-0.791,-0.216,-41.138,112.244,63.599
0.520,-0.779,-0.219,-25.513,102.112,51.453
0.527,-0.752,-0.185,-12.634,99.304,46.082
0.475,-0.722,-0.168,0.488,103.210,43.579
0.601,-0.830,-0.241,-2.808,106.201,49.194
0.766,-0.765,-0.228,-27.283,111.206,48.706
0.828,-0.587,-0.109,-62.317,113.403,53.101
0.780,-0.560,-0.074,-94.543,101.196,72.571
0.411,-0.617,-0.195,-131.653,90.454,103.882
0.060,-0.798,-0.383,-167.725,104.004,142.273
-0.055,-1.022,-0.538,-177.490,148.560,156.189
0.118,-1.093,-0.499,-143.799,202.209,134.460
0.362,-0.958,-0.289,-81.238,233.582,86.426
0.524,-0.823,-0.111,-26.978,223.450,32.654
0.626,-0.781,-0.063,-5.554,184.204,-2.075
0.662,-0.822,-0.186,-10.803,141.357,-13.367
0.783,-0.921,-0.327,-29.663,114.868,-18.982
0.795,-0.829,-0.357,-46.265,101.990,-33.447
0.814,-0.727,-0.384,-51.086,95.398,-38.330
0.789,-0.565,-0.388,-51.147,91.309,-27.649
0.814,-0.442,-0.378,-43.701,89.844,-10.193
0.894,-0.396,-0.295,-27.771,89.539,5.249
1.033,-0.418,-0.132,-1.282,84.290,19.348
1.079,-0.502,-0.007,30.212,65.308,32.532
1.030,-0.765,-0.002,55.542,37.109,47.913
1.208,-1.062,0.043,79.529,19.775,57.861
1.364,-1.179,0.097,102.783,13.977,50.476
1.261,-1.064,0.107,101.074,10.498,47.668
0.986,-0.737,0.064,62.256,6.592,65.979
0.741,-0.595,-0.051,10.986,1.465,89.355
0.573,-0.625,-0.211,-29.053,3.052,109.619
0.443,-0.613,-0.323,-59.204,18.738,119.385
0.307,-0.458,-0.340,-84.656,48.645,123.596
-0.153,0.179,-0.263,-98.450,90.332,130.249
0.383,-0.167,-0.282,-74.219,152.283,146.973
0.755,-0.464,-0.369,-31.128,231.689,118.286
0.733,-0.461,-0.250,-26.855,285.645,75.867
0.882,-0.769,-0.347,-27.161,304.077,81.055
0.930,-1.031,-0.548,-48.340,283.936,84.900
0.904,-0.940,-0.461,-79.468,250.122,76.233
0.814,-0.934,-0.547,-72.021,215.759,66.589
0.789,-0.853,-0.520,-56.763,186.096,52.429
0.670,-0.830,-0.664,-46.509,155.518,47.668
0.330,-0.655,-0.722,-52.673,136.841,48.218
0.102,-0.506,-0.644,-58.899,145.203,43.701
0.195,-0.493,-0.619,-29.724,167.603,22.339
0.328,-0.595,-0.632,-0.977,167.236,4.150
0.313,-0.503,-0.629,1.709,145.386,-5.249
0.297,-0.381,-0.536,-2.502,125.671,-16.357
0.334,-0.374,-0.467,1.709,107.971,-23.315
0.385,-0.405,-0.408,8.484,81.116,-22.583
0.391,-0.421,-0.353,8.484,47.913,-20.081
0.412,-0.551,-0.340,-2.625,11.169,-12.512
0.369,-0.593,-0.348,-16.846,-28.503,4.211
0.386,-0.490,-0.329,-18.250,-55.786,11.719
0.596,-0.580,-0.428,-11.597,-58.594,-5.615
0.885,-0.820,-0.558,-4.150,-37.781,-39.795
1.008,-0.866,-0.524,-11.719,-11.292,-72.388
0.967,-0.777,-0.477,-26.978,3.723,-85.388
0.985,-0.774,-0.475,-28.259,16.541,-78.979
1.012,-0.713,-0.438,-31.128,28.198,-71.106
1.058,-0.647,-0.402,-31.067,33.447,-73.181
1.024,-0.578,-0.369,-27.039,33.447,-76.416
0.960,-0.575,-0.365,-16.785,22.949,-67.322
0.993,-0.696,-0.443,-7.141,3.296,-49.072
0.943,-0.743,-0.516,-10.376,-16.357,-28.625
0.811,-0.690,-0.598,-20.630,-25.757,-9.460
0.649,-0.545,-0.623,-47.302,-19.653,14.526
0.471,-0.404,-0.605,-102.417,-5.615,60.059
0.396,-0.414,-0.589,-138.367,11.597,109.253
0.424,-0.539,-0.583,-140.198,23.132,140.137
0.440,-0.661,-0.596,-121.399,21.484,151.489
0.406,-0.696,-0.658,-94.177,1.892,152.283
0.400,-0.641,-0.706,-70.862,-29.907,150.757
0.408,-0.558,-0.712,-37.598,-62.317,138.733
0.433,-0.487,-0.664,3.967,-84.534,107.666
0.479,-0.463,-0.582,39.063,-91.858,59.570
0.548,-0.568,-0.585,57.739,-82.947,5.005
0.693,-0.682,-0.553,55.481,-60.120,-42.664
0.710,-0.733,-0.490,34.607,-43.213,-71.106
0.697,-0.799,-0.439,12.634,-61.707,-64.941
0.430,-0.667,-0.514,6.104,-107.910,-43.335
0.292,-0.668,-0.225,-17.944,-156.738,-0.671
0.506,-1.147,-0.612,60.242,-191.956,-15.442

0.903,-0.976,-0.639,7.202,59.448,-144.897
0.869,-0.747,-0.494,34.973,17.456,-169.250
0.812,-0.552,-0.416,44.617,-8.972,-177.551
0.671,-0.515,-0.388,49.194,-2.258,-164.429
0.672,-0.589,-0.443,63.599,47.485,-131.287
0.639,-0.420,-0.436,40.649,77.271,-93.506
0.505,-0.229,-0.394,30.945,73.181,-74.463
0.349,-0.203,-0.423,48.340,62.378,-59.998
0.249,-0.216,-0.473,73.730,57.251,-39.185
0.323,-0.413,-0.578,102.844,74.646,-18.311
0.419,-0.584,-0.682,114.868,85.327,4.944
0.450,-0.715,-0.813,114.197,70.251,18.616
0.415,-0.776,-0.935,113.953,35.278,19.531
0.368,-0.839,-1.017,110.657,-14.343,13.428
0.316,-0.733,-1.097,94.116,-68.909,-3.174
0.297,-0.504,-1.063,66.101,-104.370,-28.442
0.297,-0.279,-0.893,28.564,-110.779,-49.622
0.236,-0.266,-0.898,14.709,-107.666,-56.396
0.158,-0.142,-0.772,23.560,-97.229,-54.199
0.103,-0.007,-0.588,13.428,-82.520,-36.621
0.010,-0.195,-0.495,0.610,-73.425,-11.292
-0.172,-0.466,-0.661,10.803,-41.931,5.005
-0.347,-0.514,-0.761,31.128,20.874,21.423
-0.171,-0.516,-0.908,66.040,108.704,59.204
0.105,-0.203,-0.993,103.455,189.453,119.263
0.078,-0.446,-1.308,132.385,240.784,183.105
0.230,-0.832,-1.411,146.606,281.799,216.980
0.577,-0.880,-1.271,131.348,288.452,212.463
0.847,-0.695,-0.969,95.093,262.207,160.950
0.874,-0.472,-0.619,73.547,191.711,62.927
0.988,-0.693,-0.572,82.031,112.000,-36.316
0.962,-0.873,-0.706,86.853,42.053,-85.632
0.666,-0.670,-0.849,59.692,7.019,-86.792
0.330,-0.556,-0.930,30.090,17.395,-54.810
0.205,-0.769,-1.029,18.616,45.959,-18.555
0.239,-0.961,-1.112,2.014,84.961,8.972
0.125,-0.977,-1.100,-28.992,127.075,38.147
0.072,-0.915,-1.193,-63.293,163.696,77.209
0.029,-0.698,-1.289,-89.783,199.280,111.267
-0.247,-0.636,-1.388,-99.304,215.759,152.893
-0.508,-0.759,-1.370,-93.201,231.262,219.055
-0.380,-0.266,-1.186,-80.200,235.168,286.621
0.042,0.388,-0.891,-93.506,256.592,246.155
0.371,0.146,-1.674,-40.405,249.756,158.997
0.536,0.105,-2.034,-18.188,239.624,51.208
0.795,0.366,-1.787,-1.038,255.310,-25.085
1.105,0.064,-1.650,55.542,252.075,-33.813
1.274,-0.008,-1.486,109.436,230.408,-9.827
1.080,-0.123,-1.199,150.879,188.232,22.888
0.733,-0.362,-0.913,182.495,123.962,37.048
0.410,-0.560,-0.771,196.045,59.753,42.603
0.195,-0.695,-0.737,188.354,14.832,48.889
0.300,-0.832,-0.733,161.743,-15.503,54.749
0.281,-0.909,-0.791,120.483,-32.288,69.641
0.218,-0.803,-0.670,78.552,-49.255,79.224
0.265,-0.830,-0.611,47.791,-78.125,77.637
0.294,-0.799,-0.562,14.404,-126.465,71.350
0.348,-0.585,-0.570,-15.015,-177.795,63.599
0.354,-0.436,-0.710,-21.851,-216.064,57.434
0.356,-0.586,-0.941,-18.494,-229.980,59.326
0.192,-0.460,-1.030,-49.988,-222.290,73.120
-0.098,-0.238,-1.534,-77.576,-173.767,95.398
-0.156,-0.181,-1.469,-41.748,-63.599,116.882
-0.173,-0.043,-1.302,-12.451,2.197,125.732
-0.303,0.264,-1.287,-11.169,12.024,115.662
-0.334,0.100,-1.304,13.794,34.851,111.267
-0.212,-0.212,-1.034,33.691,72.144,105.469
-0.068,-0.431,-0.689,42.786,87.280,86.792
-0.138,-0.531,-0.443,47.363,62.561,64.331
-0.304,-0.692,-0.379,57.129,26.672,42.786
-0.343,-0.705,-0.337,49.866,3.296,19.775
-0.286,-0.629,-0.244,18.555,-15.503,2.258
-0.099,-0.524,-0.286,-7.935,-42.236,-8.423
0.173,-0.437,-0.575,-39.551,-71.838,-5.188
0.226,-0.270,-0.694,-61.523,-77.637,10.071
0.168,-0.200,-0.705,-49.988,-48.950,21.851
0.196,-0.258,-0.697,-35.583,-9.033,31.128
0.158,-0.344,-0.647,-35.217,22.522,49.744
0.140,-0.397,-0.597,-39.063,40.527,65.002
0.085,-0.439,-0.688,-43.030,31.311,69.824
0.040,-0.521,-0.994,-43.396,12.329,64.941
-0.073,-0.620,-1.455,-35.278,13.794,50.537
-0.095,-0.682,-1.478,-25.696,42.480,36.682
-0.079,-0.743,-1.321,-18.860,61.829,14.465
0.013,-0.807,-1.151,-23.437,64.392,-21.545
0.109,-0.698,-0.863,-28.748,51.758,-51.270
0.155,-0.195,-0.374,-42.725,3.479,-52.246
0.124,0.212,-0.198,-58.350,-70.435,-30.701
-0.169,-0.017,-0.860,-54.016,-139.404,-18.921
-0.355,-0.067,-1.081,-52.063,-168.579,-17.639
-0.515,-0.085,-1.067,-57.007,-161.255,-17.639
-0.615,-0.390,-1.227,-47.668,-134.521,-27.527
-0.584,-0.565,-1.123,-38.757,-94.604,-46.814
-0.226,-0.623,-0.996,-44.189,-60.059,-61.401
0.307,-0.664,-1.078,-56.702,-50.659,-70.190
0.440,-0.577,-1.096,-67.505,-64.148,-73.486
0.548,-0.510,-1.061,-77.759,-83.984,-67.017
0.747,-0.436,-1.132,-85.022,-109.863,-51.208
0.823,-0.310,-1.074,-89.050,-130.188,-25.940
0.757,-0.165,-0.828,-88.135,-137.085,2.991
0.838,-0.079,-0.563,-75.378,-136.719,29.785
0.762,-0.245,-0.557,-57.495,-154.419,55.359
0.728,-0.357,-0.599,-40.710,-184.753,74.585
0.712,-0.350,-0.423,-39.856,-217.896,84.900
0.940,-0.526,-0.325,-35.828,-269.043,91.858
0.301,-0.739,-0.481,-34.668,-355.591,87.769
-0.487,-0.692,-1.083,0.671,-424.988,67.810
-0.683,-0.311,-1.337,19.653,-399.048,16.357
-0.767,-0.324,-1.315,32.410,-274.353,-28.931
-0.464,-0.452,-1.160,58.899,-79.468,-57.312
0.391,-0.609,-0.722,48.584,103.760,-76.904
1.367,-0.717,-0.287,21.362,211.609,-85.083
2.105,-0.680,-0.097,4.822,227.478,-78.064
2.459,-0.735,-0.083,1.892,176.453,-40.588
2.291,-0.770,0.250,-7.019,97.717,3.662
1.864,-0.749,0.314,-21.301,-7.690,40.833
1.419,-0.774,-0.033,-37.659,-104.431,59.265
0.983,-0.730,-0.429,-52.795,-168.152,61.279
0.807,-0.649,-0.752,-64.331,-195.618,57.495

0.845,-0.331,-0.972,-19.165,5.737,4.395
0.762,-0.200,-0.770,8.484,33.569,16.113
0.868,-0.604,-0.686,-0.854,51.514,14.832
0.966,-0.896,-0.784,-16.052,36.255,13.306
0.973,-0.805,-0.688,-8.728,6.470,11.353
0.817,-0.750,-0.649,6.409,-14.343,0.610
0.720,-0.774,-0.669,0.732,-16.724,-14.832
0.732,-0.788,-0.689,-13.245,2.136,-28.381
0.664,-0.826,-0.745,-19.104,25.574,-28.137
0.584,-0.786,-0.783,-24.536,48.950,-26.184
0.609,-0.765,-0.795,-21.301,72.693,-18.372
0.609,-0.784,-0.812,-13.672,100.220,-8.118
0.573,-0.749,-0.781,-8.728,128.418,-2.014
0.524,-0.657,-0.803,-3.235,150.024,-2.380
0.584,-0.608,-0.854,5.249,170.044,-6.104
0.751,-0.630,-0.773,14.465,189.087,-7.935
0.913,-0.683,-0.706,20.569,200.134,-12.634
0.999,-0.589,-0.687,25.879,198.730,-16.663
1.133,-0.576,-0.567,36.926,187.378,-18.188
1.129,-0.553,-0.476,48.035,165.710,-17.822
0.790,-0.640,-0.524,64.209,134.766,-8.362
0.901,-0.500,-0.659,73.669,113.159,7.751
1.174,-0.200,-0.537,54.443,96.802,31.616
1.243,-0.121,-0.362,43.762,69.763,61.279
0.922,-0.101,-0.501,65.186,43.030,72.571
0.804,-0.330,-0.644,88.623,43.762,95.032
0.561,-0.473,-0.667,100.525,67.444,116.333
0.343,-0.552,-0.540,102.539,97.046,124.451
0.117,-0.700,-0.447,109.802,118.347,117.737
-0.043,-0.858,-0.456,122.864,128.418,98.999
-0.161,-0.873,-0.453,126.831,133.789,73.547
-0.165,-0.818,-0.404,122.986,140.564,48.828
0.094,-0.632,-0.440,101.135,151.611,31.433
0.402,-0.645,-0.453,78.186,178.406,21.973
0.527,-0.729,-0.446,51.819,205.017,16.907
0.615,-0.672,-0.570,12.512,210.937,28.198
0.578,-0.555,-0.589,-16.418,212.036,44.495
0.414,-0.449,-0.640,-28.076,194.275,52.673
0.330,-0.452,-0.724,-22.339,164.368,54.199
0.325,-0.736,-0.929,2.136,129.944,46.753
0.258,-1.015,-1.149,39.917,104.858,10.803
0.041,-0.920,-1.121,75.439,95.215,-38.330
-0.014,-0.853,-0.931,101.196,72.693,-52.856
0.152,-0.535,-0.749,115.295,39.307,-64.697
0.310,-0.222,-0.553,111.023,9.216,-78.796
0.513,0.317,-0.205,89.355,-22.156,-77.820
0.618,0.236,-0.004,30.823,-63.660,-28.748
0.087,-0.734,-0.681,-35.583,-120.972,33.264
-0.442,-0.903,-1.108,-83.618,-141.724,45.593
-0.579,-0.547,-1.236,-110.229,-112.427,44.800
-0.401,-0.267,-1.286,-127.258,-58.472,36.621
-0.223,-0.177,-1.231,-115.173,-2.930,15.869
-0.040,-0.186,-1.196,-87.769,23.499,-5.737
0.156,-0.254,-1.106,-56.763,23.987,-25.513
0.334,-0.346,-1.072,-31.738,7.812,-40.588
0.463,-0.436,-0.987,-13.794,-15.869,-47.913
0.565,-0.544,-0.957,-4.211,-49.744,-46.448
0.637,-0.414,-0.965,-5.798,-96.924,-33.264
0.595,-0.472,-0.852,-1.343,-130.188,-11.230
0.461,-0.615,-0.821,-3.723,-153.687,9.827
0.227,-0.649,-0.904,-18.982,-172.058,23.865
0.053,-0.566,-1.032,-35.767,-174.316,27.954
-0.006,-0.437,-1.057,-43.823,-159.424,22.644
0.056,-0.470,-0.940,-42.297,-140.564,11.780
0.113,-0.441,-0.771,-39.917,-131.531,-8.667
0.317,-0.489,-0.599,-38.147,-139.832,-33.386
0.467,-0.465,-0.593,-39.551,-171.204,-56.824
0.803,-0.474,-0.603,-42.603,-208.252,-68.848
0.619,-0.534,-0.658,-46.814,-242.310,-62.012
0.405,-0.521,-0.677,-43.030,-252.930,-42.358
0.244,-0.517,-0.694,-45.227,-240.417,-23.071
0.057,-0.482,-0.629,-42.175,-215.332,-8.484
-0.100,-0.446,-0.534,-32.104,-182.556,-7.690
-0.225,-0.477,-0.417,-21.118,-138.428,-25.513
-0.173,-0.495,-0.334,-14.771,-74.463,-52.734
0.073,-0.565,-0.272,-16.052,-5.249,-79.407
0.287,-0.576,-0.327,-23.743,47.668,-107.849
0.640,-0.522,-0.371,-28.748,88.562,-130.859
0.999,-0.452,-0.417,-32.593,110.474,-143.494
1.268,-0.421,-0.381,-28.442,110.535,-142.151
1.422,-0.430,-0.271,-23.987,91.980,-128.601
1.367,-0.423,-0.187,-21.545,56.274,-103.455
1.293,-0.506,-0.089,-13.611,10.498,-71.777
1.222,-0.698,-0.095,-13.733,-46.692,-48.218
1.214,-0.794,-0.152,-26.306,-119.080,-34.546
1.069,-0.905,-0.382,-46.692,-201.233,-29.175
0.924,-0.980,-0.724,-74.097,-280.029,-29.236
0.649,-0.845,-1.086,-96.741,-336.792,-33.081
0.408,-0.689,-1.246,-93.445,-332.947,-35.583
0.423,-0.664,-1.295,-66.040,-262.268,-26.062
0.551,-0.631,-1.083,-9.216,-164.551,14.404
0.727,-0.526,-0.592,47.852,-87.036,62.622
0.738,-0.404,-0.435,55.542,-46.387,71.960
0.810,-0.403,-0.488,45.105,-33.997,49.011
0.874,-0.657,-0.198,60.852,-45.227,37.231
0.789,-0.904,-0.053,68.298,-85.876,32.227
0.478,-1.036,-0.138,48.340,-139.099,12.390
0.104,-1.112,-0.268,14.038,-169.373,-19.958
-0.108,-1.240,-0.356,-28.931,-161.377,-55.908
-0.189,-1.358,-0.455,-72.998,-115.112,-83.435
-0.048,-1.354,-0.541,-107.239,-43.335,-99.609
0.243,-0.982,-0.698,-127.441,32.837,-100.159
0.578,-0.647,-0.908,-133.728,99.976,-92.407
0.886,-0.545,-1.048,-128.601,156.616,-82.581
1.115,-0.485,-1.051,-110.596,196.899,-65.735
1.250,-0.430,-1.110,-83.496,208.740,-42.114
1.390,-0.561,-1.187,-50.720,200.195,-24.048
1.321,-0.621,-1.047,-21.240,189.453,-0.488
1.084,-0.658,-1.025,3.601,183.716,27.832
0.992,-0.758,-0.914,35.889,186.646,47.546
0.889,-1.029,-0.619,66.650,187.866,45.837
0.751,-1.253,-0.420,72.449,160.950,32.593
0.720,-1.276,-0.284,54.138,131.836,15.625
0.764,-1.092,-0.210,21.301,120.056,1.526
0.781,-0.883,-0.232,-8.789,112.976,-2.625
0.637,-0.574,-0.285,-26.489,95.154,3.479
0.532,-0.391,-0.346,-25.696,73.425,14.954
0.618,-0.311,-0.314,-10.071,62.073,24.170
0.677,-0.273,-0.201,5.493,67.261,26.611

1.141,-0.945,-0.275,-40.039,-238.953,-41.260
0.526,-0.881,-0.518,-34.363,-299.194,-34.485
0.092,-0.843,-0.521,-15.076,-290.466,-43.091
-0.008,-0.822,-0.335,5.981,-217.712,-55.603
0.062,-0.878,-0.245,24.963,-118.835,-71.106
0.181,-0.979,-0.191,42.969,-14.465,-80.017
0.403,-1.181,-0.094,60.425,77.698,-81.482
0.613,-1.412,0.007,76.172,136.902,-67.078
0.777,-1.266,0.046,81.116,153.564,-29.358
0.754,-0.956,0.038,74.341,136.230,8.484
0.781,-0.733,0.004,69.275,98.389,37.903
0.859,-0.827,-0.071,63.171,54.016,48.645
0.833,-1.203,-0.078,54.016,15.625,51.331
0.800,-1.238,-0.017,39.490,-10.376,63.660
0.681,-0.953,-0.055,30.762,-23.376,76.416
0.478,-0.873,-0.147,29.785,-29.541,75.806
0.252,-0.927,-0.263,24.231,-18.616,68.542
0.122,-0.830,-0.323,4.517,8.423,60.120
0.143,-0.832,-0.315,-18.982,45.349,50.354
0.218,-0.696,-0.298,-40.955,80.566,36.926
0.245,-0.779,-0.283,-51.941,100.952,22.095
0.211,-0.753,-0.321,-54.260,111.450,16.357
0.210,-0.742,-0.417,-53.162,124.573,16.296
0.147,-0.716,-0.478,-50.232,148.132,17.151
0.179,-0.695,-0.531,-45.776,183.716,22.095
0.349,-0.759,-0.476,-36.194,225.586,28.625
0.516,-0.869,-0.350,-19.104,254.944,29.724
0.678,-0.995,-0.242,1.770,253.784,25.391
0.729,-1.054,-0.224,18.860,224.426,13.611
0.653,-1.065,-0.321,31.738,182.556,-0.732
0.530,-1.049,-0.427,40.710,149.841,-10.620
0.452,-1.000,-0.472,44.556,136.902,-13.733
0.417,-0.927,-0.486,45.532,139.893,-11.658
0.404,-0.826,-0.543,48.462,152.039,-4.578
0.464,-0.819,-0.559,56.213,172.485,8.362
0.446,-0.765,-0.500,60.120,194.336,20.508
0.584,-0.791,-0.417,67.383,211.731,33.142
0.754,-0.845,-0.277,72.205,222.534,44.556
0.787,-0.865,-0.229,70.129,214.600,52.673
0.715,-0.889,-0.276,65.247,195.923,59.753
0.703,-0.982,-0.328,54.199,179.077,71.045
0.683,-0.806,-0.371,34.851,161.926,79.590
0.738,-0.672,-0.433,25.208,146.179,93.750
0.693,-0.604,-0.515,26.672,129.150,109.619
0.668,-0.601,-0.623,35.706,109.070,123.352
0.668,-0.609,-0.662,45.471,89.539,136.658
0.647,-0.599,-0.678,55.054,70.740,144.958
0.527,-0.518,-0.678,65.857,51.392,148.926
0.383,-0.557,-0.670,79.773,37.537,152.100
0.325,-0.637,-0.678,94.788,35.645,152.649
0.290,-0.691,-0.677,105.042,41.138,148.621
0.235,-0.782,-0.716,114.014,51.514,140.381
0.191,-0.888,-0.672,114.990,66.101,129.883
0.200,-0.939,-0.515,104.187,86.609,119.934
0.381,-1.050,-0.438,87.952,106.628,106.018
0.589,-1.323,-0.302,68.726,107.300,85.266
0.661,-1.892,-0.248,53.467,94.482,51.575
0.591,-1.659,-0.358,21.606,92.773,9.705
0.569,-1.373,-0.664,-30.945,94.177,-15.320
0.442,-0.432,-0.307,-82.886,90.759,-43.274
-0.075,0.171,-0.534,-109.253,54.199,-40.649
-0.161,-0.218,-0.671,-79.102,41.443,-30.823
-0.392,-0.270,-0.915,-52.368,50.537,-31.921
-0.502,-0.288,-0.937,-30.518,87.097,-24.353
-0.319,-0.348,-0.841,-8.423,128.479,-13.489
-0.137,-0.404,-0.760,3.113,154.053,-0.732
0.098,-0.482,-0.840,5.188,163.025,11.841
0.292,-0.558,-0.817,5.249,163.086,16.174
0.400,-0.568,-0.777,1.221,153.442,17.212
0.537,-0.650,-0.793,-2.563,135.315,22.217
0.716,-0.636,-0.694,-9.521,109.192,25.513
0.810,-0.582,-0.686,-20.020,70.129,28.381
0.678,-0.516,-0.754,-25.269,29.480,36.560
0.537,-0.518,-0.764,-21.973,0.122,46.753
0.512,-0.532,-0.682,-18.372,-18.127,54.443
0.430,-0.582,-0.688,-19.714,-31.921,60.303
0.327,-0.665,-0.743,-22.461,-41.809,62.805
0.266,-0.733,-0.720,-28.503,-49.805,61.646
0.293,-0.793,-0.770,-35.828,-59.570,56.091
0.243,-0.850,-0.917,-38.635,-72.815,48.645
0.145,-0.857,-0.845,-42.114,-83.862,44.006
0.237,-0.754,-0.798,-41.992,-91.797,36.560
0.151,-0.647,-0.756,-37.354,-99.060,24.841
0.076,-0.543,-0.586,-36.255,-97.107,13.916
0.131,-0.489,-0.454,-35.339,-86.243,3.235
0.195,-0.398,-0.401,-32.776,-75.256,-2.075
0.195,-0.514,-0.478,-27.344,-62.195,-2.502
0.213,-0.579,-0.535,-20.264,-49.744,-4.028
0.298,-0.729,-0.600,-15.747,-39.368,-8.484
0.328,-0.757,-0.583,-18.799,-37.659,-16.357
0.375,-0.798,-0.617,-27.283,-44.495,-26.123
0.342,-0.841,-0.691,-37.170,-56.946,-32.471
0.225,-0.816,-0.785,-48.157,-70.007,-31.860
0.141,-0.758,-0.837,-54.077,-72.021,-24.048
0.142,-0.702,-0.843,-52.490,-61.157,-13.062
0.173,-0.721,-0.861,-43.518,-49.622,-4.578
0.248,-0.737,-0.881,-33.752,-44.434,-0.916
0.375,-0.703,-0.876,-25.146,-44.556,-1.404
0.449,-0.674,-0.867,-15.198,-47.974,-5.432
0.439,-0.671,-0.854,-4.150,-50.232,-10.376
0.409,-0.693,-0.859,7.629,-47.607,-12.024
0.427,-0.748,-0.829,19.287,-40.955,-10.132
0.483,-0.819,-0.801,31.677,-36.560,-8.362
0.509,-0.896,-0.773,42.603,-38.879,-7.080
0.496,-0.965,-0.715,47.791,-51.392,-4.395
0.518,-0.976,-0.624,45.105,-71.472,-2.502
0.559,-0.918,-0.545,39.551,-101.563,-1.587
0.594,-0.855,-0.511,34.424,-139.648,-2.563
0.604,-0.735,-0.481,29.724,-179.260,-7.874
0.588,-0.569,-0.546,27.466,-214.478,-16.296
0.489,-0.452,-0.608,34.424,-238.037,-22.522
0.421,-0.351,-0.560,47.180,-241.760,-25.330
0.488,-0.258,-0.465,62.256,-230.652,-27.100
0.612,-0.234,-0.350,79.529,-210.632,-28.137
0.701,-0.284,-0.234,92.407,-190.002,-27.588
0.715,-0.428,-0.178,96.436,-175.415,-24.109
0.727,-0.586,-0.156,87.524,-167.908,-20.569
0.696,-0.706,-0.142,64.575,-162.048,-18.127
0.573,-0.759,-0.135,30.273,-151.367,-18.311

-1.081,0.657,1.312,54.260,-83.618,255.981
-1.211,0.432,1.319,50.476,-91.797,270.447
-1.273,0.279,1.318,55.664,-82.214,238.586
-1.328,0.348,1.408,67.749,-54.321,153.564
-0.889,0.459,1.516,82.825,-7.568,46.143
-0.102,0.200,1.594,95.032,27.954,-33.508
0.034,-0.197,1.513,94.177,38.757,-102.051
-0.299,-0.412,1.202,81.421,56.274,-193.298
-0.296,-0.598,0.849,67.993,102.905,-281.189
0.058,-0.766,0.684,56.458,169.373,-342.163
0.562,-0.969,0.601,41.626,227.051,-369.568
1.013,-1.164,0.412,19.287,252.197,-363.464
1.340,-1.259,0.168,-7.751,255.615,-330.017
1.698,-1.104,0.067,-29.907,243.713,-271.912
2.057,-0.875,0.061,-43.091,210.632,-180.054
2.263,-0.836,0.025,-41.687,145.264,-78.491
2.027,-0.838,-0.036,-27.954,48.279,12.268
1.431,-0.700,-0.076,-1.709,-53.162,80.322
0.775,-0.578,-0.158,32.043,-136.169,121.643
0.310,-0.708,-0.081,64.575,-178.406,151.245
0.069,-0.766,0.176,83.557,-178.101,177.246
-0.039,-0.736,0.502,88.867,-162.537,196.411
-0.142,-0.746,0.759,82.031,-152.954,206.116
-0.220,-0.675,0.884,67.017,-155.762,200.867
-0.390,-0.643,0.934,51.636,-165.039,183.411
-0.966,-0.623,1.068,30.884,-156.860,154.236
-1.214,-0.674,1.022,7.935,-108.215,112.122
-1.043,-0.525,1.000,-16.296,-45.105,66.406
-0.808,-0.421,0.934,-36.499,10.132,24.353
-0.659,-0.352,0.805,-48.523,42.725,-14.465
-0.556,-0.276,0.664,-50.781,61.523,-45.776
-0.357,-0.264,0.629,-46.326,74.585,-62.988
0.025,-0.399,0.795,-44.739,82.947,-64.514
0.359,-0.738,1.169,-52.002,66.345,-57.007
0.490,-0.860,1.588,-79.224,16.479,-50.476
0.229,-0.489,1.020,-129.272,-29.541,-25.879
-0.014,-0.288,0.782,-145.264,-30.457,-2.686
-0.067,-0.411,1.033,-127.319,-30.151,-1.404
-0.099,-0.369,1.030,-116.577,-30.884,-3.113
-0.098,-0.240,1.030,-105.835,-20.447,-3.967
-0.021,-0.197,1.113,-87.524,-10.315,-6.897
0.024,-0.146,1.111,-68.298,-5.371,-7.751
0.028,-0.135,1.074,-50.476,-0.244,-5.615
-0.030,-0.236,0.971,-34.912,2.136,-2.869
-0.063,-0.318,0.882,-28.870,3.845,0.305
-0.010,-0.318,0.901,-31.860,7.568,2.930
0.072,-0.254,0.943,-38.818,9.888,4.089
0.151,-0.174,0.973,-42.480,9.583,4.639
0.159,-0.103,0.972,-39.368,7.446,4.517
0.145,-0.085,1.007,-31.006,4.700,3.113
0.149,-0.136,1.005,-21.790,1.892,1.099
0.133,-0.198,0.970,-16.052,0.061,-0.061
0.094,-0.209,0.947,-15.198,-1.831,-0.305
0.051,-0.198,0.930,-16.052,-3.235,-0.183
0.009,-0.202,0.940,-16.602,-2.319,-0.427
0.030,-0.188,0.975,-17.578,-0.366,0.305
0.057,-0.195,0.990,-16.479,0.793,2.136
0.054,-0.196,0.976,-15.259,2.380,3.845
0.052,-0.163,0.942,-14.099,3.845,5.310
0.057,-0.158,0.941,-11.658,4.761,5.676
0.070,-0.163,0.952,-8.545,5.310,5.066
0.090,-0.186,0.965,-6.348,5.798,4.639
0.109,-0.191,0.973,-5.432,5.432,4.517
0.121,-0.173,0.971,-5.310,4.089,4.944
0.135,-0.173,0.961,-4.761,2.197,4.822
0.148,-0.187,0.958,-4.333,0.183,4.944
0.149,-0.206,0.958,-4.883,-2.930,5.066
0.183,-0.167,0.951,-5.554,-5.798,4.333
0.155,-0.159,0.973,-5.554,-8.972,4.700
0.094,-0.147,0.960,-5.188,-12.085,3.723
0.054,-0.140,0.957,-4.211,-13.062,3.052
0.051,-0.132,0.951,-3.113,-12.390,2.441
0.044,-0.163,0.957,-1.709,-11.658,1.221
0.030,-0.192,0.966,-1.587,-10.376,0.244
0.048,-0.187,0.960,-3.235,-8.789,-0.061
0.083,-0.193,0.961,-4.517,-7.629,0.488
0.081,-0.194,0.958,-5.432,-7.141,0.916
0.068,-0.178,0.977,-6.897,-7.996,1.465
0.024,-0.170,0.968,-7.751,-8.057,1.892
-0.023,-0.180,0.957,-8.362,-6.958,1.953
-0.037,-0.174,0.949,-8.728,-4.578,2.014
-0.007,-0.183,0.953,-8.911,-1.160,2.197
0.038,-0.200,0.959,-9.766,1.892,2.136
0.088,-0.175,0.961,-10.620,3.357,1.770
0.095,-0.171,0.965,-11.230,2.808,1.404
0.077,-0.185,0.976,-11.536,1.709,0.671
0.057,-0.179,0.970,-12.695,0.732,0.488
0.030,-0.171,0.956,-13.733,0.427,1.038
0.020,-0.158,0.946,-14.099,2.075,0.854
0.049,-0.146,0.980,-14.404,4.272,-0.488
0.068,-0.126,0.965,-14.526,4.761,-1.526
0.071,-0.140,0.954,-13.672,4.700,-2.991
0.072,-0.156,0.957,-12.695,4.333,-3.784
0.079,-0.162,0.953,-12.085,4.028,-4.517
0.106,-0.167,0.980,-12.085,4.150,-4.883
0.118,-0.160,0.999,-12.939,3.296,-4.883
0.107,-0.134,0.975,-14.465,1.038,-4.333
0.073,-0.123,0.963,-14.465,-0.122,-3.784
0.057,-0.087,0.950,-13.489,-0.427,-4.150
0.036,-0.065,0.939,-12.024,-1.038,-4.028
-0.001,-0.114,0.933,-9.399,0.366,-3.906
0.006,-0.142,0.952,-6.714,2.441,-4.639
0.067,-0.118,0.972,-5.493,4.089,-6.042
0.111,-0.057,0.963,-4.272,4.578,-7.263
0.145,-0.084,0.990,-1.404,2.625,-6.348
0.159,-0.081,0.997,-0.793,-0.610,-5.249
0.088,-0.055,0.962,-1.892,-3.235,-3.662
0.016,-0.086,0.942,-1.709,-4.639,-1.343
0.004,-0.113,0.955,-0.488,-3.235,-0.732
0.040,-0.142,0.982,0.244,-1.343,-1.526
0.063,-0.166,0.981,-0.488,-0.916,-2.747
0.080,-0.168,0.982,-1.160,-0.183,-4.456
0.081,-0.145,0.975,-3.479,-0.061,-6.287
0.048,-0.125,0.948,-5.371,-2.014,-6.165
0.037,-0.083,0.960,-5.371,-1.892,-5.615
0.046,-0.078,0.975,-4.639,-0.793,-4.333
0.042,-0.080,0.984,-4.639,-0.366,-3.967
0.021,-0.084,0.960,-4.944,0.610,-4.761
-0.005,-0.124,0.956,-4.089,2.136,-6.592

1.352,-0.807,0.580,51.453,-41.687,86.365
1.347,-0.798,0.589,45.349,-55.603,98.206
1.339,-0.780,0.587,41.626,-69.336,111.328
1.301,-0.745,0.574,41.138,-80.139,126.404
1.226,-0.725,0.587,41.870,-83.740,145.203
1.228,-0.709,0.647,38.879,-79.956,169.678
1.305,-0.718,0.704,30.518,-77.759,200.073
1.419,-0.802,0.788,19.714,-81.421,231.506
1.430,-0.824,0.837,5.615,-90.210,263.245
1.323,-0.694,0.741,-5.798,-106.079,294.312
1.168,-0.553,0.707,-10.620,-121.338,322.083
1.065,-0.573,0.771,-15.442,-128.906,347.595
0.943,-0.609,0.824,-30.212,-129.700,371.765
0.844,-0.537,0.844,-53.040,-130.249,393.250
0.790,-0.412,0.814,-76.355,-135.803,415.039
0.722,-0.245,0.810,-92.346,-147.339,440.002
0.573,-0.070,0.950,-90.515,-162.598,464.661
0.339,-0.186,0.848,-79.773,-179.138,480.408
0.245,-0.388,0.737,-86.487,-196.228,480.469
0.157,-0.531,0.758,-106.262,-204.407,469.238
0.035,-0.524,0.710,-141.785,-211.609,442.566
-0.105,-0.344,0.550,-186.890,-220.947,401.367
-0.282,-0.131,0.384,-229.065,-222.107,354.919
-0.497,0.048,0.210,-261.169,-210.388,306.580
-0.632,0.221,0.026,-281.982,-186.523,259.521
-0.664,0.411,-0.133,-291.504,-153.442,215.393
-0.670,0.597,-0.249,-291.016,-113.770,174.011
-0.743,0.702,-0.362,-279.785,-71.228,135.071
-0.871,0.761,-0.464,-260.986,-28.442,98.328
-0.968,0.874,-0.507,-238.342,15.747,63.843
-0.963,0.990,-0.498,-210.510,63.660,33.264
-0.849,1.050,-0.442,-177.368,108.337,8.850
-0.687,1.033,-0.384,-142.639,145.264,-5.432
-0.534,0.946,-0.244,-111.450,171.326,-10.864
-0.410,0.859,-0.076,-88.867,180.298,-11.719
-0.301,0.806,0.043,-76.111,171.875,-7.385
-0.254,0.790,0.092,-71.472,150.513,-0.244
-0.274,0.803,0.109,-70.374,123.962,9.521
-0.290,0.821,0.117,-69.397,96.497,20.203
-0.289,0.842,0.114,-67.871,67.871,29.053
-0.301,0.871,0.101,-64.941,39.368,34.546
-0.307,0.918,0.089,-59.570,14.587,36.377
-0.323,0.930,0.045,-51.025,-4.395,34.668
-0.377,0.937,-0.001,-41.931,-17.395,31.189
-0.418,0.987,-0.044,-32.654,-23.560,27.161
-0.384,1.034,-0.068,-20.508,-22.400,22.278
-0.348,1.035,-0.080,-6.287,-16.785,15.869
-0.325,1.007,-0.069,7.690,-7.751,8.484
-0.288,0.956,-0.046,20.020,0.244,1.587
-0.222,0.955,-0.077,26.611,7.019,-3.906
-0.144,1.162,-0.101,20.874,10.803,-7.446
-0.114,1.325,-0.115,10.681,12.024,-6.714
-0.095,1.375,-0.109,5.005,10.925,-2.319
-0.083,1.374,-0.030,1.587,9.949,4.517
-0.071,1.328,0.066,3.113,10.071,12.817
-0.053,1.221,0.172,7.874,10.010,22.278
-0.045,1.120,0.247,12.146,8.545,33.936
-0.026,1.051,0.314,13.123,4.272,46.631
-0.035,0.964,0.355,11.780,-4.456,58.044
-0.065,0.898,0.354,8.545,-15.564,67.566
-0.096,0.864,0.335,3.723,-28.015,74.036
-0.149,0.811,0.296,-1.404,-41.565,77.637
-0.215,0.791,0.238,-6.470,-54.688,77.087
-0.271,0.814,0.176,-11.597,-66.040,73.120
-0.314,0.839,0.122,-14.709,-73.975,66.223
-0.335,0.838,0.062,-15.076,-77.148,55.054
-0.350,0.844,0.018,-13.977,-75.195,41.199
-0.344,0.862,0.005,-12.085,-68.420,26.489
-0.335,0.875,-0.019,-10.010,-58.655,12.512
-0.338,0.873,-0.035,-8.850,-46.814,-0.732
-0.338,0.864,-0.025,-8.911,-30.945,-12.268
-0.313,0.882,0.001,-11.108,-11.658,-21.912
-0.264,0.927,0.030,-12.512,10.437,-29.968
-0.235,0.915,0.037,-11.597,35.767,-38.208
-0.187,0.885,0.065,-12.329,63.965,-44.373
-0.093,0.885,0.126,-16.052,91.370,-46.143
0.015,0.866,0.189,-22.156,113.647,-42.664
0.126,0.876,0.253,-30.273,128.235,-38.818
0.243,0.936,0.319,-38.208,135.132,-34.912
0.300,1.004,0.329,-45.532,132.751,-26.001
0.301,1.087,0.315,-52.368,123.535,-13.123
0.272,1.161,0.335,-58.594,110.229,0.610
0.227,1.162,0.340,-60.364,96.191,16.418
0.227,1.097,0.346,-57.007,83.191,32.776
0.226,1.061,0.368,-54.138,71.045,48.462
0.157,1.053,0.381,-53.650,58.655,63.538
0.085,1.048,0.372,-55.725,47.424,75.500
0.032,1.033,0.355,-58.594,39.978,83.557
-0.028,1.019,0.361,-65.063,36.926,89.600
-0.081,1.012,0.378,-74.829,36.255,94.666
-0.084,1.014,0.366,-84.717,35.522,98.511
-0.112,1.014,0.324,-93.567,34.363,100.525
-0.173,1.028,0.263,-101.135,33.203,101.501
-0.234,1.065,0.191,-106.262,33.142,101.929
-0.261,1.103,0.123,-108.582,36.194,101.318
-0.282,1.141,0.050,-107.666,42.419,99.976
-0.291,1.191,-0.007,-105.103,51.758,98.816
-0.278,1.225,-0.044,-100.525,62.866,98.572
-0.242,1.238,-0.069,-94.971,71.594,100.281
-0.240,1.220,-0.101,-89.111,76.050,104.431
-0.248,1.168,-0.122,-84.656,77.820,111.755
-0.207,1.124,-0.123,-81.543,76.721,120.728
-0.196,1.063,-0.140,-80.200,71.838,129.944
-0.255,1.005,-0.155,-82.092,64.209,139.526
-0.308,0.951,-0.171,-85.022,56.763,149.414
-0.350,0.920,-0.194,-87.830,49.927,159.363
-0.419,0.895,-0.225,-89.661,44.495,168.884
-0.493,0.886,-0.265,-88.501,40.588,177.856
-0.546,0.879,-0.296,-84.229,37.292,185.120
-0.579,0.842,-0.325,-75.378,33.447,190.491
-0.611,0.792,-0.333,-63.904,28.748,193.970
-0.635,0.731,-0.324,-50.720,22.949,194.824
-0.637,0.654,-0.302,-35.706,16.235,192.993
-0.621,0.530,-0.330,-19.226,7.751,191.040
-0.638,0.422,-0.334,-8.240,-2.563,190.674
-0.677,0.328,-0.300,-3.784,-12.817,189.819
-0.703,0.257,-0.293,-3.845,-22.705,187.561
-0.743,0.193,-0.285,-9.949,-31.982,185.791
-0.785,0.152,-0.259,-20.569,-40.222,183.960

-0.666,-0.977,1.561,30.701,3.113,-13.428
-1.164,-0.171,0.830,-50.354,-36.560,-36.438
-1.504,0.252,0.395,-79.285,-26.550,-45.410
-1.512,0.389,0.424,-67.261,12.268,-43.152
-1.277,0.338,0.463,-35.950,41.016,-54.016
-1.161,0.161,0.552,-6.104,61.218,-67.566
-1.095,-0.055,0.611,8.850,72.815,-81.665
-1.000,-0.165,0.479,8.301,69.519,-90.759
-1.074,-0.202,0.260,5.249,61.829,-97.107
-1.256,-0.222,0.068,1.953,62.378,-108.582
-1.412,-0.281,-0.126,0.854,73.547,-122.803
-1.534,-0.270,-0.443,1.404,93.323,-137.451
-1.550,-0.300,-0.729,7.019,125.549,-149.475
-1.443,-0.512,-0.822,12.878,161.621,-159.729
-1.250,-0.643,-0.759,3.540,188.477,-170.410
-1.043,-0.483,-0.547,-20.691,205.383,-182.617
-0.927,-0.220,-0.371,-47.119,211.670,-193.054
-0.837,-0.028,-0.256,-66.284,206.848,-197.449
-0.745,0.111,-0.187,-77.148,193.665,-197.083
-0.680,0.204,-0.137,-80.322,174.866,-194.275
-0.652,0.290,-0.104,-80.750,153.076,-190.857
-0.639,0.332,-0.095,-78.735,129.578,-187.500
-0.613,0.376,-0.086,-74.585,105.774,-184.753
-0.579,0.419,-0.070,-68.909,81.482,-183.594
-0.569,0.466,-0.075,-60.913,56.091,-184.631
-0.564,0.533,-0.074,-50.842,31.555,-189.453
-0.560,0.598,-0.068,-37.231,7.446,-196.777
-0.546,0.642,-0.056,-19.043,-15.259,-206.421
-0.522,0.685,-0.039,2.625,-37.048,-218.018
-0.502,0.721,-0.013,27.161,-57.373,-229.553
-0.466,0.741,0.025,53.650,-76.294,-240.356
-0.419,0.733,0.056,80.505,-93.567,-249.329
-0.375,0.715,0.089,106.018,-109.070,-257.019
-0.327,0.688,0.124,128.540,-121.460,-264.526
-0.286,0.643,0.154,149.841,-130.310,-271.790
-0.232,0.606,0.193,169.678,-135.742,-278.687
-0.156,0.564,0.243,189.453,-139.160,-284.790
-0.073,0.521,0.304,209.351,-142.822,-290.283
-0.008,0.466,0.366,229.675,-146.851,-295.349
0.029,0.383,0.426,248.352,-149.048,-298.340
0.074,0.309,0.492,264.343,-148.560,-298.340
0.139,0.254,0.557,278.076,-145.630,-293.335
0.182,0.190,0.599,287.964,-144.409,-282.959
0.168,0.115,0.611,293.152,-146.667,-270.264
0.116,0.045,0.605,295.166,-149.109,-260.803
0.055,-0.026,0.581,295.471,-148.071,-256.775
0.021,-0.095,0.608,294.983,-143.066,-257.996
-0.003,-0.164,0.634,294.128,-134.766,-262.207
-0.069,-0.232,0.637,293.335,-125.183,-268.738
-0.140,-0.290,0.643,290.710,-112.854,-276.978
-0.172,-0.359,0.652,283.691,-97.656,-281.372
-0.168,-0.432,0.664,269.287,-79.529,-278.015
-0.172,-0.511,0.676,247.620,-61.523,-270.630
-0.117,-0.583,0.771,222.412,-43.518,-266.235
-0.014,-0.637,0.853,196.899,-25.085,-264.954
0.070,-0.687,0.915,171.997,-9.399,-267.700
0.192,-0.677,1.007,150.024,5.615,-276.489
0.339,-0.640,1.089,133.789,17.517,-286.865
0.462,-0.613,1.122,122.498,19.958,-297.119
0.549,-0.569,1.115,116.760,13.550,-306.763
0.598,-0.548,1.099,116.882,1.343,-314.514
0.619,-0.557,1.049,121.521,-10.803,-318.542
0.629,-0.546,1.005,126.831,-18.799,-316.956
0.667,-0.508,0.993,133.667,-23.682,-309.631
0.689,-0.450,0.992,139.954,-26.917,-296.570
0.702,-0.396,0.992,144.531,-29.236,-277.710
0.761,-0.323,1.062,149.170,-31.189,-256.592
0.658,-0.388,0.999,154.419,-36.133,-233.582
0.706,-0.528,1.019,158.691,-40.222,-213.318
0.601,-0.492,0.935,164.368,-51.453,-208.435
0.439,-0.497,0.941,178.162,-43.884,-205.627
0.380,-0.519,0.899,196.228,-26.550,-209.351
0.389,-0.576,0.861,217.468,-2.075,-215.454
0.409,-0.554,0.849,242.859,28.503,-219.360
0.479,-0.601,0.876,270.874,60.669,-218.140
0.525,-0.876,0.821,298.035,89.172,-208.008
0.636,-1.130,0.831,319.031,118.896,-198.669
0.690,-1.288,0.578,325.195,142.456,-190.430
0.808,-1.482,0.598,319.519,180.115,-182.739
1.048,-1.640,0.870,304.199,228.638,-167.175
1.136,-1.344,0.835,279.541,246.765,-148.254
1.339,-1.237,0.689,265.747,251.709,-112.244
1.454,-1.109,0.646,251.709,254.028,-71.716
1.338,-1.116,0.509,240.173,254.944,-33.936
1.164,-1.224,0.357,238.525,255.615,0.549
1.013,-1.414,0.306,238.892,269.653,25.757
0.968,-1.509,0.296,229.675,295.776,36.560
1.033,-1.532,0.393,211.304,318.298,36.133
1.187,-1.601,0.526,187.561,321.899,29.297
1.323,-2.195,0.927,162.109,305.237,18.677
1.383,-1.992,1.584,119.202,257.629,6.042
1.440,-1.474,1.922,46.631,179.199,-11.353
1.487,-1.196,1.583,-9.949,85.388,-25.513
1.321,-1.124,0.921,-38.147,14.343,-17.273
1.208,-1.077,0.552,-47.119,-26.184,5.371
1.005,-1.115,0.250,-43.884,-44.128,24.170
0.890,-1.108,0.090,-38.208,-50.049,35.461
0.838,-1.066,0.021,-32.227,-48.706,37.903
0.802,-1.008,-0.003,-25.513,-45.898,33.813
0.799,-0.953,-0.022,-17.273,-43.945,28.503
0.796,-0.984,-0.012,-8.911,-43.640,27.405
0.798,-1.012,0.055,-5.127,-45.349,28.442
0.787,-1.031,0.194,-9.460,-49.500,28.076
0.817,-1.032,0.365,-21.851,-63.416,24.292
0.683,-0.954,0.410,-41.199,-92.468,17.883
0.561,-0.792,0.259,-61.584,-121.704,11.902
0.556,-0.663,0.138,-76.294,-135.742,12.939
0.532,-0.562,0.073,-80.872,-140.198,18.433
0.510,-0.500,0.050,-76.660,-147.156,22.461
0.370,-0.509,0.008,-69.580,-158.081,19.836
0.388,-0.405,0.014,-63.721,-163.879,10.986
0.379,-0.384,0.091,-62.073,-169.800,6.531
-0.181,-0.466,0.238,-72.693,-171.448,-2.258
-0.544,-0.327,0.417,-98.206,-141.907,-22.644
-0.162,-0.202,0.343,-114.441,-108.032,-25.085
-0.181,-0.190,0.427,-119.141,-78.857,-9.216
-0.324,-0.291,0.506,-114.685,-48.523,7.141
-0.246,-0.373,0.485,-102.234,-23.865,16.724
-0.066,-0.549,0.477,-80.078,-0.610,22.888

0.938,-1.068,0.855,-29.907,23.376,11.658
0.982,-0.992,0.690,-41.016,-8.789,10.559
0.770,-0.904,0.499,-49.622,-39.429,7.629
0.564,-0.798,0.481,-51.453,-53.589,4.883
0.373,-0.661,0.622,-49.561,-53.589,0.244
0.332,-0.563,0.729,-44.495,-47.974,-2.808
0.315,-0.555,0.758,-37.781,-43.884,-1.770
0.289,-0.531,0.703,-32.593,-41.138,1.709
0.306,-0.537,0.591,-28.259,-39.124,6.531
0.311,-0.502,0.419,-25.208,-37.781,10.437
0.231,-0.586,0.474,-20.264,-34.973,9.583
0.325,-0.609,0.632,-15.015,-20.813,9.705
0.416,-0.685,0.730,-8.484,-10.803,10.864
0.461,-0.767,0.841,-3.601,-7.751,8.850
0.503,-0.835,0.905,-2.441,-5.127,9.216
0.546,-0.858,0.949,-3.540,-3.784,8.179
0.649,-0.854,0.943,-3.662,-3.967,8.728
0.601,-0.879,0.883,-2.075,-9.949,10.193
0.490,-0.893,0.861,-0.671,-14.160,9.827
0.450,-0.915,0.887,-0.061,-12.085,8.301
0.427,-0.918,0.891,-1.709,-7.874,8.911
0.430,-0.881,0.868,-3.479,-4.089,10.803
0.485,-0.832,0.798,-4.150,-1.404,13.367
0.422,-0.822,0.717,-6.226,-0.854,17.334
0.370,-0.760,0.674,-10.254,1.770,17.700
0.391,-0.656,0.658,-15.320,6.165,16.663
0.405,-0.572,0.621,-17.456,7.324,16.174
0.411,-0.507,0.571,-15.564,3.662,15.869
0.379,-0.469,0.495,-13.306,-4.883,15.076
0.308,-0.394,0.443,-12.146,-14.587,12.878
0.268,-0.280,0.381,-9.338,-22.339,8.850
0.259,-0.227,0.382,-1.038,-26.184,5.127
0.251,-0.213,0.377,10.071,-28.442,4.089
0.178,-0.290,0.338,20.813,-31.433,3.052
0.164,-0.335,0.282,26.428,-30.029,-0.183
0.163,-0.353,0.233,26.123,-27.039,-3.418
0.135,-0.380,0.219,22.034,-23.560,-5.066
0.055,-0.539,0.409,12.207,-13.428,-3.479
0.115,-0.647,0.639,1.770,5.920,-0.244
0.367,-0.742,0.705,-1.709,17.456,1.343
0.394,-0.831,0.677,-3.723,15.869,3.967
0.391,-0.842,0.706,-11.719,11.841,2.502
0.439,-0.813,0.622,-18.311,11.780,1.709
0.459,-0.754,0.605,-20.874,9.888,-0.061
0.473,-0.587,0.570,-21.667,7.080,-0.671
0.339,-0.530,0.423,-21.118,-2.319,-1.648
0.215,-0.399,0.446,-25.452,-5.737,-3.174
0.169,-0.289,0.502,-30.579,-3.662,-3.479
0.147,-0.234,0.497,-28.076,-1.526,-3.357
0.151,-0.239,0.448,-20.081,-0.061,-3.662
0.199,-0.268,0.380,-13.489,0.977,-4.395
0.277,-0.313,0.352,-9.705,0.549,-5.554
0.309,-0.343,0.314,-7.446,-2.502,-7.629
0.302,-0.404,0.295,-6.165,-7.019,-9.766
0.309,-0.485,0.334,-7.202,-10.132,-12.512
0.284,-0.534,0.403,-8.545,-12.512,-16.174
0.304,-0.547,0.516,-10.986,-15.137,-19.775
0.298,-0.605,0.606,-14.709,-16.296,-19.287
0.234,-0.844,0.636,-13.916,-13.489,-15.747
0.316,-0.927,0.795,-13.428,-3.967,-18.066
0.585,-0.900,1.088,-17.517,6.104,-20.386
0.625,-0.853,1.257,-20.325,5.493,-15.381
0.463,-0.866,1.228,-15.808,1.526,-12.085
0.471,-0.884,1.259,-11.597,6.775,-11.169
0.788,-1.152,2.955,-20.325,43.274,-1.282
1.376,-0.532,1.213,0.244,43.152,15.747
0.216,-1.205,0.139,41.992,-27.344,4.395
0.337,-0.579,0.506,7.629,-5.676,11.353
0.253,-0.394,0.347,-18.494,-4.761,-4.395
0.362,-0.494,0.572,-8.850,3.357,-2.686
0.334,-0.440,0.814,-9.766,5.920,-0.854
0.246,-0.482,0.786,-8.789,3.662,-1.404
0.383,-0.483,0.744,-3.113,1.831,-4.822
0.427,-0.471,0.693,3.967,0.061,-3.967
0.394,-0.586,0.654,11.536,-3.113,-0.977
0.387,-0.541,0.683,11.780,-3.174,1.343
0.318,-0.540,0.701,10.681,-3.662,2.625
0.281,-0.532,0.710,13.062,-4.395,2.625
0.311,-0.548,0.661,16.846,-4.761,2.625
0.278,-0.622,0.659,19.592,-3.540,4.456
0.272,-0.703,0.654,20.935,-1.099,4.211
0.350,-0.734,0.663,19.287,1.465,2.136
0.353,-0.806,0.652,16.541,1.282,1.465
0.344,-0.806,0.634,12.512,1.404,0.122
0.346,-0.782,0.691,9.399,3.296,-2.197
0.393,-0.760,0.719,8.606,4.761,-3.113
0.421,-0.703,0.724,5.432,1.221,-3.113
0.346,-0.648,0.658,0.793,-2.625,-2.319
0.269,-0.576,0.624,-1.465,-3.418,-1.831
0.248,-0.571,0.662,-1.465,1.160,-0.366
0.426,-0.597,0.594,1.099,9.033,3.723
0.318,-0.627,0.812,0.122,12.085,5.005
0.391,-0.417,0.538,-2.441,5.737,-1.648
0.335,-0.745,0.598,5.005,5.249,1.282
0.409,-0.580,0.874,1.160,15.991,3.113
0.418,-0.610,0.730,1.221,9.277,-1.831
0.373,-0.616,0.662,3.479,2.258,-2.930
0.234,-0.577,0.601,4.150,-1.526,-5.554
0.220,-0.726,0.711,10.193,5.127,-7.141
0.464,-0.771,0.761,12.939,20.264,-5.859
0.498,-0.719,0.721,12.329,18.738,-5.615
0.370,-0.666,0.602,11.841,8.606,-13.672
0.398,-0.652,0.568,12.085,6.653,-18.433
0.467,-0.625,0.594,11.475,9.949,-15.259
0.300,-0.739,0.797,5.188,8.850,-16.907
0.363,-0.770,0.828,-6.470,19.775,-13.672
0.774,-0.772,0.828,-15.259,25.635,-4.944
0.831,-0.707,0.840,-30.823,16.357,0.977
0.704,-0.684,0.752,-43.152,-3.540,4.456
0.720,-0.651,0.706,-50.476,-20.325,6.165
0.660,-0.578,0.704,-54.932,-40.039,5.920
0.476,-0.515,0.672,-55.969,-63.110,2.197
0.323,-0.514,0.665,-54.016,-75.928,-0.183
0.196,-0.512,0.650,-51.270,-77.759,-2.136
0.167,-0.506,0.659,-48.218,-71.411,-3.418
0.185,-0.493,0.663,-45.593,-61.218,-3.418
0.174,-0.489,0.667,-42.786,-52.246,-2.380
0.138,-0.477,0.620,-38.757,-44.495,-0.793
0.104,-0.462,0.575,-32.166,-33.997,0.610

0.993,-1.262,1.114,-22.034,19.043,27.161
0.896,-1.247,1.176,-48.645,-15.259,24.231
0.762,-1.024,0.876,-61.218,-42.908,17.090
0.555,-0.750,1.038,-69.092,-57.007,8.118
0.467,-0.559,1.118,-75.256,-52.063,9.766
0.318,-0.469,1.261,-75.562,-46.265,17.883
0.362,-0.386,1.312,-62.012,-29.541,21.301
0.447,-0.520,1.282,-37.048,-13.062,25.574
0.384,-0.689,1.095,-21.179,-8.545,29.663
0.529,-0.848,1.139,-18.372,3.967,34.180
0.817,-0.867,1.016,-13.672,16.479,40.771
0.696,-0.838,0.863,-8.911,1.770,34.790
0.554,-0.744,0.796,-9.766,-9.705,25.879
0.483,-0.585,0.729,-8.545,-14.648,20.264
0.346,-0.525,0.673,-3.540,-21.179,13.550
0.240,-0.405,0.626,-1.770,-25.085,9.277
0.085,-0.324,0.527,-4.456,-22.461,11.169
0.028,-0.328,0.465,-1.892,-12.939,13.428
0.155,-0.333,0.476,2.441,-0.671,14.038
0.256,-0.341,0.470,4.150,4.761,14.404
0.257,-0.353,0.404,3.906,3.601,13.611
0.233,-0.348,0.328,3.967,1.160,11.108
0.268,-0.344,0.260,3.113,1.709,8.789
0.301,-0.360,0.252,1.892,1.404,7.263
0.293,-0.378,0.307,-0.183,-3.052,3.418
0.226,-0.349,0.327,-3.967,-7.874,0.122
0.204,-0.247,0.330,-7.874,-11.841,-2.075
0.140,-0.188,0.368,-11.108,-13.794,-1.526
0.058,-0.217,0.369,-10.864,-14.404,-1.709
0.024,-0.319,0.653,-10.071,-8.423,-3.967
0.229,-0.360,0.911,-8.545,8.545,-4.272
0.436,-0.448,0.823,-0.427,15.076,-1.648
0.431,-0.520,0.735,3.906,11.963,0.671
0.486,-0.547,0.722,2.563,9.216,0.671
0.536,-0.602,0.708,1.831,7.263,0.793
0.538,-0.626,0.741,0.183,4.639,0.122
0.515,-0.589,0.774,-3.418,1.404,-1.831
0.473,-0.523,0.784,-6.531,-2.686,-3.540
0.387,-0.446,0.778,-8.972,-6.226,-5.127
0.338,-0.401,0.792,-8.484,-7.629,-5.676
0.344,-0.385,0.804,-6.897,-7.263,-4.456
0.314,-0.410,0.747,-4.456,-7.385,-1.465
0.332,-0.424,0.694,-1.282,-5.371,0.793
0.379,-0.434,0.696,1.099,-2.014,1.709
0.428,-0.432,0.706,1.953,-0.488,3.174
0.394,-0.498,0.574,3.174,-3.357,3.845
0.349,-0.511,0.556,2.258,-6.226,1.526
0.365,-0.467,0.599,-1.099,-6.409,-2.258
0.342,-0.469,0.624,-2.380,-7.874,-3.296
0.277,-0.462,0.683,-3.357,-9.277,-3.723
0.258,-0.448,0.723,-4.272,-9.460,-4.272
0.221,-0.446,0.734,-4.150,-9.033,-4.944
0.208,-0.426,0.694,-2.625,-7.263,-6.714
0.284,-0.451,0.683,-0.854,-5.798,-7.629
0.308,-0.510,0.704,0.122,-5.005,-6.165
0.328,-0.531,0.705,0.671,-4.395,-5.859
0.383,-0.530,0.747,0.427,-2.502,-7.263
0.402,-0.533,0.782,-0.183,-2.014,-7.568
0.430,-0.516,0.808,-1.587,-3.967,-6.042
0.348,-0.520,0.800,-2.930,-5.798,-3.174
0.308,-0.507,0.799,-1.953,-4.944,-2.625
0.344,-0.521,0.850,-0.549,-1.465,-2.136
0.365,-0.532,0.875,0.671,0.488,-0.671
0.340,-0.553,0.833,2.014,0.061,0.549
0.316,-0.552,0.808,2.869,0.671,0.610
0.335,-0.539,0.757,3.601,2.136,0.183
0.352,-0.530,0.709,3.845,2.380,0.793
0.349,-0.528,0.686,3.052,2.258,1.953
0.333,-0.536,0.664,2.258,1.587,1.770
0.335,-0.512,0.667,0.732,1.770,0.183
0.334,-0.486,0.696,-1.465,0.977,-1.526
0.317,-0.455,0.685,-3.174,-0.793,-2.380
0.291,-0.434,0.680,-3.723,-2.869,-2.991
0.278,-0.425,0.664,-4.456,-4.028,-3.418
0.284,-0.419,0.637,-4.761,-4.395,-3.723
0.284,-0.416,0.614,-4.700,-4.639,-3.906
0.293,-0.416,0.592,-4.639,-4.272,-3.845
0.286,-0.416,0.598,-4.028,-3.357,-3.601
0.301,-0.443,0.615,-3.235,-2.319,-3.601
0.323,-0.503,0.658,-3.540,-0.854,-3.235
0.346,-0.526,0.688,-4.700,0.183,-3.235
0.360,-0.565,0.742,-5.737,0.366,-3.357
0.385,-0.600,0.828,-7.080,1.099,-3.418
0.394,-0.593,0.919,-8.301,1.282,-3.967
0.407,-0.594,0.983,-8.057,1.709,-3.662
0.457,-0.607,1.039,-7.446,3.052,-2.319
0.406,-0.545,0.961,-6.165,1.587,-1.282
0.378,-0.510,1.020,-3.052,1.526,-2.747
0.430,-0.566,1.042,0.183,7.690,0.916
0.421,-0.586,1.031,3.784,8.545,2.014
0.453,-0.608,0.981,6.409,8.240,3.174
0.440,-0.614,0.950,6.470,7.568,4.211
0.428,-0.609,0.912,6.653,6.042,4.639
0.424,-0.569,0.888,6.042,4.822,4.883
0.385,-0.508,0.766,5.798,1.587,5.005
0.302,-0.506,0.718,6.653,-1.282,4.395
0.301,-0.495,0.758,4.822,1.221,3.601
0.349,-0.483,0.768,4.395,3.723,2.747
0.359,-0.512,0.757,6.042,3.784,2.014
0.443,-0.565,0.774,7.141,5.554,3.052
0.455,-0.638,0.749,6.897,4.578,3.479
0.485,-0.663,0.747,5.432,2.136,0.793
0.502,-0.679,0.726,2.563,0.854,0.427
0.430,-0.653,0.734,-1.892,-1.160,-0.366
0.401,-0.645,0.778,-5.920,-1.221,-0.793
0.436,-0.532,0.772,-9.521,-1.526,-0.732
0.191,-0.476,0.758,-12.390,-8.789,-5.127
0.221,-0.383,0.759,-11.841,-5.249,-8.118
0.274,-0.373,0.742,-8.606,-1.099,-5.371
0.301,-0.353,0.777,-6.287,0.671,-4.700
0.331,-0.370,0.768,-4.272,2.502,-2.014
0.347,-0.413,0.761,-1.343,1.892,-0.244
0.408,-0.452,0.776,1.526,2.319,0.427
0.446,-0.519,0.774,3.784,1.892,1.221
0.457,-0.592,0.763,4.578,0.000,1.587
0.461,-0.615,0.767,4.333,-1.770,0.793
0.434,-0.667,0.751,2.930,-4.700,-0.122
0.401,-0.650,0.756,0.000,-6.714,-2.136
0.354,-0.580,0.765,-2.625,-8.362,-4.211

0.752,-0.211,3.130,-15.747,119.690,0.305
2.004,-0.912,1.691,73.364,84.167,17.700
1.598,-1.251,-0.202,94.116,-19.104,36.926
-0.049,-1.052,-0.030,12.695,-79.163,22.766
-0.090,-0.312,0.592,-46.021,-42.969,-13.855
0.648,-0.626,0.609,-9.277,-5.188,-5.493
0.262,-0.572,1.031,1.160,0.671,1.770
0.203,-0.478,0.998,-11.536,-2.991,-1.099
0.274,-0.515,0.910,-15.137,-12.390,-3.235
0.224,-0.471,0.657,-18.188,-17.456,-6.104
0.357,-0.495,0.548,-14.099,-12.146,-2.075
0.443,-0.567,0.620,-9.460,0.122,4.272
0.404,-0.643,0.846,-10.437,6.531,4.944
0.454,-0.643,0.911,-13.428,5.981,-1.282
0.541,-0.563,0.897,-17.456,-3.235,-10.071
0.500,-0.513,0.901,-25.269,-19.653,-15.564
0.508,-0.523,0.843,-30.457,-31.555,-13.672
0.519,-0.555,0.799,-34.851,-38.513,-9.644
0.536,-0.522,0.807,-40.344,-41.992,-4.700
0.509,-0.503,0.811,-44.617,-47.546,-0.244
0.455,-0.494,0.815,-47.058,-52.856,2.991
0.379,-0.452,0.813,-47.424,-57.678,3.479
0.299,-0.385,0.797,-47.119,-61.096,1.038
0.257,-0.361,0.792,-44.006,-63.293,-0.610
0.259,-0.364,0.759,-36.316,-63.049,1.831
0.245,-0.368,0.750,-29.968,-59.326,4.395
0.228,-0.365,0.767,-26.184,-51.514,6.592
0.253,-0.364,0.786,-25.452,-42.908,9.521
0.259,-0.370,0.804,-25.879,-35.767,13.794
0.265,-0.357,0.830,-26.245,-29.358,17.517
0.266,-0.371,0.860,-25.940,-24.658,21.790
0.271,-0.385,0.877,-26.367,-22.583,24.536
0.299,-0.401,0.896,-28.076,-23.010,24.902
0.331,-0.419,0.911,-31.250,-24.902,24.658
0.347,-0.432,0.923,-34.912,-28.381,24.780
0.389,-0.440,0.933,-39.917,-32.227,25.391
0.446,-0.434,0.941,-46.082,-37.292,27.161
0.480,-0.404,0.975,-51.819,-43.640,29.236
0.482,-0.368,1.002,-56.396,-51.331,32.349
0.481,-0.318,1.008,-58.594,-59.021,35.828
0.483,-0.293,1.008,-58.105,-65.125,40.283
0.470,-0.284,1.005,-56.519,-69.397,44.861
0.431,-0.297,1.013,-54.504,-70.251,49.316
0.365,-0.312,1.016,-53.040,-65.491,52.979
0.312,-0.314,1.019,-52.307,-55.603,55.420
0.321,-0.310,1.033,-53.040,-41.504,57.861
0.345,-0.310,1.029,-52.673,-26.917,61.401
0.412,-0.279,1.061,-51.514,-13.733,63.965
0.427,-0.270,1.066,-48.645,-6.287,67.749
0.403,-0.250,1.077,-46.570,-3.174,71.045
0.390,-0.226,1.065,-44.922,-6.287,72.571
0.373,-0.201,1.009,-42.603,-12.939,74.829
0.357,-0.197,0.974,-38.330,-18.982,81.299
0.292,-0.225,0.892,-32.898,-25.818,90.637
0.233,-0.279,0.828,-27.039,-29.602,98.267
0.209,-0.341,0.824,-23.132,-25.696,104.675
0.192,-0.376,0.816,-23.987,-21.851,105.835
0.184,-0.381,0.796,-28.137,-20.935,99.060
0.187,-0.367,0.776,-33.875,-20.325,88.989
0.189,-0.325,0.752,-40.527,-21.362,78.918
0.183,-0.274,0.733,-46.082,-24.475,70.007
0.171,-0.214,0.716,-50.232,-29.419,63.110
0.153,-0.151,0.684,-52.368,-36.682,58.350
0.139,-0.070,0.652,-51.453,-44.800,55.725
0.125,0.002,0.616,-47.852,-53.223,56.702
0.093,0.070,0.585,-42.480,-61.401,60.852
0.050,0.128,0.564,-36.133,-68.848,67.200
-0.012,0.137,0.549,-28.442,-75.989,74.951
-0.078,0.104,0.535,-20.569,-81.665,81.299
-0.141,0.050,0.515,-13.794,-86.853,83.374
-0.199,0.018,0.494,-8.362,-89.844,79.529
-0.246,0.018,0.470,-5.005,-90.698,71.289
-0.283,0.049,0.452,-2.808,-90.210,60.974
-0.309,0.076,0.433,-1.160,-89.966,51.514
-0.332,0.091,0.415,1.160,-89.966,44.067
-0.355,0.097,0.388,4.028,-90.271,37.598
-0.372,0.090,0.363,8.789,-90.149,33.142
-0.396,0.069,0.334,15.625,-88.928,30.334
-0.446,0.039,0.334,24.109,-84.778,27.771
-0.478,-0.039,0.318,33.447,-75.256,24.414
-0.481,-0.031,0.318,41.443,-60.364,19.958
-0.471,-0.051,0.588,52.002,-44.067,18.433
-1.618,0.197,1.306,86.487,9.399,3.235
-2.011,-0.719,4.000,168.884,194.214,-39.856
0.770,-2.956,4.000,165.710,215.210,-47.974
1.511,-1.629,1.199,75.806,72.266,-21.790
0.308,0.197,0.059,41.870,59.509,-7.751
-0.230,0.499,0.745,-17.395,68.420,-27.100
0.016,-0.291,0.578,4.822,49.561,-11.475
0.057,-0.670,0.335,20.569,25.330,-2.991
0.078,-0.451,0.427,-5.371,31.677,-21.240
0.250,-0.257,0.557,-25.574,45.593,-30.212
0.382,-0.264,0.841,-26.489,45.837,-25.208
0.378,-0.308,1.162,-17.395,33.569,-24.780
0.392,-0.589,1.482,-7.080,20.752,-26.489
0.405,-0.515,1.266,-4.517,11.597,-24.231
0.490,-0.142,0.984,-5.188,7.263,-23.193
0.412,-0.097,0.812,-3.479,1.038,-21.606
0.281,-0.121,0.786,2.563,-7.324,-20.630
0.303,-0.034,0.852,3.967,-12.512,-16.052
0.257,-0.148,0.943,5.676,-15.808,-7.019
0.181,-0.214,1.039,5.737,-20.752,-6.836
0.078,-0.314,1.056,4.395,-28.076,-15.686
0.090,-0.329,1.041,-0.977,-30.457,-31.006
0.118,-0.293,1.009,-5.310,-29.541,-48.706
-0.045,-0.269,0.915,-5.676,-29.846,-65.491
-0.072,-0.213,0.929,-4.272,-27.588,-79.346
-0.087,-0.133,0.915,1.282,-26.245,-81.787
-0.084,-0.106,0.901,10.742,-21.973,-75.745
-0.119,-0.185,0.882,20.691,-15.442,-64.148
-0.128,-0.252,0.922,29.724,-4.944,-53.040
-0.091,-0.372,0.938,37.109,5.859,-44.983
-0.035,-0.439,1.019,45.898,15.381,-41.870
0.020,-0.495,1.072,57.861,20.325,-40.222
0.112,-0.584,1.093,68.481,14.893,-39.124
0.139,-0.637,1.059,75.500,0.427,-38.574
0.140,-0.667,1.007,81.787,-16.418,-36.987
0.094,-0.655,0.962,89.844,-32.715,-33.936
0.021,-0.594,0.942,96.863,-42.847,-29.785

0.938,-0.741,0.898,-107.910,240.723,17.456
0.994,-0.698,0.868,-102.600,220.947,22.888
1.033,-0.677,0.836,-97.290,193.848,28.381
1.050,-0.635,0.797,-93.079,160.095,32.410
1.019,-0.552,0.763,-89.905,121.948,35.095
0.950,-0.459,0.718,-85.632,81.116,37.354
0.837,-0.371,0.649,-80.444,39.368,39.734
0.714,-0.303,0.580,-76.233,1.343,42.053
0.587,-0.241,0.536,-71.533,-30.579,44.434
0.471,-0.202,0.485,-64.758,-56.946,45.654
0.368,-0.178,0.426,-56.885,-76.294,44.800
0.273,-0.201,0.417,-50.415,-84.106,43.945
0.138,-0.235,0.390,-51.941,-78.430,46.326
0.011,-0.272,0.407,-63.721,-58.533,51.941
-0.063,-0.311,0.432,-86.365,-26.733,61.157
-0.037,-0.261,0.438,-114.258,8.911,71.533
0.087,-0.138,0.492,-133.240,42.542,81.238
0.220,-0.012,0.580,-137.146,66.895,91.125
0.323,0.079,0.659,-128.296,77.759,98.877
0.385,0.166,0.696,-110.901,78.430,100.403
0.414,0.256,0.704,-88.501,74.463,95.764
0.427,0.329,0.705,-62.561,70.251,86.304
0.440,0.369,0.697,-36.499,68.420,73.730
0.399,0.461,0.659,-15.564,69.702,62.195
0.390,0.525,0.631,3.906,75.806,54.077
0.423,0.546,0.628,20.325,87.097,49.805
0.449,0.545,0.638,32.471,101.929,49.316
0.493,0.517,0.661,41.199,118.469,50.781
0.549,0.468,0.699,44.861,135.071,53.467
0.560,0.449,0.691,39.978,150.330,57.129
0.583,0.451,0.670,31.921,164.673,59.998
0.650,0.435,0.660,26.489,178.955,60.303
0.738,0.406,0.667,24.109,192.261,59.692
0.844,0.372,0.673,22.766,201.538,56.580
0.970,0.331,0.675,21.973,204.956,51.697
1.081,0.294,0.667,21.545,200.623,45.959
1.146,0.272,0.633,21.362,191.711,40.649
1.182,0.255,0.567,21.423,182.556,37.598
1.243,0.251,0.507,21.667,174.316,38.086
1.287,0.251,0.462,23.071,166.931,41.199
1.294,0.254,0.398,25.330,160.767,44.861
1.272,0.265,0.329,29.358,157.471,49.011
1.263,0.281,0.283,33.264,157.715,54.688
1.269,0.286,0.247,36.682,159.607,62.317
1.275,0.304,0.229,39.246,159.729,70.801
1.294,0.298,0.242,41.382,157.471,80.750
1.327,0.288,0.274,42.786,151.123,90.454
1.323,0.273,0.292,44.800,140.259,98.145
1.304,0.251,0.299,46.997,125.732,104.553
1.297,0.236,0.309,49.988,108.337,109.985
1.276,0.225,0.314,53.772,88.684,114.075
1.236,0.216,0.317,58.472,68.726,117.065
1.196,0.198,0.321,64.087,50.293,118.774
1.124,0.189,0.294,69.763,35.522,120.117
1.039,0.180,0.256,75.928,28.625,122.192
0.976,0.164,0.246,81.177,31.128,126.648
0.922,0.146,0.232,84.900,38.330,132.141
0.889,0.110,0.221,87.219,48.035,136.353
0.868,0.080,0.230,87.158,59.265,137.512
0.860,0.074,0.257,85.327,68.909,134.399
0.852,0.097,0.281,83.252,74.402,128.235
0.842,0.120,0.300,81.726,75.073,120.605
0.844,0.124,0.317,80.627,71.350,112.366
0.833,0.127,0.328,79.590,64.087,103.943
0.789,0.127,0.320,78.613,53.345,96.680
0.721,0.132,0.292,78.247,41.138,89.844
0.634,0.126,0.255,79.163,33.081,84.106
0.578,0.129,0.228,80.933,30.701,78.247
0.525,0.106,0.245,83.923,32.471,73.364
0.360,0.328,0.040,87.708,34.058,67.871
0.468,0.076,0.194,98.389,50.903,73.242
0.502,0.126,0.214,105.225,59.937,65.369
0.472,0.179,0.207,111.633,58.044,55.054
0.472,0.132,0.212,119.995,60.059,50.720
0.510,0.134,0.257,127.686,57.434,40.161
0.501,0.061,0.239,136.230,47.729,29.053
0.479,0.045,0.268,143.616,36.682,11.536
0.478,0.128,0.307,152.893,24.780,-6.348
0.488,0.153,0.326,166.992,7.996,-15.930
0.479,0.123,0.332,182.129,-11.108,-25.391
0.458,0.078,0.342,197.266,-28.931,-35.645
0.457,0.042,0.369,210.999,-47.546,-45.410
0.452,-0.012,0.367,223.755,-66.895,-54.810
0.430,-0.092,0.382,232.422,-84.534,-65.979
0.418,-0.120,0.399,235.962,-99.548,-80.139
0.407,-0.122,0.439,237.122,-112.488,-92.957
0.405,-0.138,0.483,237.122,-126.953,-104.736
0.397,-0.161,0.518,235.046,-141.296,-116.638
0.393,-0.180,0.564,230.225,-155.212,-129.395
0.431,-0.231,0.620,221.985,-169.312,-142.212
0.524,-0.292,0.714,207.336,-185.303,-153.198
0.602,-0.300,0.791,184.204,-205.383,-160.828
0.594,-0.329,0.836,157.593,-231.262,-169.922
0.480,-0.383,0.851,130.249,-258.057,-185.913
0.422,-0.445,0.844,99.976,-279.053,-205.505
0.430,-0.446,0.885,68.909,-290.161,-223.267
0.415,-0.446,0.978,40.771,-299.744,-241.577
0.385,-0.428,1.042,15.503,-313.843,-260.681
0.291,-0.354,1.082,-6.409,-330.383,-277.771
0.197,-0.324,1.107,-24.658,-346.741,-288.391
0.104,-0.304,1.108,-39.246,-361.023,-294.556
-0.005,-0.270,1.090,-50.537,-371.155,-297.119
-0.134,-0.211,1.048,-57.373,-374.573,-296.265
-0.281,-0.180,1.002,-59.753,-368.591,-289.856
-0.463,-0.158,0.945,-57.556,-348.389,-281.311
-0.629,-0.147,0.854,-50.903,-311.035,-274.475
-0.685,-0.140,0.789,-41.992,-256.531,-268.982
-0.666,-0.135,0.758,-33.081,-191.223,-263.062
-0.386,-0.103,0.945,-24.597,-125.732,-257.263
-0.449,-0.201,0.890,-18.372,-72.388,-255.676
-0.327,0.028,0.995,-13.550,-23.926,-254.883
-0.153,-0.065,0.963,-2.441,-5.920,-244.202
0.010,0.009,1.124,18.555,9.949,-239.624
0.266,-0.068,1.247,50.171,12.634,-230.286
0.340,-0.022,1.220,84.229,-8.240,-223.572
0.239,-0.092,1.255,120.911,-24.536,-209.106
0.127,-0.126,1.278,150.879,-32.349,-189.453
0.012,-0.272,1.180,170.532,-35.583,-166.016
-0.052,-0.301,1.142,179.138,-25.879,-153.625

0.387,-0.287,0.438,-3.479,-62.561,221.985
-0.176,-0.716,0.769,20.264,-76.843,197.571
-2.232,-0.949,1.781,15.503,-105.103,84.656
-4.000,0.827,0.424,-66.406,-144.287,-83.496
-2.480,0.537,0.607,-52.185,0.854,-80.933
-0.218,0.276,0.786,-13.489,82.947,-29.236
0.272,-0.278,0.841,9.766,76.843,-14.282
0.873,-0.782,1.247,17.639,77.209,-22.949
1.169,-0.579,1.208,7.629,54.688,-20.081
0.236,-0.254,0.591,-4.761,13.611,-16.113
0.406,-0.415,0.774,3.296,-0.366,-7.874
0.634,-0.363,0.975,9.338,-7.019,16.541
0.402,-0.427,0.984,9.277,-25.085,30.518
0.133,-0.387,0.977,7.690,-37.720,36.743
-0.018,-0.273,0.936,3.113,-38.269,43.884
-0.058,-0.176,1.050,-0.305,-32.959,50.720
-0.396,-0.116,1.047,-2.380,-36.621,46.753
-0.654,-0.059,0.962,-4.578,-30.762,31.799
-0.458,-0.091,1.017,-4.700,-2.319,21.851
-0.125,-0.112,0.943,-2.808,18.250,12.451
0.183,-0.173,0.952,2.197,27.405,5.066
0.378,-0.259,0.942,7.751,30.212,3.174
0.403,-0.336,0.886,10.010,18.677,4.150
0.153,-0.353,0.838,6.958,3.052,4.028
-0.025,-0.322,0.902,0.244,-2.502,1.465
-0.015,-0.228,0.955,-5.371,-0.549,-0.183
-0.051,-0.171,0.972,-6.042,-0.671,-1.343
-0.100,-0.161,0.950,-3.052,-3.113,-3.296
-0.048,-0.181,0.978,0.488,-3.357,-5.859
-0.007,-0.211,0.961,3.113,-2.136,-7.324
-0.065,-0.191,0.961,4.272,-1.709,-10.681
-0.082,-0.210,0.971,4.822,0.305,-14.282
-0.146,-0.233,0.959,4.150,2.014,-16.846
-0.229,-0.233,0.972,2.075,5.249,-22.156
-0.235,-0.187,0.945,-1.160,11.719,-29.480
-0.243,-0.209,0.948,-2.197,18.250,-38.574
-0.280,-0.184,0.978,-0.793,19.714,-50.232
-0.448,-0.174,0.922,-2.625,21.240,-60.303
-0.216,-0.251,1.187,-3.662,29.419,-67.688
-0.359,-0.083,0.965,-6.165,34.424,-70.679
-0.160,-0.180,0.498,-0.488,38.086,-73.181
0.410,-0.480,0.806,14.404,51.758,-71.228
0.724,-0.665,1.018,16.418,41.687,-73.120
0.322,-0.532,0.888,3.906,17.944,-75.928
0.267,-0.312,0.906,-1.770,13.245,-76.599
0.338,-0.343,1.040,0.488,10.010,-72.449
0.112,-0.416,0.966,0.122,5.310,-68.054
-0.065,-0.310,0.915,-6.409,5.981,-65.186
-0.078,-0.293,0.894,-11.841,11.841,-61.340
-0.054,-0.290,0.934,-12.939,18.555,-56.702
-0.012,-0.282,1.024,-12.756,20.142,-55.176
-0.134,-0.250,0.971,-14.587,15.137,-55.298
-0.304,-0.173,0.931,-16.174,11.292,-57.434
-0.354,-0.138,0.929,-16.357,14.526,-62.439
-0.317,-0.128,0.950,-14.526,21.118,-69.946
-0.321,-0.167,0.990,-11.169,25.574,-80.872
-0.449,-0.130,0.918,-7.080,27.649,-97.168
-0.579,-0.145,0.874,-1.709,31.433,-117.126
-0.639,-0.247,0.912,2.258,38.452,-138.000
-0.702,-0.249,0.924,0.305,48.706,-161.011
-0.597,-0.177,0.822,-2.197,60.425,-180.237
-0.735,-0.186,0.854,2.136,67.139,-197.021
-0.299,-0.162,1.034,5.676,81.970,-218.445
0.227,-0.444,1.217,6.348,95.154,-204.163
0.814,-0.249,0.675,3.601,99.915,-165.039
1.427,-0.709,0.680,17.517,101.440,-97.656
1.893,-1.112,0.556,37.476,88.928,-51.941
2.052,-1.285,0.947,38.208,43.091,-31.494
1.066,-0.721,0.864,5.127,-14.404,-21.606
0.537,-0.366,0.816,-18.372,-53.589,-8.911
0.089,0.055,0.858,-25.879,-80.505,4.700
-0.638,-0.079,0.958,-20.081,-73.669,4.639
-0.212,-0.014,1.057,-3.967,-40.161,-4.333
-0.247,-0.014,1.096,-0.793,-26.428,-3.174
-0.503,-0.086,0.960,-3.784,-24.048,-6.165
-0.393,-0.069,0.961,-3.601,-11.780,-14.038
-0.004,-0.143,1.029,-0.244,6.714,-19.958
0.198,-0.120,0.862,3.174,14.221,-21.118
0.360,-0.201,0.821,10.925,9.094,-15.320
0.143,-0.308,0.787,17.090,-5.493,-4.883
-0.162,-0.353,0.875,14.771,-16.968,-3.479
-0.249,-0.280,0.945,6.897,-16.602,-3.723
-0.199,-0.211,0.981,0.366,-10.071,-2.563
-0.191,-0.235,0.946,-0.793,-5.615,-1.160
-0.119,-0.291,0.951,1.282,0.183,-0.244
0.070,-0.381,0.992,2.686,5.981,-0.183
0.204,-0.406,0.984,0.305,7.385,-0.366
0.254,-0.388,0.952,-2.197,5.066,1.831
0.244,-0.401,0.956,-3.113,1.099,4.517
0.147,-0.371,0.955,-3.479,-3.540,5.066
0.042,-0.308,0.928,-5.188,-7.019,5.859
0.012,-0.271,0.935,-6.409,-7.996,8.362
-0.042,-0.250,0.938,-6.653,-7.996,11.536
-0.081,-0.232,0.925,-5.798,-7.263,12.573
-0.057,-0.234,0.922,-4.150,-5.493,13.428
-0.021,-0.240,0.919,-2.686,-4.883,15.015
0.007,-0.246,0.907,-2.319,-5.188,17.395
0.018,-0.274,0.919,-1.892,-6.165,18.616
0.030,-0.262,0.922,-2.869,-7.874,18.494
0.041,-0.258,0.934,-4.028,-9.277,19.531
0.043,-0.252,0.935,-5.615,-11.292,22.156
0.062,-0.251,0.941,-6.531,-12.512,25.330
0.100,-0.247,0.942,-5.737,-12.512,28.442
0.137,-0.232,0.944,-3.296,-13.367,31.189
0.098,-0.241,0.943,1.160,-16.235,32.837
0.026,-0.276,0.983,4.150,-17.761,32.532
-0.142,-0.260,0.932,4.578,-19.592,25.085
-0.125,-0.228,0.980,6.531,-17.944,15.137
-0.140,-0.185,0.977,7.690,-16.724,9.644
-0.163,-0.184,0.933,7.935,-15.381,6.775
-0.134,-0.199,0.945,10.498,-12.695,3.235
-0.107,-0.223,0.968,12.268,-10.071,-0.854
-0.073,-0.232,0.911,12.329,-9.705,-3.113
-0.039,-0.247,0.950,12.695,-6.653,-2.686
-0.061,-0.297,0.939,10.803,-5.066,-1.404
-0.056,-0.336,0.945,6.775,-1.953,-0.549
-0.016,-0.273,0.912,-0.122,3.174,2.014
0.030,-0.273,0.921,-4.700,6.531,5.981
0.019,-0.336,0.926,-6.958,7.019,9.277

-2.354,0.139,1.166,-21.545,-77.942,57.190
-2.721,0.650,0.841,-35.889,-51.270,1.404
-1.239,0.375,0.647,-19.653,22.827,-7.202
0.118,-0.062,0.858,6.104,70.923,-1.099
0.694,-0.496,1.029,12.939,77.515,-6.714
0.912,-0.435,1.080,6.226,56.152,-18.433
0.346,-0.213,0.800,-7.935,27.344,-22.644
0.444,-0.204,0.812,-7.080,17.151,-13.977
0.588,-0.313,0.976,0.854,9.155,3.235
0.242,-0.332,0.971,2.808,-4.333,11.841
0.031,-0.247,0.973,0.305,-9.338,10.864
-0.054,-0.202,1.009,-0.122,-7.812,9.521
-0.121,-0.152,1.032,-1.404,-7.202,5.188
-0.218,-0.048,0.979,-2.014,-7.019,-3.845
-0.119,-0.109,1.001,2.075,-1.526,-13.123
-0.102,-0.188,1.038,2.197,3.418,-21.423
-0.151,-0.183,1.076,-4.028,6.287,-32.593
-0.262,-0.082,0.889,-6.958,7.568,-41.626
-0.308,-0.161,0.848,-1.892,12.146,-48.279
-0.132,-0.288,1.110,2.319,20.752,-50.598
-0.087,-0.255,1.067,-0.549,25.513,-48.218
-0.075,-0.337,0.817,-0.549,26.733,-47.424
0.013,-0.206,0.684,7.568,28.320,-53.284
0.393,-0.358,0.884,11.230,32.715,-51.697
0.573,-0.324,0.988,9.216,25.940,-42.236
0.365,-0.349,0.921,10.925,7.935,-40.771
0.233,-0.351,0.924,9.338,-0.061,-37.231
0.219,-0.298,0.963,1.648,0.916,-28.931
0.188,-0.280,0.961,-1.404,0.977,-21.362
0.019,-0.286,0.941,-3.479,-1.099,-15.381
-0.026,-0.267,0.954,-6.958,1.160,-12.939
-0.015,-0.255,0.972,-7.996,4.456,-14.832
-0.033,-0.225,1.001,-9.399,5.127,-19.775
-0.113,-0.165,0.980,-11.475,3.845,-23.987
-0.169,-0.129,0.952,-11.475,3.174,-28.625
-0.188,-0.111,0.935,-8.850,5.005,-34.973
-0.198,-0.096,0.885,-6.042,8.118,-39.063
-0.197,-0.127,0.906,-5.371,11.658,-41.260
-0.163,-0.155,0.953,-6.165,15.625,-43.030
-0.124,-0.210,0.992,-5.432,19.043,-48.096
-0.027,-0.214,0.995,-5.005,22.339,-55.237
-0.061,-0.195,0.953,-5.005,22.522,-61.829
-0.092,-0.181,0.936,-3.052,22.522,-68.420
-0.015,-0.223,0.958,0.366,23.865,-73.059
-0.029,-0.253,0.980,0.793,23.499,-76.111
-0.004,-0.264,0.882,-1.282,22.583,-78.857
0.001,-0.260,0.933,-1.404,21.362,-82.092
-0.087,-0.286,0.986,-0.793,16.113,-90.637
-0.253,-0.270,1.094,-1.160,11.963,-102.722
-0.171,-0.127,1.072,-2.258,14.343,-114.136
-0.262,-0.118,1.047,-1.831,9.338,-123.718
-0.588,-0.068,0.854,0.183,10.132,-136.108
-0.429,-0.187,1.027,2.380,23.132,-150.757
-0.215,-0.024,0.743,-4.211,35.706,-154.480
0.165,-0.205,0.868,-1.526,52.002,-139.771
0.173,-0.211,0.700,5.981,49.500,-119.141
0.796,-0.420,0.437,14.709,58.472,-86.304
1.112,-0.799,0.554,32.043,69.702,-44.983
1.728,-1.229,1.172,36.011,60.059,-30.457
1.235,-0.895,1.137,7.568,5.737,-17.700
0.607,-0.595,0.906,-21.301,-40.588,-2.686
0.029,-0.127,0.818,-31.921,-57.495,10.132
-0.057,-0.192,1.012,-24.475,-38.513,18.677
0.190,-0.087,1.111,-14.221,-18.921,32.166
0.022,-0.091,1.031,-13.306,-15.564,42.358
-0.010,-0.057,1.000,-13.123,-15.198,43.701
-0.216,-0.017,0.766,-5.371,-17.456,32.410
-0.328,-0.065,0.947,6.409,-17.517,8.179
-0.221,0.093,0.959,11.719,-13.489,-7.080
-0.230,0.058,1.013,16.785,-11.902,-5.432
-0.217,-0.075,1.055,23.315,-8.240,-2.563
-0.051,-0.133,1.067,27.710,-2.258,-4.333
0.076,-0.152,0.986,33.142,-2.930,-10.132
0.110,-0.158,0.875,40.955,-11.780,-12.085
0.115,-0.281,0.842,49.316,-21.362,-7.690
0.093,-0.403,0.856,49.438,-27.161,-2.319
0.115,-0.480,0.898,41.748,-29.419,2.747
0.109,-0.476,0.866,29.358,-33.630,6.470
0.051,-0.414,0.804,16.846,-38.208,8.850
0.052,-0.445,0.946,8.301,-40.771,12.329
-0.005,-0.415,0.910,-3.906,-43.823,17.883
-0.095,-0.397,0.953,-11.780,-40.405,25.818
-0.137,-0.410,1.064,-12.756,-32.410,33.264
-0.078,-0.376,1.005,-19.104,-26.367,38.147
-0.074,-0.346,0.973,-22.217,-22.156,42.664
-0.057,-0.335,0.990,-21.362,-20.203,45.715
-0.046,-0.304,0.947,-21.423,-23.987,46.997
-0.080,-0.289,0.919,-22.339,-26.489,47.485
-0.091,-0.284,0.905,-24.048,-26.184,48.157
-0.096,-0.271,0.897,-25.696,-25.635,48.340
-0.109,-0.262,0.891,-25.513,-25.269,47.363
-0.130,-0.250,0.901,-25.635,-24.170,46.387
-0.184,-0.222,0.908,-27.283,-21.057,43.823
-0.179,-0.214,0.908,-28.931,-15.198,40.527
-0.151,-0.175,0.917,-29.419,-9.949,39.673
-0.134,-0.170,0.924,-27.405,-6.836,39.490
-0.140,-0.175,0.941,-23.865,-6.470,40.894
-0.218,-0.221,0.940,-21.606,-5.188,42.236
-0.246,-0.271,0.944,-20.386,-1.221,40.955
-0.232,-0.277,0.926,-19.897,5.310,37.109
-0.248,-0.225,0.908,-17.761,13.489,31.616
-0.270,-0.167,0.921,-12.817,24.109,25.452
-0.245,-0.142,0.935,-5.615,33.936,20.935
-0.184,-0.123,0.947,1.404,40.344,18.066
-0.138,-0.108,0.964,8.789,42.236,15.991
-0.085,-0.111,0.987,15.808,40.161,15.076
-0.024,-0.127,1.000,21.118,34.668,16.846
0.027,-0.149,1.000,23.987,25.940,20.386
0.038,-0.204,1.003,25.818,16.541,25.452
0.043,-0.264,1.021,24.841,7.507,28.198
0.056,-0.302,1.029,20.142,-0.305,27.710
0.055,-0.294,1.007,11.841,-5.737,25.208
0.050,-0.301,0.990,3.296,-7.812,21.240
0.056,-0.305,0.965,-4.700,-7.935,15.686
0.076,-0.285,0.964,-12.329,-4.517,8.789
0.089,-0.245,0.969,-19.836,2.319,2.563
0.110,-0.208,0.966,-26.672,9.888,-0.916
0.126,-0.183,0.962,-32.471,16.357,-1.465
0.141,-0.166,0.956,-38.025,22.217,-0.732

2.502,-0.846,2.052,365.845,-19.470,-43.091
2.971,-0.647,2.595,336.060,-205.383,-58.533
2.357,-1.135,2.400,281.921,-378.113,-36.621
0.829,-0.828,1.541,191.406,-453.796,-27.222
-0.403,-0.998,1.329,126.953,-383.728,-12.756
-0.792,-0.584,1.453,85.632,-251.404,7.446
-0.299,-0.258,1.203,40.222,-117.310,-7.874
0.363,-0.291,1.002,28.259,-19.287,-13.306
0.728,-0.233,0.948,31.494,29.846,-5.310
0.808,-0.209,0.773,35.522,32.654,4.700
0.766,-0.178,0.494,35.889,21.729,12.817
0.776,-0.234,0.323,34.424,22.278,20.996
0.811,-0.215,0.223,31.555,30.823,25.024
0.857,-0.133,0.175,26.855,38.269,27.954
0.905,-0.043,0.141,22.034,42.053,34.912
0.910,0.032,0.094,17.822,42.725,45.532
0.893,0.088,0.058,16.602,44.922,56.213
0.900,0.134,0.079,19.897,49.438,65.552
0.897,0.144,0.136,26.184,51.819,72.754
0.839,0.149,0.171,34.424,47.852,74.707
0.787,0.131,0.245,42.725,40.710,73.303
0.779,0.130,0.344,49.500,27.710,69.153
0.799,0.115,0.426,54.749,4.211,64.087
0.763,0.031,0.535,57.922,-24.536,59.387
0.606,-0.156,0.688,57.129,-55.786,51.575
0.349,-0.310,0.852,47.668,-77.881,37.964
0.088,-0.370,1.022,30.945,-82.153,23.071
-0.003,-0.264,0.995,10.681,-73.242,9.583
0.062,-0.140,0.913,-2.136,-52.734,0.671
0.151,-0.063,0.798,-4.333,-32.104,-2.808
0.228,-0.023,0.709,3.296,-14.648,-3.052
0.298,-0.022,0.644,14.893,-0.366,-2.930
0.448,-0.121,0.554,24.475,11.841,-3.723
0.632,-0.206,0.493,28.809,21.118,-10.681
0.618,-0.016,0.522,28.015,26.733,-19.348
0.780,-0.105,0.480,29.724,27.466,-21.667
1.058,-0.310,0.438,29.480,23.743,-34.302
1.214,-0.304,0.475,22.705,15.137,-52.063
1.245,-0.284,0.537,16.235,0.244,-60.852
1.245,-0.277,0.572,12.756,-19.287,-63.416
1.204,-0.268,0.622,10.071,-36.133,-62.317
1.104,-0.236,0.672,10.071,-47.363,-58.533
0.985,-0.228,0.698,11.719,-53.345,-51.575
0.878,-0.240,0.719,14.587,-53.162,-41.138
0.796,-0.257,0.740,17.761,-45.776,-29.297
0.764,-0.243,0.769,22.278,-33.142,-18.005
0.743,-0.233,0.796,26.672,-19.470,-8.606
0.715,-0.195,0.795,29.114,-8.484,-1.770
0.666,-0.209,0.758,28.992,-1.770,4.028
0.608,-0.231,0.715,26.489,2.502,6.836
0.578,-0.242,0.690,20.691,6.531,9.338
0.571,-0.236,0.669,12.085,9.338,12.817
0.553,-0.261,0.623,2.258,10.010,16.846
0.540,-0.255,0.587,-7.751,10.620,18.982
0.530,-0.269,0.527,-18.066,11.292,20.203
0.555,-0.274,0.475,-28.809,14.160,19.226
0.580,-0.278,0.436,-39.978,18.677,16.785
0.609,-0.277,0.402,-50.110,23.804,12.756
0.646,-0.247,0.377,-57.495,28.076,7.996
0.689,-0.217,0.372,-60.791,30.273,4.089
0.734,-0.195,0.381,-60.120,29.175,1.221
0.780,-0.175,0.390,-56.030,24.231,-1.038
0.814,-0.159,0.411,-49.988,17.151,-2.563
0.849,-0.161,0.439,-44.006,9.094,-3.418
0.882,-0.175,0.477,-38.757,1.282,-4.944
0.918,-0.175,0.516,-36.072,-6.165,-7.935
0.954,-0.176,0.570,-35.522,-13.794,-11.353
0.988,-0.175,0.614,-37.170,-23.010,-13.977
1.002,-0.172,0.653,-39.917,-33.142,-16.602
0.988,-0.140,0.688,-42.847,-42.847,-19.226
0.964,-0.103,0.720,-45.288,-50.903,-20.813
0.941,-0.068,0.733,-46.814,-57.617,-22.278
0.908,-0.034,0.731,-47.058,-62.866,-23.132
0.889,-0.021,0.723,-46.021,-65.796,-22.705
0.863,-0.007,0.712,-43.335,-67.444,-22.034
0.833,0.020,0.687,-39.429,-67.200,-21.912
0.791,0.045,0.656,-33.875,-64.941,-21.545
0.708,0.061,0.620,-27.344,-60.059,-21.179
0.621,0.050,0.599,-19.714,-50.659,-19.958
0.571,0.050,0.590,-12.695,-37.903,-17.883
0.589,0.071,0.598,-5.798,-23.193,-16.113
0.594,0.095,0.609,0.916,-9.399,-14.099
0.576,0.093,0.614,7.446,2.258,-11.108
0.592,0.063,0.630,13.489,13.062,-8.240
0.640,0.035,0.650,18.494,21.118,-6.592
0.671,0.009,0.669,21.179,25.818,-6.348
0.685,-0.022,0.679,22.339,26.428,-6.409
0.693,-0.044,0.685,21.729,24.109,-6.348
0.698,-0.061,0.690,19.836,20.264,-6.470
0.689,-0.073,0.697,17.334,15.320,-6.531
0.668,-0.091,0.697,14.587,10.559,-6.958
0.652,-0.103,0.710,11.230,7.385,-6.958
0.641,-0.112,0.709,7.629,5.371,-6.348
0.641,-0.116,0.715,4.639,5.493,-5.493
0.641,-0.119,0.716,1.770,6.470,-4.211
0.659,-0.110,0.711,-0.793,7.996,-3.601
0.669,-0.122,0.709,-2.380,10.681,-2.930
0.689,-0.119,0.701,-3.662,13.000,-2.930
0.711,-0.125,0.701,-4.028,15.686,-2.869
0.736,-0.126,0.693,-5.005,17.395,-3.052
0.764,-0.129,0.686,-6.042,18.799,-3.113
0.786,-0.131,0.674,-7.324,18.860,-3.235
0.809,-0.132,0.671,-8.606,17.944,-3.296
0.823,-0.133,0.666,-10.376,15.076,-3.174
0.828,-0.133,0.662,-11.902,10.864,-3.235
0.816,-0.137,0.659,-13.550,6.409,-3.174
0.805,-0.136,0.660,-15.259,2.136,-3.235
0.791,-0.134,0.659,-16.479,-1.770,-3.296
0.778,-0.134,0.662,-17.334,-5.005,-3.418
0.767,-0.138,0.668,-18.188,-7.568,-3.784
0.755,-0.137,0.674,-18.677,-9.460,-4.395
0.737,-0.137,0.682,-19.104,-10.315,-5.005
0.725,-0.133,0.690,-19.287,-10.742,-5.920
0.718,-0.130,0.694,-19.165,-10.559,-7.019
0.708,-0.122,0.692,-19.287,-10.193,-8.179
0.697,-0.111,0.688,-18.555,-9.888,-9.155
0.689,-0.100,0.681,-17.212,-9.155,-9.583
0.686,-0.089,0.672,-15.015,-8.118,-9.583
0.683,-0.082,0.671,-12.451,-6.348,-9.155

0.997,-0.895,1.236,-210.693,-79.651,113.403
0.930,-0.914,1.304,-299.683,-90.759,123.962
0.758,-0.495,1.231,-379.822,-102.478,126.099
0.690,-0.045,1.278,-426.880,-110.901,112.549
0.618,0.321,1.253,-444.763,-120.117,87.830
0.518,0.631,1.029,-438.416,-135.681,56.274
0.372,0.947,0.669,-409.241,-145.630,28.381
0.210,1.047,0.396,-359.802,-136.780,10.071
0.103,1.058,0.135,-302.673,-106.873,1.099
0.123,0.956,-0.011,-243.958,-60.791,-6.653
0.294,0.804,-0.032,-188.293,-13.428,-17.090
0.435,0.655,0.042,-144.470,19.775,-28.564
0.530,0.502,0.131,-116.638,36.133,-34.912
0.664,0.423,0.153,-103.638,36.682,-31.677
0.707,0.468,0.138,-101.929,24.109,-24.170
0.647,0.622,0.103,-102.417,6.470,-15.320
0.579,0.826,0.051,-95.642,-9.216,-2.808
0.525,0.902,-0.002,-78.125,-20.996,13.245
0.461,0.856,0.000,-54.321,-29.602,29.297
0.435,0.778,0.052,-31.128,-36.255,41.260
0.386,0.716,0.094,-13.184,-43.579,49.072
0.290,0.734,0.109,-0.305,-49.988,51.819
0.143,0.756,0.083,14.282,-51.880,48.157
-0.022,0.752,0.049,33.081,-44.128,40.344
-0.026,0.784,0.080,53.650,-23.437,31.616
0.071,0.825,0.124,76.843,-2.563,22.461
0.120,0.897,0.124,105.103,8.179,11.963
0.105,0.968,0.104,140.198,11.230,2.991
0.059,0.882,0.109,183.594,14.221,-2.258
-0.011,0.710,0.085,226.624,24.475,-3.357
-0.009,0.564,0.093,263.123,44.373,-2.869
0.074,0.448,0.133,295.166,68.726,-2.258
0.156,0.289,0.171,324.768,90.759,-4.517
0.236,0.040,0.208,348.511,109.741,-11.169
0.351,-0.163,0.243,360.779,125.122,-21.790
0.511,-0.261,0.346,360.107,139.343,-34.424
0.663,-0.285,0.459,350.586,145.996,-46.326
0.768,-0.296,0.516,336.182,141.663,-53.772
0.858,-0.301,0.611,318.420,131.348,-52.734
0.965,-0.400,0.858,293.396,115.234,-43.274
1.063,-0.395,1.049,256.042,82.397,-28.503
1.022,-0.360,1.124,213.501,32.959,-13.367
0.962,-0.352,1.188,169.739,-11.597,-1.465
0.926,-0.315,1.218,128.479,-53.955,0.671
0.973,-0.294,1.245,95.886,-88.318,-3.357
1.023,-0.219,1.299,68.542,-112.244,-11.658
0.982,-0.096,1.316,47.729,-131.409,-23.560
0.903,0.017,1.342,33.813,-144.104,-34.241
0.818,0.000,1.353,26.733,-150.208,-39.795
0.751,0.168,1.331,22.522,-149.963,-43.579
0.727,0.138,1.309,24.170,-139.832,-32.166
0.637,0.091,1.279,25.818,-127.686,-22.034
0.520,0.022,1.222,26.184,-114.868,-16.602
0.470,-0.064,1.175,24.292,-98.206,-13.367
0.390,-0.047,1.082,19.348,-79.529,-14.282
0.279,-0.079,1.026,13.489,-57.678,-10.742
0.242,-0.144,0.977,5.737,-36.621,-10.254
0.277,-0.155,0.913,-3.113,-16.235,-17.151
0.322,-0.115,0.870,-11.169,5.249,-24.292
0.410,-0.142,0.838,-17.456,24.109,-29.358
0.490,-0.124,0.811,-24.109,37.048,-39.429
0.553,-0.103,0.792,-29.846,44.312,-47.852
0.626,-0.100,0.767,-35.217,44.556,-52.979
0.676,-0.111,0.796,-39.856,38.574,-56.335
0.722,-0.119,0.787,-47.302,27.527,-58.350
0.736,-0.035,0.716,-55.481,17.273,-55.115
0.752,-0.044,0.600,-56.396,9.338,-46.387
0.803,-0.052,0.605,-50.781,5.981,-39.368
0.846,-0.050,0.625,-39.978,-4.028,-30.518
0.820,-0.033,0.646,-25.818,-29.846,-28.503
0.789,-0.035,0.629,-12.390,-58.838,-33.325
0.729,-0.012,0.650,-0.183,-83.679,-33.081
0.670,0.026,0.689,9.521,-103.882,-29.236
0.631,0.040,0.690,17.212,-123.291,-24.963
0.590,0.003,0.665,25.024,-143.677,-19.836
0.511,-0.029,0.613,33.997,-161.926,-14.526
0.440,-0.046,0.543,45.349,-175.720,-11.414
0.341,-0.061,0.481,61.646,-181.091,-10.132
0.268,-0.068,0.454,81.665,-175.171,-7.202
0.252,-0.066,0.487,103.149,-160.156,-2.808
0.222,-0.065,0.515,123.108,-139.587,1.648
0.199,-0.118,0.532,142.090,-117.065,5.737
0.178,-0.184,0.554,157.043,-92.224,7.446
0.188,-0.251,0.563,167.297,-68.481,11.108
0.220,-0.297,0.565,175.171,-48.523,17.273
0.270,-0.322,0.572,181.152,-32.959,25.513
0.277,-0.355,0.581,185.730,-21.057,31.555
0.256,-0.405,0.602,187.988,-10.681,33.142
0.244,-0.446,0.636,185.974,-1.770,30.579
0.221,-0.481,0.664,179.749,5.432,22.461
0.155,-0.516,0.703,169.373,13.306,8.850
0.051,-0.558,0.819,151.489,25.085,-5.249
-0.042,-0.649,1.022,121.155,42.969,-18.066
-0.061,-0.783,1.192,75.134,57.556,-26.062
0.016,-0.789,1.343,14.771,69.641,-28.015
0.129,-0.687,1.446,-46.448,69.763,-24.597
0.224,-0.543,1.367,-96.313,50.354,-20.386
0.228,-0.373,1.255,-125.244,23.010,-17.151
0.094,-0.139,1.063,-128.418,1.038,-15.198
-0.099,0.050,0.940,-102.051,-1.343,-17.639
-0.152,0.131,1.001,-53.101,17.151,-28.198
-0.003,0.096,1.166,-3.723,37.170,-43.030
0.179,0.031,1.256,32.471,40.283,-54.688
0.265,-0.000,1.276,55.542,27.771,-59.631
0.301,-0.041,1.285,72.021,10.437,-56.702
0.304,-0.098,1.279,83.374,-4.150,-50.842
0.286,-0.182,1.271,86.304,-14.038,-46.082
0.361,-0.229,1.229,77.454,-17.456,-40.771
0.491,-0.148,1.133,63.965,-25.391,-36.011
0.570,-0.117,1.016,52.734,-42.053,-36.255
0.538,-0.095,0.912,45.532,-62.683,-38.879
0.462,-0.088,0.826,41.504,-79.529,-42.236
0.447,-0.093,0.770,38.086,-88.989,-43.457
0.393,-0.135,0.745,34.729,-93.384,-41.504
0.301,-0.205,0.748,29.480,-91.919,-37.048
0.278,-0.289,0.807,19.165,-82.764,-31.433
0.302,-0.351,0.857,5.005,-73.792,-26.672
0.203,-0.382,0.894,-8.606,-73.303,-20.081
0.059,-0.429,0.932,-22.156,-77.026,-14.099

1.214,-0.213,1.663,23.376,289.062,103.882
1.512,-0.308,1.656,26.917,245.972,116.638
1.453,-0.315,1.534,15.381,168.640,127.686
1.011,-0.286,1.297,-4.211,85.327,127.747
0.535,-0.216,1.013,-25.635,32.593,112.793
0.193,-0.067,0.729,-45.471,17.883,87.769
0.087,0.119,0.511,-55.908,28.015,61.279
0.139,0.356,0.304,-50.903,42.175,45.593
0.220,0.523,0.104,-28.259,44.556,41.260
0.352,0.670,-0.002,6.226,29.724,39.978
0.231,0.703,-0.151,48.157,-1.709,34.302
0.052,0.661,-0.281,88.989,-37.048,22.278
-0.338,0.611,-0.345,124.023,-63.232,1.038
-0.610,0.483,-0.289,150.574,-63.599,-23.132
-0.712,0.379,-0.115,163.879,-41.382,-43.457
-0.694,0.278,0.059,162.231,-11.597,-54.077
-0.600,0.140,0.286,149.109,15.625,-57.190
-0.393,0.041,0.505,123.230,33.264,-52.795
-0.261,-0.035,0.673,87.280,36.255,-45.410
-0.170,-0.148,0.810,48.828,26.733,-39.612
-0.112,-0.242,0.934,12.146,12.024,-37.720
-0.063,-0.310,1.028,-19.958,-1.160,-40.588
0.013,-0.318,1.105,-42.725,-10.376,-45.410
0.173,-0.271,1.137,-52.002,-16.968,-51.941
0.337,-0.206,1.135,-46.509,-24.841,-57.617
0.343,-0.228,1.188,-29.907,-32.410,-58.167
0.325,-0.274,1.281,-17.517,-26.123,-58.655
0.461,-0.290,1.334,-14.587,-12.573,-57.007
0.639,-0.293,1.342,-20.203,-3.601,-53.650
0.730,-0.349,1.357,-28.198,-3.540,-49.011
0.816,-0.352,1.396,-41.992,-6.042,-44.250
0.829,-0.284,1.390,-60.303,-15.686,-42.053
0.779,-0.266,1.379,-78.735,-33.752,-44.617
0.595,-0.176,1.361,-100.342,-54.260,-51.880
0.450,-0.214,1.646,-132.812,-56.824,-60.913
-0.237,-0.608,1.383,-181.274,-59.998,-78.369
0.637,-0.129,0.954,-207.214,-101.501,-109.802
0.387,0.103,1.107,-196.716,-109.436,-91.919
0.098,0.167,0.948,-175.476,-138.611,-85.571
0.043,0.211,0.811,-149.170,-168.091,-75.745
-0.095,0.174,0.743,-127.441,-179.932,-70.313
-0.247,0.164,0.601,-107.300,-181.641,-72.571
-0.210,0.177,0.556,-87.524,-174.927,-77.087
-0.158,0.171,0.506,-69.824,-169.067,-83.923
-0.137,0.185,0.457,-54.810,-166.687,-91.675
-0.111,0.181,0.429,-41.931,-164.673,-97.351
-0.108,0.164,0.381,-31.372,-161.743,-100.220
-0.129,0.148,0.340,-25.452,-155.884,-101.257
-0.146,0.167,0.315,-22.705,-145.020,-102.356
-0.140,0.227,0.323,-18.860,-130.371,-104.065
-0.126,0.253,0.347,-9.216,-112.732,-105.957
-0.120,0.247,0.368,8.179,-91.797,-109.558
-0.066,0.260,0.384,31.494,-66.895,-114.197
0.018,0.265,0.410,59.265,-39.429,-113.953
0.106,0.202,0.454,87.402,-13.123,-104.919
0.191,0.159,0.512,110.535,10.193,-90.454
0.246,0.139,0.578,129.578,29.480,-76.538
0.297,0.102,0.673,147.888,40.588,-65.918
0.327,0.024,0.807,164.856,44.067,-57.922
0.324,-0.016,0.967,179.687,39.978,-54.138
0.268,-0.039,1.040,194.580,27.222,-52.185
0.209,-0.060,1.110,213.440,13.977,-49.866
0.182,-0.128,1.133,237.488,3.357,-50.598
0.202,-0.245,1.156,263.000,-2.625,-55.664
0.254,-0.405,1.239,282.288,-0.122,-57.068
0.237,-0.596,1.350,291.016,9.583,-49.072
0.175,-0.802,1.368,290.710,19.287,-33.142
0.173,-1.027,1.347,282.898,28.748,-15.991
0.444,-1.245,1.611,263.550,40.344,3.906
0.671,-1.425,1.911,223.145,35.828,30.518
0.559,-1.408,1.956,157.593,10.742,49.866
0.219,-1.144,1.683,79.285,-17.029,50.415
0.018,-0.921,1.413,12.878,-33.264,38.391
-0.000,-0.703,1.233,-32.043,-40.039,20.264
-0.004,-0.513,1.075,-59.387,-46.814,6.104
-0.026,-0.381,0.940,-71.594,-54.016,-2.625
-0.069,-0.262,0.853,-71.411,-59.753,-6.042
-0.118,-0.190,0.811,-63.171,-62.683,-3.723
-0.173,-0.170,0.783,-49.866,-63.538,3.479
-0.217,-0.172,0.763,-33.875,-61.707,12.268
-0.235,-0.187,0.771,-15.381,-56.885,20.264
-0.243,-0.205,0.795,2.991,-50.903,26.917
-0.245,-0.237,0.830,19.958,-44.739,31.799
-0.236,-0.304,0.884,34.363,-37.842,35.461
-0.228,-0.366,0.933,42.114,-30.945,38.330
-0.237,-0.427,0.968,42.236,-25.574,39.734
-0.274,-0.518,0.988,37.537,-20.447,38.879
-0.288,-0.599,1.027,28.381,-14.526,31.311
-0.258,-0.641,1.068,12.756,-9.521,17.578
-0.212,-0.653,1.044,-7.263,-6.470,1.587
-0.178,-0.611,0.994,-27.771,-4.333,-14.587
-0.147,-0.555,0.916,-46.143,-1.831,-27.344
-0.124,-0.524,0.860,-61.157,1.953,-34.973
-0.099,-0.510,0.837,-73.853,6.531,-39.429
-0.072,-0.501,0.820,-85.571,9.644,-42.114
-0.042,-0.490,0.796,-96.619,12.207,-41.809
-0.040,-0.477,0.770,-106.628,15.686,-37.109
-0.073,-0.458,0.721,-116.089,20.203,-30.640
-0.105,-0.432,0.658,-121.887,27.283,-24.719
-0.115,-0.392,0.598,-123.535,37.720,-20.142
-0.098,-0.361,0.569,-120.483,51.025,-15.198
-0.066,-0.331,0.562,-113.831,65.002,-9.521
-0.029,-0.302,0.559,-104.553,77.332,-4.272
0.025,-0.288,0.575,-93.689,86.914,0.610
0.106,-0.292,0.606,-83.740,92.957,6.897
0.150,-0.298,0.613,-75.745,93.994,14.221
0.170,-0.318,0.591,-69.275,90.271,20.813
0.203,-0.327,0.592,-66.528,85.693,26.367
0.219,-0.326,0.595,-67.078,79.041,31.433
0.227,-0.305,0.632,-69.336,69.580,33.325
0.242,-0.269,0.715,-71.716,56.763,32.349
0.260,-0.215,0.817,-72.144,38.757,28.381
0.242,-0.121,0.899,-68.970,15.930,23.315
0.200,-0.013,0.965,-59.570,-8.118,19.897
0.155,0.062,1.009,-42.725,-29.907,17.578
0.102,0.109,1.050,-19.775,-48.340,15.198
0.031,0.124,1.058,7.324,-62.500,14.282
-0.029,0.098,1.035,35.095,-71.777,14.038
-0.072,0.038,1.032,59.631,-74.585,13.184

0.717,-0.500,0.775,116.455,-19.775,-124.939
0.899,-0.234,0.614,113.403,-36.560,-108.276
1.086,-0.523,0.850,121.094,-51.453,-72.021
1.171,-1.026,1.386,126.709,-63.965,-49.866
1.273,-0.606,1.687,100.220,-104.431,-27.832
0.804,-1.069,1.208,62.195,-162.964,-4.517
0.606,-0.519,1.134,37.048,-169.189,-1.526
0.396,-0.797,1.180,38.208,-149.475,26.123
0.335,-0.667,1.086,25.024,-113.647,52.307
0.347,-0.552,0.851,7.690,-72.388,69.641
0.476,-0.574,0.795,7.019,-40.710,83.313
0.611,-0.526,0.760,11.536,-20.203,94.788
0.663,-0.582,0.733,14.160,-8.911,106.995
0.935,-0.443,0.786,17.029,-5.310,118.896
1.040,-0.417,0.698,23.315,-19.409,141.602
1.021,-0.554,0.606,30.334,-39.246,173.645
0.972,-0.731,0.747,33.081,-58.533,202.393
1.019,-0.820,0.852,20.752,-85.205,225.159
0.999,-0.786,0.831,2.930,-113.281,251.892
0.808,-1.012,0.906,-4.944,-129.028,280.945
0.366,-1.001,0.757,-1.282,-130.859,298.401
0.008,-1.037,0.783,5.371,-103.210,306.396
0.306,-1.048,0.733,13.123,-62.561,310.669
0.714,-1.209,0.814,27.222,-47.241,322.144
0.708,-1.331,0.659,33.081,-53.589,323.547
0.545,-1.501,0.617,36.011,-47.424,320.496
0.457,-1.380,0.665,32.593,-34.485,309.692
0.467,-1.344,0.745,33.325,-24.841,312.561
0.447,-1.291,0.783,33.508,-17.822,319.275
0.372,-1.265,0.845,30.518,-6.897,331.116
0.261,-1.237,0.870,27.222,8.179,348.999
0.153,-1.161,0.885,26.855,23.010,363.647
0.048,-1.082,0.874,31.860,35.950,373.596
-0.081,-1.028,0.883,39.978,48.645,376.404
-0.235,-0.987,0.880,51.331,65.674,371.155
-0.335,-0.811,0.949,63.354,88.989,366.211
-0.370,-0.667,1.038,80.811,104.858,366.577
-0.700,-0.363,0.676,102.966,111.267,371.887
-0.642,-0.583,0.537,150.330,145.752,370.911
-0.452,-0.547,0.212,195.068,187.378,355.103
-0.307,-0.747,0.054,246.643,241.150,347.229
-0.101,-1.273,0.583,285.522,294.556,322.998
0.352,-1.492,1.313,273.010,292.358,267.883
0.618,-1.550,1.539,220.032,225.952,214.294
0.609,-1.600,1.938,140.991,158.203,182.617
0.542,-1.466,2.091,43.030,74.036,142.700
0.477,-1.353,2.039,-42.480,-21.179,108.826
0.343,-1.161,1.883,-108.276,-111.389,81.360
0.127,-0.966,1.683,-148.010,-187.866,57.068
-0.100,-0.728,1.462,-164.307,-247.314,30.151
-0.287,-0.540,1.293,-162.476,-285.278,6.714
-0.419,-0.379,1.152,-150.757,-305.237,-14.648
-0.538,-0.293,1.029,-133.850,-309.387,-33.936
-0.668,-0.266,0.941,-116.394,-299.255,-51.758
-0.801,-0.269,0.866,-102.173,-276.550,-71.106
-0.899,-0.249,0.831,-94.788,-242.554,-90.393
-0.945,-0.137,0.791,-94.543,-201.538,-108.582
-0.971,-0.194,0.846,-97.656,-156.311,-123.291
-0.851,-0.048,0.838,-105.408,-113.953,-141.113
-0.820,-0.090,0.775,-112.244,-70.862,-149.353
-0.759,-0.055,0.759,-119.995,-23.437,-164.062
-0.616,-0.001,0.725,-124.817,18.555,-179.382
-0.406,0.035,0.762,-124.146,53.894,-192.688
-0.168,0.054,0.767,-120.178,75.378,-206.848
0.058,0.062,0.745,-112.000,83.191,-217.712
0.257,0.091,0.737,-99.792,82.153,-226.501
0.445,0.086,0.788,-83.862,73.608,-230.286
0.608,0.038,0.818,-67.871,56.274,-230.652
0.700,0.048,0.814,-55.725,36.072,-226.440
0.683,0.032,0.776,-45.898,18.799,-213.379
0.670,-0.004,0.756,-36.499,4.395,-200.195
0.700,-0.026,0.694,-25.208,-9.277,-192.749
0.761,0.019,0.654,-12.024,-18.738,-187.439
0.806,0.071,0.654,-1.160,-22.827,-176.453
0.824,0.075,0.662,7.263,-24.963,-159.241
0.817,0.062,0.688,14.771,-27.649,-141.357
0.785,0.045,0.723,18.921,-31.677,-123.596
0.713,0.012,0.743,19.836,-34.973,-104.736
0.648,0.022,0.775,17.151,-37.842,-87.463
0.623,0.040,0.766,12.146,-41.687,-72.083
0.620,0.042,0.758,5.859,-42.419,-57.556
0.574,0.046,0.753,-1.648,-38.879,-44.556
0.547,0.072,0.746,-8.850,-33.875,-34.607
0.544,0.115,0.755,-14.343,-25.391,-26.245
0.535,0.157,0.754,-18.188,-14.160,-18.555
0.543,0.198,0.774,-19.775,-3.540,-13.428
0.576,0.247,0.810,-20.691,4.883,-11.597
0.637,0.294,0.839,-22.339,8.606,-10.742
0.718,0.331,0.844,-22.339,5.798,-10.010
0.747,0.353,0.844,-18.860,-1.465,-9.216
0.719,0.384,0.866,-12.695,-9.460,-7.629
0.696,0.424,0.867,-5.798,-18.127,-2.991
0.656,0.429,0.885,2.563,-26.733,5.127
0.592,0.436,0.920,10.681,-34.119,12.939
0.512,0.449,0.929,17.334,-39.917,18.433
0.427,0.449,0.923,21.606,-42.419,20.752
0.346,0.444,0.911,23.743,-38.940,19.897
0.314,0.429,0.905,24.109,-32.227,16.724
0.324,0.420,0.918,23.621,-27.527,12.817
0.321,0.417,0.900,22.705,-28.442,9.277
0.326,0.414,0.852,22.095,-32.898,5.981
0.332,0.379,0.791,24.353,-35.767,1.648
0.338,0.331,0.739,30.212,-35.217,-3.723
0.324,0.282,0.670,39.063,-31.433,-9.033
0.330,0.206,0.626,49.011,-22.705,-13.245
0.365,0.098,0.584,56.946,-9.521,-16.357
0.459,-0.045,0.578,60.730,4.150,-17.273
0.761,-0.217,0.479,59.937,14.709,-13.062
1.012,-0.525,0.810,52.734,12.878,-3.418
1.051,-0.514,1.032,20.813,-17.700,5.676
1.181,-0.301,0.924,-11.047,-78.979,14.893
1.232,-0.239,0.798,-24.536,-143.433,37.598
1.123,-0.380,0.972,-17.761,-197.998,66.162
0.814,-0.649,1.329,-1.648,-255.432,89.722
0.679,-0.486,1.713,-0.549,-291.138,120.483
-0.210,-0.513,1.757,-32.471,-316.833,177.795
-1.145,-0.431,1.290,-79.346,-285.706,253.845
-1.536,-0.522,1.095,-104.126,-169.434,325.256
-1.406,-0.503,1.263,-102.539,-23.560,358.765

-1.160,0.278,0.072,-106.750,241.638,333.191
-0.802,0.703,-0.394,-69.519,424.500,331.299
-0.440,0.446,-1.169,51.819,596.436,328.491
-0.134,-0.368,-1.527,198.486,727.600,303.650
1.073,-1.195,-0.531,296.631,813.599,232.178
2.340,-2.213,0.692,288.757,734.497,137.146
2.843,-1.974,2.217,200.500,554.993,64.575
2.681,-1.422,2.940,87.891,304.504,31.494
2.146,-1.279,2.575,-10.254,37.476,49.683
1.502,-1.255,2.031,-91.797,-172.974,82.275
0.978,-1.274,1.410,-133.911,-316.467,89.233
0.617,-0.957,1.123,-151.123,-403.259,67.200
0.247,-0.507,0.834,-158.325,-446.899,47.058
-0.031,-0.574,0.757,-145.508,-442.444,48.279
-0.338,-0.584,0.654,-135.620,-419.067,35.645
-0.651,-0.466,0.584,-133.240,-373.657,20.691
-0.932,-0.380,0.539,-133.240,-300.110,10.315
-1.098,-0.333,0.514,-133.789,-206.970,-2.869
-1.078,-0.274,0.542,-133.240,-108.459,-19.653
-0.920,-0.208,0.593,-130.493,-17.944,-39.307
-0.728,-0.094,0.683,-128.235,54.871,-59.326
-0.519,0.031,0.833,-126.587,104.065,-78.369
-0.373,0.147,0.854,-122.314,123.352,-96.985
-0.257,0.349,0.946,-114.868,124.573,-113.525
-0.156,0.400,0.902,-101.868,110.413,-124.329
-0.041,0.576,0.875,-86.304,81.360,-137.146
0.032,0.548,0.883,-66.101,50.232,-141.235
0.128,0.621,0.842,-46.753,9.460,-152.588
0.129,0.661,0.729,-28.259,-31.616,-157.898
0.130,0.592,0.659,-12.268,-62.988,-155.334
0.171,0.573,0.605,-2.014,-87.158,-158.081
0.168,0.617,0.556,6.226,-104.492,-163.086
0.111,0.621,0.517,15.259,-111.633,-163.879
0.035,0.643,0.493,22.766,-106.873,-163.391
0.030,0.599,0.579,29.053,-87.769,-160.522
0.064,0.460,0.722,31.311,-61.584,-156.921
0.166,0.333,0.804,24.353,-37.903,-154.175
0.294,0.332,0.841,11.230,-20.569,-153.137
0.402,0.364,0.885,-0.549,-10.742,-148.743
0.534,0.300,0.912,-8.301,-12.573,-141.907
0.638,0.266,0.954,-12.939,-22.583,-140.076
0.634,0.286,0.982,-12.939,-37.598,-141.846
0.578,0.284,0.990,-8.118,-55.664,-146.851
0.514,0.368,0.963,1.160,-75.256,-156.982
0.342,0.457,0.891,15.869,-88.684,-166.260
0.175,0.432,0.861,35.706,-89.966,-172.485
0.080,0.375,0.838,51.941,-83.496,-179.077
0.033,0.398,0.810,63.721,-70.618,-184.753
-0.016,0.323,0.830,72.998,-46.936,-182.983
-0.034,0.228,0.824,75.073,-20.752,-176.819
-0.048,0.246,0.870,70.313,7.996,-167.847
-0.066,0.182,0.884,63.660,31.921,-151.367
0.008,0.050,0.954,57.312,52.307,-137.451
0.224,-0.036,1.085,50.781,62.988,-130.676
0.630,-0.049,1.191,42.847,54.932,-123.474
0.655,-0.164,1.342,37.170,20.081,-108.398
0.459,-0.314,1.238,24.475,-19.165,-89.172
0.221,-0.273,0.878,11.292,-47.485,-78.552
0.072,-0.234,0.700,15.686,-51.941,-74.219
0.140,-0.269,0.627,34.363,-45.288,-67.139
0.314,-0.310,0.578,59.753,-41.687,-54.688
0.453,-0.411,0.606,87.280,-41.321,-33.997
0.518,-0.593,0.708,111.633,-42.908,-5.310
0.533,-0.842,0.886,128.906,-45.837,23.682
0.568,-0.974,1.078,138.977,-53.345,49.561
0.468,-1.461,1.348,133.850,-78.552,72.693
0.086,-1.585,1.237,91.431,-86.426,98.328
-0.033,-1.261,0.890,43.335,-62.012,106.384
0.167,-1.321,0.571,29.846,-49.377,102.051
0.340,-1.400,0.678,35.645,-30.884,90.454
0.423,-1.352,0.829,34.363,-15.259,82.642
0.605,-1.197,0.805,24.658,-11.963,91.064
0.755,-1.113,0.769,20.142,-17.090,116.333
0.710,-1.113,0.820,19.775,-28.198,146.790
0.419,-1.155,0.765,17.212,-41.504,173.523
0.162,-1.210,0.707,13.428,-39.673,193.237
0.113,-1.168,0.752,6.897,-22.705,207.397
0.124,-1.076,0.784,-0.793,-11.902,217.346
0.070,-1.034,0.785,-7.263,-7.629,225.464
-0.036,-0.975,0.805,-13.123,-4.944,233.765
-0.166,-0.923,0.822,-17.334,-4.150,238.770
-0.292,-0.877,0.816,-20.203,0.061,238.098
-0.354,-0.721,0.754,-23.621,14.404,238.708
-0.330,-0.465,0.858,-23.315,26.001,238.770
-0.229,-0.341,0.733,-14.526,17.334,236.450
-0.251,-0.067,0.309,0.244,21.973,249.573
-0.341,0.060,0.022,37.170,57.739,270.996
-0.510,0.278,-0.540,81.970,110.779,291.321
-0.620,0.271,-0.807,143.433,200.989,311.157
-0.156,0.006,-0.618,225.098,298.523,307.861
0.558,-0.428,0.071,280.212,326.172,290.222
0.960,-0.593,0.712,299.683,294.067,274.963
1.223,-0.980,1.315,298.096,236.938,264.526
1.167,-1.064,1.641,264.709,148.621,238.831
1.035,-1.102,1.965,210.144,25.513,218.811
0.660,-1.249,1.927,127.930,-100.830,187.256
0.366,-1.100,1.624,38.147,-195.801,137.207
0.073,-0.852,1.266,-33.142,-236.328,90.271
-0.153,-0.602,0.964,-79.407,-236.572,47.729
-0.246,-0.410,0.867,-98.389,-215.332,10.986
-0.349,-0.274,0.921,-94.421,-183.105,-12.634
-0.435,-0.252,0.989,-78.796,-144.165,-25.513
-0.428,-0.284,1.046,-59.875,-101.501,-33.081
-0.326,-0.333,1.116,-40.283,-60.730,-34.912
-0.156,-0.355,1.139,-18.982,-28.015,-31.067
-0.042,-0.381,1.145,2.502,-2.014,-24.231
0.011,-0.353,1.152,19.287,21.240,-18.066
0.080,-0.293,1.160,29.053,43.762,-11.597
0.187,-0.259,1.151,32.593,61.890,-6.226
0.295,-0.245,1.140,33.203,72.937,-3.906
0.403,-0.269,1.167,33.142,77.637,-3.662
0.484,-0.304,1.206,33.875,74.768,-3.845
0.514,-0.334,1.245,33.875,64.392,-3.967
0.552,-0.421,1.296,35.706,48.157,-5.310
0.591,-0.493,1.337,37.109,27.405,-9.094
0.605,-0.548,1.395,33.264,4.578,-11.597
0.491,-0.564,1.348,23.254,-19.470,-12.146
0.327,-0.570,1.265,11.169,-37.903,-13.184
0.213,-0.552,1.203,-0.183,-45.654,-15.747

0.612,-1.984,2.233,61.401,111.938,11.475
0.597,-1.347,2.224,-42.664,132.507,36.682
0.378,-0.766,1.482,-127.441,74.951,51.147
0.083,-0.592,0.826,-156.494,10.254,71.045
-0.378,-0.332,0.458,-142.334,-9.033,83.679
-0.750,0.027,0.584,-96.497,18.250,89.539
-0.778,-0.053,0.940,-30.090,50.598,89.233
-0.720,-0.281,0.998,36.865,46.997,63.293
-0.670,-0.419,0.993,77.148,26.794,21.057
-0.645,-0.652,1.104,89.600,14.526,-12.878
-0.505,-0.687,1.165,66.223,20.081,-30.212
-0.427,-0.602,0.931,25.635,34.241,-37.109
-0.443,-0.458,0.785,-0.183,40.283,-49.316
-0.441,-0.418,0.831,-4.883,37.170,-68.237
-0.403,-0.419,0.920,-6.897,36.194,-86.182
-0.447,-0.414,0.960,-12.573,40.710,-100.708
-0.442,-0.368,0.997,-15.686,48.767,-115.540
-0.387,-0.391,0.976,-15.015,55.115,-128.662
-0.215,-0.304,1.009,-13.550,64.026,-139.587
-0.122,-0.298,0.967,-13.855,64.758,-143.311
-0.134,-0.275,0.952,-11.536,53.406,-147.339
-0.074,-0.330,0.933,-12.085,39.124,-146.606
-0.062,-0.437,0.926,-12.878,32.227,-145.752
0.008,-0.479,0.912,-13.733,37.476,-150.574
0.190,-0.529,0.896,-13.000,45.715,-155.884
0.329,-0.617,0.876,-10.010,48.401,-160.889
0.384,-0.635,0.831,-7.629,43.457,-168.762
0.483,-0.622,0.811,-7.507,41.260,-175.171
0.593,-0.625,0.821,-7.263,41.626,-175.842
0.693,-0.585,0.851,-6.287,39.734,-171.692
0.776,-0.619,0.868,-2.991,31.677,-160.645
0.772,-0.727,0.834,2.380,21.912,-149.536
0.727,-0.811,0.849,7.324,16.724,-141.357
0.675,-0.817,0.838,10.498,9.521,-137.756
0.575,-0.805,0.895,12.695,3.540,-136.108
0.412,-0.759,0.895,16.602,5.005,-136.597
0.064,-0.695,0.964,23.437,21.484,-137.268
0.572,-0.515,0.953,30.090,55.847,-126.831
0.993,-0.475,0.952,29.602,-1.282,-92.468
0.154,-0.664,0.811,29.663,-95.642,-84.778
-0.637,-0.665,0.749,12.207,-109.558,-92.468
-0.645,-0.557,0.762,1.404,-73.181,-93.567
-0.380,-0.461,0.840,6.287,-44.495,-104.248
-0.241,-0.369,1.023,14.160,-24.353,-113.708
-0.085,-0.312,1.263,24.475,-24.963,-120.789
-0.081,-0.428,1.399,42.664,-62.256,-126.282
-0.148,-0.388,1.287,57.983,-115.234,-138.733
-0.591,-0.270,1.112,56.030,-147.095,-148.499
-0.634,-0.229,1.021,63.538,-122.375,-156.311
-0.455,-0.098,1.080,79.590,-81.360,-159.973
-0.376,-0.077,1.072,96.619,-58.228,-157.166
-0.337,-0.081,1.123,111.267,-40.283,-150.391
-0.291,-0.110,1.122,119.812,-29.297,-140.625
-0.174,-0.212,1.174,122.375,-20.386,-131.348
-0.089,-0.165,1.247,115.356,-14.221,-123.718
-0.184,-0.162,1.063,102.722,-7.568,-110.291
-0.139,-0.161,0.914,88.928,15.015,-93.079
0.155,-0.189,0.924,68.115,37.659,-72.266
0.305,-0.184,0.978,43.579,52.124,-53.345
0.052,-0.297,1.000,17.761,54.871,-35.156
-0.093,-0.321,0.990,-11.475,74.036,-24.780
0.057,-0.268,0.922,-35.034,104.553,-22.156
0.386,-0.324,0.901,-46.936,129.456,-19.043
0.610,-0.347,0.912,-54.626,139.587,-12.573
0.708,-0.329,1.001,-61.584,138.550,0.244
0.789,-0.278,1.117,-68.604,131.042,12.146
0.876,-0.135,1.163,-76.660,116.455,17.212
0.853,-0.020,1.170,-84.778,97.534,22.644
0.746,0.034,1.126,-91.980,75.195,30.640
0.632,0.065,1.094,-95.581,57.495,40.161
0.550,0.081,1.030,-95.276,43.091,51.575
0.450,0.060,0.963,-90.698,33.447,64.453
0.346,0.025,0.882,-83.618,27.222,75.867
0.266,-0.042,0.811,-75.745,25.024,84.778
0.217,-0.101,0.753,-68.787,26.733,89.661
0.204,-0.146,0.706,-61.951,32.471,90.454
0.214,-0.150,0.698,-55.603,41.809,88.318
0.254,-0.131,0.705,-50.659,52.307,85.205
0.272,-0.127,0.714,-44.983,60.303,82.397
0.272,-0.137,0.739,-39.124,66.223,79.285
0.284,-0.136,0.765,-34.607,68.665,76.233
0.296,-0.134,0.784,-31.067,67.566,75.562
0.265,-0.123,0.771,-28.748,65.796,77.942
0.235,-0.109,0.753,-25.940,65.491,81.970
0.209,-0.106,0.750,-20.691,66.956,86.914
0.170,-0.128,0.760,-15.625,70.557,93.079
0.165,-0.170,0.764,-13.428,76.416,98.328
0.085,-0.148,0.751,-13.184,87.219,102.417
-0.129,-0.162,0.677,-11.658,118.469,110.962
-0.207,-0.191,0.589,-10.315,169.983,118.103
-0.151,-0.158,0.556,-7.202,230.103,119.385
-0.044,-0.140,0.557,-2.441,290.283,117.126
0.120,-0.151,0.533,-0.854,345.825,113.525
0.317,-0.118,0.503,-0.549,390.625,107.056
0.486,-0.090,0.508,2.136,421.875,102.356
0.633,-0.116,0.503,2.747,443.909,102.417
0.738,-0.110,0.488,-2.075,459.656,105.652
0.852,-0.096,0.500,-6.104,466.125,108.276
0.979,-0.077,0.541,-9.399,460.205,109.314
1.146,-0.071,0.646,-13.977,443.481,110.535
1.212,-0.103,0.679,-18.433,410.461,113.892
1.400,-0.076,0.820,-20.264,365.784,114.258
1.385,-0.008,0.821,-19.775,300.964,110.352
1.315,-0.005,0.849,-16.663,238.525,113.220
1.203,0.040,0.824,-13.550,177.429,117.737
0.994,0.038,0.714,-4.578,129.700,117.798
0.869,-0.050,0.622,1.709,105.286,116.821
0.790,-0.116,0.537,-1.770,99.426,120.361
0.724,-0.128,0.446,-9.094,106.018,121.460
0.800,-0.116,0.515,-17.456,118.347,114.502
0.921,-0.068,0.588,-27.527,120.178,101.013
0.972,-0.008,0.599,-36.804,107.910,84.717
0.992,0.026,0.627,-44.128,87.769,66.040
1.018,0.053,0.666,-49.927,59.692,46.631
1.035,0.031,0.737,-55.969,24.597,29.541
1.045,-0.033,0.860,-65.979,-13.916,12.390
1.051,-0.038,0.903,-86.731,-56.091,-2.563
1.003,-0.031,0.882,-110.535,-97.473,-14.221
0.927,-0.002,0.825,-134.277,-134.521,-26.672

1.008,-1.119,0.428,54.688,86.792,-109.436
0.917,-1.221,0.465,41.626,62.988,-106.445
0.910,-1.250,0.475,22.339,58.289,-94.910
1.137,-1.290,0.585,-3.052,74.768,-68.176
1.490,-1.054,0.696,-27.100,88.501,-32.349
1.446,-0.795,0.540,-42.358,76.538,8.057
1.552,-0.862,0.572,-44.556,67.017,60.974
1.502,-0.947,0.546,-41.870,59.204,106.384
1.432,-0.926,0.467,-36.743,43.030,140.869
1.370,-0.925,0.507,-30.090,22.583,169.678
1.090,-0.802,0.466,-26.062,-5.981,181.885
0.841,-0.812,0.338,-24.536,-26.794,185.242
0.659,-0.922,0.172,-22.949,-30.212,184.509
0.598,-0.794,0.104,-18.921,-14.038,171.753
0.626,-0.533,0.086,-7.751,12.329,152.832
0.754,-0.396,0.155,8.484,36.804,138.306
0.762,-0.388,0.213,23.926,49.866,119.446
0.755,-0.442,0.228,35.034,56.274,99.854
0.832,-0.473,0.195,40.344,59.326,85.266
0.895,-0.472,0.199,39.124,59.387,78.003
0.947,-0.469,0.253,32.104,55.359,73.669
0.925,-0.466,0.255,21.606,45.959,69.397
0.979,-0.316,0.288,8.911,34.424,65.552
1.021,-0.051,0.285,-1.221,15.808,61.584
0.896,0.147,0.240,-4.456,-7.141,55.176
0.664,0.239,0.166,-2.625,-20.996,50.049
0.538,0.285,0.134,1.892,-17.029,45.837
0.520,0.280,0.118,8.484,1.770,40.283
0.656,0.224,0.168,15.686,27.039,33.813
0.801,0.072,0.241,20.020,45.227,27.588
0.927,0.014,0.281,18.677,49.011,21.362
0.990,-0.005,0.279,13.367,41.687,16.357
0.972,0.053,0.216,7.935,30.090,13.611
0.976,0.145,0.152,6.531,20.081,15.564
0.940,0.269,0.118,11.536,13.855,20.447
0.921,0.356,0.126,22.827,13.367,26.123
0.927,0.367,0.166,37.354,15.930,33.020
0.874,0.343,0.193,49.500,18.188,38.391
0.851,0.286,0.217,58.105,21.851,40.955
0.889,0.201,0.279,62.439,26.794,40.710
0.960,0.099,0.333,61.646,26.733,38.452
0.984,0.045,0.349,55.725,18.494,34.424
0.951,0.091,0.295,47.485,5.920,29.968
0.929,0.218,0.180,40.344,-4.395,26.123
0.970,0.398,0.075,35.889,-9.949,22.278
1.022,0.586,0.015,36.194,-14.587,18.738
1.039,0.750,0.027,44.617,-20.752,16.602
1.004,0.929,0.074,60.913,-27.710,17.639
1.017,0.993,0.162,83.435,-33.569,22.034
1.014,0.844,0.320,108.459,-39.185,29.053
0.944,0.616,0.452,126.709,-45.471,34.058
0.833,0.380,0.557,131.470,-48.035,34.851
0.770,0.182,0.681,119.629,-44.312,30.640
0.789,-0.027,0.751,98.022,-34.912,24.292
0.840,-0.113,0.734,69.153,-27.466,16.052
0.837,-0.016,0.674,36.804,-21.667,3.479
0.874,0.068,0.650,8.728,-13.855,-7.629
0.823,0.099,0.534,-10.925,-7.324,-16.846
0.789,0.224,0.526,-25.879,7.812,-24.170
0.764,0.272,0.632,-38.513,30.640,-26.550
0.826,0.288,0.642,-49.805,43.884,-30.762
0.872,0.351,0.467,-56.458,43.396,-39.124
0.875,0.331,0.274,-52.673,39.185,-46.265
0.956,0.276,0.192,-39.490,41.992,-57.800
0.947,0.178,0.178,-22.705,46.509,-69.336
0.974,0.132,0.092,-10.315,42.725,-84.045
0.969,0.100,0.041,2.869,36.743,-94.971
0.998,0.171,-0.050,19.165,29.602,-99.670
1.123,0.109,-0.119,42.175,18.616,-93.689
1.254,0.015,-0.147,62.988,5.310,-78.186
1.326,-0.102,-0.134,79.468,-14.465,-58.533
1.330,-0.210,-0.144,93.079,-43.457,-39.063
1.328,-0.306,-0.143,104.980,-76.782,-23.499
1.343,-0.356,-0.121,114.807,-108.521,-12.817
1.310,-0.352,-0.137,122.620,-138.245,-6.165
1.222,-0.311,-0.178,129.822,-163.818,-2.991
1.108,-0.268,-0.223,139.954,-183.167,-1.282
1.003,-0.272,-0.232,152.954,-192.627,-0.732
0.916,-0.291,-0.205,166.748,-192.505,-2.502
0.824,-0.335,-0.176,179.749,-185.852,-6.348
0.771,-0.382,-0.140,190.247,-174.255,-10.986
0.776,-0.408,-0.084,197.937,-159.790,-13.306
0.810,-0.464,-0.004,201.538,-146.973,-12.695
0.757,-0.601,0.087,196.228,-136.780,-9.705
0.619,-0.748,0.182,175.476,-122.070,-4.150
0.618,-0.913,0.265,135.803,-95.886,5.981
0.747,-0.903,0.316,83.557,-63.477,20.203
0.942,-0.828,0.397,33.630,-39.368,29.846
1.115,-0.754,0.461,-5.188,-35.339,35.278
1.223,-0.825,0.630,-32.104,-49.805,40.344
1.100,-0.602,0.674,-57.617,-78.125,38.452
1.097,-0.476,0.658,-74.951,-110.779,37.415
1.101,-0.384,0.780,-87.952,-135.803,48.584
1.027,-0.294,0.736,-101.929,-163.818,54.016
0.939,-0.205,0.693,-107.788,-189.148,61.462
0.833,-0.140,0.701,-106.384,-205.139,69.519
0.626,-0.163,0.673,-99.121,-207.886,73.486
0.641,-0.195,0.685,-93.750,-193.481,72.754
0.536,-0.146,0.669,-89.905,-175.598,69.336
0.505,-0.164,0.686,-86.792,-158.142,64.514
0.522,-0.141,0.690,-86.121,-141.724,58.960
0.538,-0.081,0.699,-86.914,-126.099,53.650
0.578,-0.032,0.719,-86.426,-111.755,50.781
0.637,-0.010,0.754,-85.510,-102.539,51.025
0.667,0.024,0.766,-86.487,-99.792,54.382
0.638,0.043,0.758,-87.708,-102.783,59.875
0.592,0.036,0.736,-86.975,-106.323,64.758
0.525,0.052,0.705,-84.900,-108.032,67.383
0.504,0.115,0.694,-80.933,-105.286,67.932
0.447,0.130,0.721,-74.524,-100.403,66.406
0.380,0.153,0.754,-66.528,-93.262,62.195
0.353,0.172,0.781,-58.533,-85.022,56.030
0.366,0.205,0.843,-51.453,-76.721,50.171
0.386,0.176,0.893,-46.204,-71.411,45.166
0.401,0.157,0.901,-46.265,-68.787,42.725
0.368,0.156,0.900,-49.805,-66.162,41.687
0.326,0.128,0.872,-53.650,-62.622,40.588
0.309,0.084,0.835,-57.678,-55.542,38.696
0.320,0.100,0.835,-62.439,-42.725,35.583

-0.493,-1.049,1.230,-167.297,49.133,120.728
-0.454,-1.039,1.264,-191.895,73.547,116.821
-0.325,-0.966,1.434,-215.332,99.548,110.107
-0.196,-0.811,1.592,-237.671,111.084,104.004
-0.119,-0.583,1.620,-257.751,103.638,99.365
-0.178,-0.356,1.516,-273.010,82.642,99.060
-0.276,-0.202,1.398,-280.029,57.129,100.708
-0.369,-0.182,1.259,-280.518,34.607,103.210
-0.490,-0.179,1.052,-283.264,20.020,106.079
-0.512,-0.146,0.877,-287.170,8.728,101.685
-0.490,-0.090,0.728,-292.236,-1.465,93.811
-0.496,0.004,0.614,-296.509,-11.475,86.609
-0.511,0.114,0.510,-297.180,-23.437,79.346
-0.522,0.193,0.402,-293.152,-37.903,71.045
-0.538,0.211,0.287,-285.095,-52.551,61.340
-0.568,0.174,0.200,-274.902,-62.500,50.232
-0.557,0.109,0.106,-264.771,-67.627,37.781
-0.493,0.089,0.074,-259.460,-70.313,20.691
-0.442,0.093,0.034,-256.775,-68.665,0.427
-0.438,0.118,-0.064,-256.836,-62.256,-20.569
-0.380,0.232,-0.111,-257.690,-51.514,-40.039
-0.278,0.386,-0.150,-252.991,-39.001,-56.396
-0.195,0.500,-0.259,-242.615,-29.358,-68.115
-0.142,0.544,-0.382,-231.384,-21.729,-75.928
-0.115,0.553,-0.481,-220.459,-14.282,-82.825
-0.093,0.537,-0.550,-209.900,-5.859,-89.478
-0.065,0.536,-0.611,-198.853,2.319,-96.313
-0.049,0.539,-0.681,-186.340,9.277,-103.271
-0.088,0.553,-0.739,-171.570,13.672,-112.488
-0.115,0.583,-0.785,-154.114,17.212,-125.244
-0.095,0.593,-0.827,-134.216,18.311,-139.282
-0.038,0.604,-0.840,-112.793,15.564,-154.419
0.005,0.636,-0.817,-90.515,7.202,-169.495
0.011,0.690,-0.800,-67.627,-7.812,-183.472
-0.013,0.722,-0.793,-44.250,-27.100,-195.068
-0.041,0.736,-0.781,-21.729,-47.485,-203.796
-0.050,0.738,-0.770,0.671,-66.467,-210.632
-0.052,0.725,-0.748,22.461,-82.153,-215.820
-0.114,0.591,-0.760,43.274,-93.628,-219.238
-0.117,0.632,-0.696,61.707,-98.999,-224.182
-0.142,0.507,-0.691,78.796,-98.877,-226.685
-0.127,0.464,-0.652,92.407,-91.980,-239.441
-0.133,0.557,-0.583,102.783,-81.543,-257.874
-0.056,0.632,-0.416,117.310,-67.444,-270.264
0.017,0.527,-0.459,134.888,-65.430,-280.518
0.093,0.452,-0.384,147.583,-57.434,-295.227
0.187,0.399,-0.323,154.785,-51.697,-316.895
0.329,0.356,-0.290,162.842,-47.058,-339.844
0.480,0.337,-0.256,171.143,-41.321,-360.840
0.659,0.355,-0.161,180.847,-34.180,-377.747
0.846,0.339,-0.054,193.054,-31.006,-387.329
0.936,0.283,0.038,205.994,-32.654,-389.648
1.003,0.187,0.161,217.407,-29.663,-385.559
1.200,0.039,0.231,227.478,-21.484,-376.831
1.329,-0.156,0.306,235.107,-8.789,-359.009
1.413,-0.202,0.414,236.572,2.747,-336.853
1.452,-0.283,0.443,237.122,10.864,-312.256
1.511,-0.295,0.427,238.831,21.973,-290.039
1.523,-0.259,0.341,240.295,34.851,-266.174
1.491,-0.240,0.299,241.699,50.293,-237.061
1.485,-0.345,0.264,245.239,63.782,-205.566
1.468,-0.492,0.285,249.023,76.721,-179.443
1.563,-0.653,0.366,244.934,88.135,-155.396
1.713,-0.755,0.482,229.187,84.473,-126.709
1.840,-0.778,0.510,208.130,55.786,-96.619
1.895,-0.855,0.472,191.223,12.878,-72.388
1.756,-0.906,0.402,179.810,-24.170,-56.641
1.488,-0.893,0.352,169.739,-45.044,-46.814
1.215,-0.805,0.320,159.302,-46.082,-39.673
1.042,-0.675,0.298,149.475,-28.564,-32.654
0.942,-0.532,0.286,139.343,3.296,-24.963
0.886,-0.392,0.273,132.812,44.861,-15.869
0.872,-0.313,0.269,132.812,88.257,-4.150
0.915,-0.333,0.286,137.207,127.197,6.897
0.953,-0.372,0.274,142.456,156.738,12.329
0.957,-0.424,0.271,146.912,179.443,12.024
0.949,-0.479,0.243,148.132,196.655,8.179
0.980,-0.518,0.242,146.790,209.534,1.282
1.031,-0.575,0.240,143.799,217.651,-6.958
1.062,-0.632,0.252,139.343,220.459,-16.663
1.122,-0.758,0.246,132.263,217.712,-25.635
1.176,-0.812,0.249,120.911,208.618,-36.987
1.194,-0.838,0.234,104.675,197.021,-47.424
1.229,-0.817,0.247,83.496,183.044,-53.467
1.254,-0.778,0.220,58.838,166.382,-53.345
1.288,-0.690,0.199,33.325,147.705,-46.875
1.334,-0.651,0.170,11.230,124.695,-35.278
1.365,-0.579,0.174,-5.981,99.304,-26.428
1.324,-0.503,0.132,-17.029,70.984,-15.686
1.283,-0.538,0.099,-23.193,42.908,-0.732
1.210,-0.589,0.086,-27.588,18.250,12.939
1.135,-0.607,0.051,-31.982,-1.648,22.949
1.072,-0.577,0.018,-33.936,-15.381,31.006
1.082,-0.623,0.031,-33.508,-21.790,41.382
1.097,-0.713,0.102,-36.865,-21.301,49.561
1.075,-0.728,0.153,-46.997,-20.569,58.105
1.105,-0.820,0.250,-62.256,-20.081,72.876
1.204,-0.798,0.282,-85.022,-24.170,92.773
1.297,-0.704,0.274,-106.750,-36.621,113.464
1.220,-0.696,0.284,-121.704,-50.537,134.766
1.080,-0.667,0.256,-128.906,-58.838,144.653
0.953,-0.609,0.193,-127.808,-57.495,138.306
0.835,-0.617,0.147,-121.765,-45.898,123.291
0.767,-0.579,0.183,-116.821,-30.090,100.891
0.764,-0.561,0.266,-115.845,-11.597,76.050
0.814,-0.499,0.278,-117.920,0.366,51.880
0.773,-0.442,0.261,-119.568,6.775,32.654
0.792,-0.308,0.216,-124.329,17.456,23.743
0.877,-0.191,0.227,-125.732,26.611,21.729
0.914,-0.108,0.224,-120.667,27.710,19.836
0.905,-0.066,0.203,-110.840,21.301,16.846
0.867,-0.043,0.156,-98.816,12.634,13.306
0.829,-0.004,0.104,-85.815,4.700,10.254
0.807,0.000,0.058,-73.425,-1.526,10.010
0.781,0.003,0.015,-61.829,-5.737,11.597
0.760,-0.018,-0.009,-51.697,-7.812,13.184
0.753,-0.029,-0.032,-43.884,-8.850,13.733
0.784,-0.015,-0.021,-38.147,-9.827,12.268
0.789,-0.013,-0.016,-32.532,-11.230,7.263

1.186,-1.127,0.707,24.597,-9.827,-53.528
1.264,-1.048,0.737,-31.860,-25.818,-66.528
1.196,-0.909,0.736,-91.064,-40.894,-72.998
1.218,-0.630,0.690,-146.301,-47.791,-65.796
1.318,-0.318,0.717,-190.063,-52.246,-44.922
1.394,-0.115,0.795,-221.558,-63.232,-14.954
1.460,-0.030,0.810,-244.690,-84.656,21.667
1.525,-0.031,0.729,-259.827,-114.380,60.791
1.540,-0.052,0.554,-267.029,-144.714,98.083
1.518,-0.036,0.339,-267.456,-164.673,132.629
1.452,-0.063,0.208,-260.925,-170.349,166.504
1.467,-0.170,0.156,-250.244,-167.908,195.862
1.535,-0.241,0.095,-239.197,-166.443,218.689
1.556,-0.215,0.041,-229.675,-168.884,235.107
1.520,-0.156,-0.039,-220.337,-176.208,246.460
1.492,-0.003,-0.129,-208.923,-183.228,254.456
1.440,0.181,-0.185,-190.430,-186.890,261.230
1.390,0.376,-0.201,-165.405,-185.852,265.991
1.315,0.510,-0.192,-135.193,-182.739,270.020
1.215,0.616,-0.171,-102.356,-178.345,271.240
1.104,0.683,-0.152,-68.604,-172.485,270.081
1.022,0.678,-0.148,-34.241,-165.527,265.320
0.945,0.635,-0.142,-0.671,-158.020,255.859
0.867,0.600,-0.143,30.518,-149.292,243.835
0.773,0.589,-0.119,58.533,-141.357,232.117
0.688,0.580,-0.046,82.031,-135.559,223.083
0.634,0.543,0.052,100.891,-133.972,215.576
0.581,0.514,0.136,115.173,-139.099,207.520
0.522,0.482,0.205,126.587,-149.658,197.449
0.459,0.432,0.260,135.559,-161.987,185.059
0.369,0.371,0.273,144.470,-174.744,167.053
0.254,0.305,0.254,155.151,-182.922,143.250
0.135,0.228,0.292,167.297,-182.190,115.234
0.030,0.141,0.329,178.223,-174.377,84.534
-0.063,0.049,0.357,186.829,-161.499,50.964
-0.161,-0.008,0.364,192.810,-142.639,13.855
-0.258,-0.074,0.403,197.449,-115.479,-24.353
-0.344,-0.187,0.460,197.876,-79.346,-60.059
-0.384,-0.343,0.542,187.195,-35.217,-87.341
-0.318,-0.466,0.662,161.255,13.916,-103.699
-0.094,-0.531,0.814,125.305,59.082,-111.267
0.212,-0.513,0.985,87.036,88.196,-110.535
0.493,-0.406,1.151,53.223,92.285,-101.807
0.600,-0.397,1.146,30.273,70.129,-86.182
0.809,-0.165,1.332,19.653,31.616,-72.815
0.635,-0.236,1.203,20.020,-23.804,-54.016
0.494,-0.245,1.167,22.339,-63.416,-38.574
0.339,-0.280,1.026,25.635,-93.933,-23.865
0.203,-0.236,0.966,28.687,-109.680,-12.329
0.114,-0.309,0.844,31.799,-114.807,0.854
0.098,-0.291,0.821,33.691,-112.366,12.146
0.064,-0.386,0.834,36.011,-106.079,26.123
0.036,-0.562,0.846,36.621,-105.042,35.156
0.061,-0.599,0.868,35.339,-108.643,30.518
0.068,-0.534,0.919,33.752,-111.572,20.020
-0.081,-0.553,0.866,29.541,-117.004,6.775
-0.159,-0.453,0.861,23.315,-113.586,-12.878
-0.188,-0.365,0.814,18.921,-106.140,-25.757
-0.209,-0.375,0.821,16.724,-94.360,-34.058
-0.093,-0.590,1.010,13.489,-82.825,-39.185
-0.074,-0.471,1.003,-1.343,-75.684,-36.255
-0.146,-0.399,1.115,-10.620,-71.289,-31.067
-0.062,-0.407,1.091,-18.250,-75.684,-28.381
-0.056,-0.369,0.964,-20.752,-85.022,-24.353
-0.088,-0.308,0.954,-19.348,-91.614,-20.569
-0.122,-0.334,0.963,-15.259,-98.877,-16.113
-0.103,-0.364,0.867,-11.047,-110.962,-13.062
-0.112,-0.339,0.838,-4.761,-120.361,-10.071
-0.145,-0.293,0.736,4.150,-130.066,-5.737
-0.113,-0.200,0.708,17.944,-141.052,2.441
-0.322,-0.196,0.686,37.170,-152.649,13.794
-1.207,-0.297,0.942,47.607,-127.380,18.311
-1.464,-0.467,1.117,41.931,-47.913,2.441
-1.221,-0.516,1.060,34.790,22.522,-20.142
-0.830,-0.389,1.080,32.349,85.266,-40.710
-0.393,-0.140,0.969,34.973,109.680,-60.791
0.028,-0.037,0.898,44.678,98.206,-58.105
0.119,-0.092,0.920,53.101,63.354,-39.551
-0.098,-0.129,1.012,54.749,34.058,-20.691
-0.113,-0.363,1.068,51.880,20.752,6.531
-0.164,-0.422,1.133,44.434,15.625,23.437
-0.179,-0.392,1.058,36.133,12.085,30.090
-0.199,-0.357,0.994,31.677,5.920,31.616
-0.280,-0.296,0.945,29.968,-0.610,25.818
-0.300,-0.216,0.920,28.137,-3.479,18.127
-0.241,-0.168,0.976,27.161,-3.784,12.451
-0.159,-0.169,0.999,29.480,-3.845,8.240
-0.045,-0.224,1.040,35.461,-4.456,8.057
0.023,-0.237,1.134,42.664,-5.493,11.169
0.000,-0.238,1.130,49.561,-9.338,14.282
-0.050,-0.262,1.078,55.237,-13.733,15.015
-0.068,-0.232,1.003,57.373,-14.771,14.282
-0.057,-0.191,0.939,56.885,-13.367,13.672
-0.040,-0.157,0.870,55.786,-10.559,13.428
-0.035,-0.173,0.831,56.396,-6.287,13.062
-0.021,-0.181,0.781,56.396,-0.244,11.841
0.010,-0.183,0.788,55.969,7.324,9.949
0.040,-0.180,0.785,54.321,14.954,10.315
0.039,-0.217,0.822,53.589,20.386,9.705
0.060,-0.250,0.852,51.514,24.658,7.874
0.076,-0.276,0.871,50.415,27.222,2.319
0.124,-0.246,0.843,50.354,31.006,-4.456
0.079,-0.222,0.753,54.565,33.081,-13.855
0.062,-0.227,0.698,64.575,33.264,-26.855
0.016,-0.301,0.776,71.777,40.344,-35.767
0.070,-0.408,0.930,66.406,59.326,-35.583
0.183,-0.292,1.038,52.429,77.698,-24.475
0.262,-0.216,0.997,41.260,82.397,-19.226
0.404,-0.378,1.130,40.344,72.327,-15.869
0.370,-0.404,1.119,29.236,54.749,-7.141
0.334,-0.411,1.059,15.442,32.288,-5.188
0.252,-0.372,0.932,5.127,15.259,-6.165
0.131,-0.422,0.879,1.099,8.362,-10.681
0.091,-0.449,0.860,-0.916,13.184,-17.090
0.145,-0.417,0.870,-2.869,21.851,-23.193
0.224,-0.401,0.894,-5.859,29.358,-26.306
0.256,-0.434,0.954,-7.507,35.889,-25.757
0.280,-0.444,0.991,-8.728,35.217,-26.367
0.322,-0.420,0.962,-11.047,24.292,-29.358

-2.042,-0.834,0.518,103.516,-161.194,75.073
-1.628,-0.473,0.382,101.318,-74.097,62.805
-0.972,-0.216,0.463,114.258,-2.502,23.621
-0.846,-0.392,0.389,131.592,11.475,4.822
-0.739,-0.483,0.577,128.540,28.259,18.127
-0.547,-0.450,0.550,111.145,32.593,34.485
-0.414,-0.459,0.562,90.027,31.738,51.086
-0.384,-0.427,0.602,66.101,29.236,70.618
-0.479,-0.375,0.619,44.373,24.109,88.074
-0.545,-0.345,0.591,27.161,21.729,103.333
-0.639,-0.451,0.553,18.860,21.851,116.272
-0.755,-0.648,0.656,17.456,28.442,119.873
-0.795,-0.760,0.776,16.418,34.180,108.215
-0.756,-0.765,0.799,16.846,31.921,88.257
-0.641,-0.683,0.778,21.423,24.658,68.909
-0.543,-0.606,0.821,32.288,16.602,61.584
-0.612,-0.617,0.872,49.744,8.606,65.125
-0.669,-0.715,0.860,66.711,1.343,67.078
-0.629,-0.780,0.820,78.430,-4.456,64.575
-0.615,-0.786,0.802,82.397,-7.141,60.120
-0.630,-0.818,0.813,78.064,-5.920,55.603
-0.608,-0.873,0.845,66.772,-2.197,49.133
-0.611,-0.876,0.854,50.171,0.427,42.603
-0.593,-0.845,0.875,30.579,2.441,38.513
-0.593,-0.788,0.844,9.277,3.113,36.743
-0.581,-0.703,0.830,-13.550,7.935,38.147
-0.586,-0.615,0.782,-37.903,16.296,41.687
-0.545,-0.513,0.766,-60.852,26.978,46.387
-0.514,-0.492,0.727,-79.468,35.400,53.406
-0.480,-0.443,0.709,-93.689,45.654,57.068
-0.428,-0.371,0.708,-105.591,55.298,61.218
-0.400,-0.324,0.690,-116.455,64.148,67.627
-0.372,-0.284,0.692,-126.404,72.998,75.073
-0.331,-0.251,0.694,-137.573,80.688,83.984
-0.311,-0.195,0.664,-150.696,87.708,94.360
-0.340,-0.100,0.619,-161.316,96.497,106.384
-0.370,0.005,0.593,-167.480,107.727,119.141
-0.360,0.062,0.594,-166.321,119.812,132.202
-0.330,0.059,0.602,-158.447,130.981,144.470
-0.287,0.073,0.598,-148.254,140.259,152.649
-0.247,0.118,0.609,-138.916,148.315,157.166
-0.210,0.158,0.622,-131.531,154.785,161.804
-0.217,0.159,0.615,-126.404,159.363,167.114
-0.256,0.176,0.626,-120.667,163.818,168.823
-0.281,0.224,0.652,-111.694,168.152,167.053
-0.267,0.262,0.676,-98.083,171.143,163.208
-0.214,0.288,0.717,-80.017,172.302,156.799
-0.161,0.316,0.760,-59.937,170.227,151.184
-0.147,0.331,0.784,-42.236,164.612,150.757
-0.148,0.317,0.810,-26.062,156.555,151.917
-0.154,0.266,0.838,-11.292,148.254,152.649
-0.144,0.225,0.893,1.953,139.832,151.123
-0.110,0.196,0.939,12.085,129.211,147.400
-0.061,0.173,0.971,18.738,115.662,141.235
-0.011,0.128,1.006,22.827,100.769,134.827
-0.009,0.080,1.021,23.743,83.923,128.601
-0.037,0.075,1.043,22.278,66.772,121.765
-0.052,0.073,1.064,19.836,50.964,115.417
-0.043,0.058,1.075,16.785,36.011,111.145
-0.039,0.061,1.108,12.878,22.705,106.934
-0.077,0.067,1.114,8.301,10.742,104.614
-0.122,0.062,1.106,3.052,2.930,103.577
-0.138,0.057,1.091,-2.686,0.183,101.624
-0.119,0.059,1.074,-7.874,2.686,99.121
-0.081,0.072,1.036,-12.695,7.080,96.497
-0.042,0.087,1.004,-15.625,11.841,93.323
0.005,0.089,0.989,-14.404,17.334,89.600
0.040,0.102,0.975,-10.193,21.179,86.304
0.064,0.120,0.958,-2.625,22.522,83.923
0.096,0.133,0.944,8.118,21.790,82.397
0.136,0.128,0.939,21.912,18.677,81.421
0.180,0.089,0.944,37.781,13.367,80.383
0.261,0.045,0.927,52.673,5.859,79.102
0.286,-0.077,0.993,65.674,-4.883,78.064
0.209,-0.117,1.062,70.984,-19.714,73.608
0.174,-0.140,1.079,68.542,-32.410,73.181
0.155,-0.298,0.950,62.866,-43.579,73.669
-0.104,-0.237,0.915,54.443,-40.222,60.974
-0.058,-0.172,1.108,42.419,-21.667,58.350
0.048,-0.123,1.024,28.015,-27.649,58.655
-0.031,-0.191,0.913,15.198,-37.109,60.425
-0.258,-0.209,0.898,2.563,-26.855,59.387
-0.374,-0.175,0.916,-11.902,-3.906,56.702
-0.347,-0.089,0.864,-28.076,21.484,57.190
-0.219,-0.037,0.888,-40.405,42.053,61.340
-0.026,-0.160,1.089,-41.138,50.415,59.631
0.110,-0.127,1.430,-29.907,29.114,46.204
0.130,0.056,1.577,-16.113,-23.315,38.025
-0.009,0.159,1.529,5.859,-74.341,40.527
-0.416,0.068,1.177,26.855,-92.590,47.302
-0.581,-0.062,1.027,38.635,-65.735,50.171
-0.428,-0.193,0.975,41.809,-20.325,50.049
-0.221,-0.187,0.960,38.025,5.859,43.884
-0.150,-0.141,0.916,31.189,13.000,33.081
-0.179,-0.118,0.854,22.217,6.409,24.170
-0.233,-0.126,0.847,15.381,-1.831,19.348
-0.258,-0.139,0.911,12.085,-7.019,15.930
-0.298,-0.181,0.926,9.460,-10.803,13.184
-0.242,-0.175,1.041,8.972,-9.949,10.742
-0.255,-0.302,1.022,7.751,-11.169,11.780
-0.343,-0.392,0.935,4.333,-7.263,7.202
-0.260,-0.314,1.038,5.249,10.986,-1.709
-0.138,-0.377,1.058,5.066,19.836,-4.028
-0.183,-0.418,0.802,-1.404,15.869,-9.155
-0.159,-0.400,0.915,0.549,25.879,-17.822
-0.066,-0.407,1.025,2.380,25.757,-22.888
-0.045,-0.477,0.924,-1.831,10.620,-23.621
-0.083,-0.541,0.861,-4.761,4.578,-24.658
-0.104,-0.580,0.855,-5.066,9.216,-27.893
-0.108,-0.621,0.818,-5.493,14.587,-33.875
-0.078,-0.604,0.849,-5.676,21.301,-42.542
-0.034,-0.540,0.904,-4.333,24.414,-47.058
-0.060,-0.534,0.889,-3.296,21.240,-44.312
-0.081,-0.505,0.913,-0.549,17.212,-40.283
-0.068,-0.537,0.902,2.075,11.047,-34.851
-0.063,-0.616,0.870,4.150,5.920,-31.616
-0.066,-0.640,0.865,5.432,6.470,-31.921
-0.019,-0.630,0.888,5.188,11.292,-32.959
0.044,-0.608,0.870,2.747,15.259,-32.288

-0.968,-0.963,1.048,101.624,-120.361,25.757
-1.153,-0.999,1.129,42.358,-110.779,19.958
-1.096,-0.972,1.113,-24.780,-96.252,12.451
-0.981,-0.834,1.074,-90.149,-78.308,13.611
-0.866,-0.640,1.081,-140.625,-70.251,11.414
-0.970,-0.403,0.776,-172.119,-76.599,6.470
-0.582,-0.334,0.280,-157.776,-75.867,13.123
-0.410,0.080,0.563,-111.633,-49.133,27.710
-0.581,-0.035,0.667,-79.651,-28.809,33.997
-0.688,-0.330,0.696,-59.509,-32.654,39.063
-0.833,-0.400,0.732,-53.528,-39.063,28.442
-0.917,-0.309,0.655,-58.777,-46.143,16.357
-0.985,-0.170,0.526,-69.336,-51.880,12.878
-0.998,-0.072,0.414,-76.416,-54.565,23.376
-1.012,-0.022,0.416,-77.637,-55.725,39.490
-1.177,-0.016,0.478,-76.172,-50.476,51.758
-1.194,-0.051,0.470,-72.510,-43.213,54.626
-1.138,-0.109,0.490,-67.139,-35.339,52.307
-1.116,-0.107,0.541,-66.345,-25.452,44.067
-1.057,-0.104,0.577,-69.519,-23.254,34.912
-1.031,-0.135,0.550,-77.271,-23.376,32.288
-0.925,-0.057,0.596,-91.553,-19.531,38.452
-0.787,-0.071,0.511,-99.060,-20.264,49.255
-0.716,-0.141,0.430,-102.844,-26.794,60.730
-0.665,-0.158,0.336,-109.436,-32.593,67.017
-0.686,-0.219,0.249,-114.624,-37.903,67.688
-0.753,-0.322,0.168,-123.047,-37.292,63.965
-0.809,-0.293,0.143,-137.634,-26.978,58.228
-0.745,-0.215,0.141,-150.452,-16.052,49.683
-0.688,-0.075,0.113,-157.898,-10.803,40.344
-0.699,0.131,0.138,-158.325,-11.108,32.959
-0.731,0.312,0.172,-149.902,-14.038,28.687
-0.762,0.425,0.191,-134.583,-18.860,27.283
-0.803,0.378,0.197,-114.929,-24.719,26.978
-0.808,0.326,0.195,-97.473,-28.503,25.513
-0.813,0.390,0.213,-85.266,-28.198,18.677
-0.838,0.468,0.208,-73.547,-25.818,7.080
-0.863,0.523,0.177,-58.716,-24.902,-7.629
-0.885,0.538,0.172,-41.077,-25.330,-22.827
-0.878,0.529,0.183,-23.071,-26.367,-37.048
-0.806,0.540,0.214,-6.409,-29.114,-50.598
-0.716,0.595,0.217,7.751,-35.522,-60.974
-0.729,0.685,0.213,20.813,-41.748,-66.711
-0.736,0.698,0.186,34.363,-43.701,-66.345
-0.776,0.662,0.355,44.556,-35.950,-60.913
-1.041,0.527,0.500,40.588,-19.470,-58.533
-0.933,0.499,0.467,27.222,-9.155,-57.983
-0.871,0.574,0.526,18.250,-10.315,-55.603
-0.950,0.610,0.583,9.460,-9.277,-54.138
-0.954,0.656,0.571,2.502,-6.958,-55.115
-1.019,0.629,0.643,-5.127,-6.775,-56.641
-1.019,0.626,0.537,-15.259,-9.521,-64.331
-0.853,0.725,0.553,-21.423,-7.507,-64.697
-0.697,0.725,0.543,-23.132,-11.963,-57.495
-0.678,0.738,0.452,-23.804,-26.733,-52.734
-0.834,0.735,0.347,-21.484,-40.955,-50.232
-0.958,0.710,0.302,-17.517,-40.283,-47.852
-0.953,0.661,0.291,-13.550,-24.292,-41.748
-0.929,0.543,0.302,-11.475,-1.709,-36.255
-0.837,0.450,0.358,-13.916,18.799,-34.607
-0.784,0.396,0.400,-20.630,33.325,-33.691
-0.681,0.356,0.446,-28.748,40.100,-30.884
-0.694,0.312,0.531,-34.485,32.593,-28.564
-0.655,0.399,0.650,-44.006,27.649,-23.376
-0.734,0.442,0.609,-56.213,16.357,-14.282
-0.838,0.484,0.530,-63.049,1.648,-7.507
-0.939,0.482,0.460,-64.026,-6.592,-1.343
-0.972,0.399,0.459,-63.843,-8.545,5.737
-1.012,0.346,0.519,-65.918,-5.127,9.949
-1.099,0.286,0.545,-70.557,-0.732,7.568
-1.191,0.286,0.505,-76.111,3.174,-1.831
-1.255,0.345,0.476,-81.848,13.611,-14.709
-1.152,0.430,0.472,-85.327,32.654,-28.809
-0.985,0.466,0.580,-82.764,50.659,-41.748
-0.902,0.411,0.699,-78.674,60.852,-52.551
-0.822,0.520,0.712,-78.369,62.317,-62.012
-0.712,0.629,0.683,-78.369,57.800,-63.293
-0.688,0.555,0.670,-72.876,48.157,-55.176
-0.750,0.431,0.669,-69.031,38.086,-44.250
-0.833,0.397,0.662,-71.167,35.217,-36.194
-0.786,0.364,0.694,-76.355,41.443,-30.945
-0.553,0.292,0.777,-80.811,45.776,-27.161
-0.524,0.398,0.768,-86.670,38.574,-26.917
-0.582,0.476,0.715,-91.431,30.273,-28.748
-0.568,0.539,0.671,-91.614,30.823,-30.090
-0.543,0.557,0.661,-88.196,32.593,-32.227
-0.561,0.589,0.649,-85.999,34.424,-34.302
-0.589,0.605,0.636,-84.106,36.560,-37.476
-0.603,0.592,0.612,-83.801,40.344,-40.894
-0.611,0.559,0.575,-86.426,45.288,-42.786
-0.590,0.589,0.546,-92.651,49.561,-42.908
-0.507,0.654,0.529,-100.342,51.453,-42.236
-0.499,0.655,0.491,-106.506,50.537,-42.969
-0.475,0.742,0.406,-110.596,50.354,-49.011
-0.417,0.805,0.339,-109.802,52.734,-59.265
-0.436,0.803,0.289,-106.201,55.603,-69.336
-0.401,0.828,0.253,-104.553,59.692,-77.942
-0.365,0.869,0.247,-104.126,62.317,-82.397
-0.326,0.849,0.232,-106.140,61.401,-80.566
-0.356,0.843,0.161,-110.535,56.091,-74.280
-0.366,0.890,0.103,-116.272,50.781,-66.101
-0.401,0.905,0.033,-120.728,47.058,-58.838
-0.445,0.928,-0.060,-122.986,44.617,-54.993
-0.466,0.916,-0.147,-121.887,44.861,-54.749
-0.458,0.888,-0.222,-119.507,48.218,-56.641
-0.450,0.879,-0.273,-115.784,52.490,-59.082
-0.439,0.855,-0.326,-111.389,56.396,-59.570
-0.418,0.858,-0.330,-106.995,59.143,-56.152
-0.419,0.834,-0.318,-103.333,57.312,-47.302
-0.472,0.796,-0.346,-101.379,50.415,-35.889
-0.534,0.739,-0.401,-100.220,44.434,-25.391
-0.551,0.700,-0.440,-98.816,42.114,-17.944
-0.557,0.698,-0.461,-96.069,41.931,-14.587
-0.593,0.736,-0.467,-91.858,42.480,-13.062
-0.599,0.761,-0.475,-85.449,43.274,-9.460
-0.592,0.745,-0.441,-78.125,43.152,-2.563
-0.568,0.726,-0.389,-71.533,39.490,6.958
-0.626,0.702,-0.369,-65.857,31.921,15.808
-0.741,0.625,-0.402,-61.035,26.794,22.217

1.549,-0.980,0.336,-10.498,31.738,35.828
1.120,-1.231,0.167,-15.747,-47.180,47.607
0.935,-1.119,0.021,-39.185,-83.252,55.969
0.611,-1.217,-0.115,-56.335,-96.619,53.833
0.724,-1.074,-0.167,-63.965,-87.341,50.171
0.799,-1.031,-0.195,-60.303,-74.707,47.607
0.865,-0.893,-0.151,-49.683,-63.232,40.527
0.926,-0.749,-0.083,-33.813,-58.960,40.344
0.855,-0.716,-0.020,-14.160,-64.941,45.654
