aX,aY,aZ,gX,gY,gZ
1.135,-1.020,-0.832,-400.574,170.227,-213.867
1.314,-0.937,-0.940,-385.925,155.457,-205.017
1.444,-0.796,-1.002,-364.990,122.375,-181.885
1.437,-0.678,-1.068,-335.327,79.712,-149.658
1.333,-0.575,-1.117,-297.791,38.818,-114.990
1.245,-0.449,-1.112,-255.310,6.592,-80.566
1.175,-0.368,-1.089,-204.285,-20.569,-46.692
1.092,-0.354,-1.142,-150.269,-45.410,-18.188
0.970,-0.387,-1.145,-99.976,-55.359,2.502
0.899,-0.495,-1.093,-53.711,-51.086,16.113
0.880,-0.604,-1.055,-15.991,-38.879,19.653
0.938,-0.670,-0.959,10.681,-22.156,12.756
0.928,-0.766,-0.936,30.090,-7.507,-1.343
1.020,-0.770,-0.851,39.856,9.338,-19.836
1.026,-0.756,-0.861,44.861,22.766,-36.621
1.018,-0.707,-0.802,46.692,36.133,-52.673
1.040,-0.578,-0.732,44.312,48.706,-66.162
1.068,-0.466,-0.664,43.091,60.059,-73.669
1.103,-0.368,-0.620,42.542,67.993,-76.477
1.118,-0.318,-0.582,42.664,72.021,-73.853
1.135,-0.265,-0.567,42.419,72.632,-68.359
1.179,-0.229,-0.563,43.640,69.519,-60.669
1.179,-0.221,-0.585,46.692,62.378,-51.514
1.157,-0.195,-0.616,52.368,54.382,-43.152
1.129,-0.168,-0.649,60.181,48.218,-35.828
1.094,-0.172,-0.668,70.496,45.044,-29.358
1.054,-0.185,-0.689,81.787,45.288,-24.963
1.040,-0.190,-0.707,93.201,49.194,-22.583
1.032,-0.238,-0.741,105.469,55.176,-21.362
1.036,-0.320,-0.786,117.371,62.683,-22.278
1.059,-0.263,-0.798,127.136,71.655,-26.367
1.096,-0.291,-0.779,138.367,77.332,-26.855
1.142,-0.268,-0.775,149.963,76.538,-26.367
1.127,-0.255,-0.745,160.767,69.885,-23.193
1.140,-0.194,-0.718,170.532,60.791,-19.958
1.176,-0.180,-0.697,183.289,46.570,-13.611
1.155,-0.220,-0.683,196.838,31.372,-5.310
1.058,-0.254,-0.707,207.764,16.235,2.869
1.028,-0.312,-0.740,217.346,5.920,12.939
1.020,-0.363,-0.748,224.976,-1.221,18.311
0.960,-0.366,-0.753,230.286,-6.653,17.456
0.906,-0.355,-0.758,233.704,-9.705,14.404
0.869,-0.309,-0.749,237.244,-10.315,11.658
0.843,-0.256,-0.714,241.516,-9.399,8.545
0.816,-0.263,-0.691,247.559,-8.179,5.310
0.799,-0.247,-0.671,253.906,-7.385,0.732
0.795,-0.208,-0.623,259.583,-6.042,-3.906
0.781,-0.216,-0.566,267.212,-5.676,-7.996
0.773,-0.244,-0.518,274.109,-6.836,-11.353
0.772,-0.267,-0.469,279.175,-7.568,-15.198
0.748,-0.290,-0.436,283.081,-8.362,-19.653
0.735,-0.320,-0.420,285.217,-8.545,-22.827
0.761,-0.315,-0.394,285.950,-7.324,-26.306
0.789,-0.296,-0.363,287.292,-6.531,-30.457
0.799,-0.292,-0.338,290.894,-7.812,-34.851
0.846,-0.263,-0.279,296.265,-8.850,-39.185
0.910,-0.232,-0.189,303.711,-10.681,-42.236
0.943,-0.243,-0.139,312.683,-16.602,-43.396
0.927,-0.255,-0.113,320.435,-23.804,-43.823
0.925,-0.257,-0.071,326.843,-28.137,-44.373
0.913,-0.291,-0.042,332.336,-29.175,-44.495
0.906,-0.328,0.000,334.717,-28.931,-43.884
0.934,-0.315,0.098,334.412,-27.771,-43.762
0.964,-0.343,0.169,333.618,-27.771,-43.152
0.971,-0.398,0.196,327.637,-31.616,-40.833
0.989,-0.422,0.271,315.125,-36.865,-37.720
1.017,-0.425,0.334,298.584,-43.518,-34.607
1.002,-0.445,0.380,275.513,-53.711,-29.785
0.968,-0.466,0.419,245.117,-63.599,-23.926
0.918,-0.413,0.451,210.876,-69.031,-19.043
0.877,-0.317,0.497,178.467,-69.275,-15.381
0.822,-0.235,0.529,153.320,-63.965,-11.841
0.793,-0.196,0.539,134.583,-54.688,-8.179
0.789,-0.173,0.540,119.995,-42.053,-5.615
0.787,-0.158,0.537,107.361,-27.893,-3.113
0.795,-0.140,0.538,94.482,-13.062,-0.793
0.826,-0.135,0.545,81.909,0.549,0.244
0.900,-0.122,0.545,69.275,11.353,-0.427
0.987,-0.116,0.555,57.190,16.663,-1.221
1.047,-0.104,0.578,46.021,14.343,-1.282
1.102,-0.093,0.590,35.950,4.150,-0.610
1.135,-0.086,0.566,24.597,-12.817,0.916
1.106,-0.060,0.531,12.268,-33.203,1.953
1.032,-0.052,0.471,0.488,-50.842,2.869
0.939,-0.034,0.399,-10.132,-60.913,2.563
0.846,-0.030,0.320,-19.226,-59.387,0.854
0.802,-0.030,0.255,-27.710,-45.959,-1.404
0.792,-0.028,0.214,-35.828,-24.170,-3.174
0.819,-0.012,0.178,-42.358,-0.732,-5.188
0.892,0.011,0.151,-47.241,20.752,-7.202
0.972,0.035,0.145,-49.927,37.048,-8.606
1.044,0.045,0.142,-49.561,45.288,-9.949
1.115,0.045,0.138,-47.485,44.128,-10.803
1.179,0.041,0.129,-44.861,34.973,-10.132
1.224,0.041,0.127,-41.992,19.653,-8.423
1.204,0.074,0.108,-38.757,0.916,-5.981
1.144,0.092,0.065,-34.302,-16.052,-1.282
1.140,0.032,0.087,-28.809,-28.503,3.479
1.067,0.076,0.033,-26.855,-39.124,5.737
1.003,0.040,0.031,-23.682,-40.527,9.277
0.963,0.053,0.017,-22.339,-38.330,8.728
0.914,0.063,0.007,-21.729,-30.762,8.362
0.883,0.068,0.011,-21.240,-18.250,7.019
0.873,0.073,0.012,-20.752,-4.150,4.700
0.891,0.074,0.026,-20.081,10.559,1.709
0.920,0.079,0.035,-20.020,22.888,-1.160
0.960,0.084,0.045,-19.165,30.884,-3.052
1.015,0.090,0.063,-18.555,33.997,-4.089
1.052,0.091,0.074,-17.517,30.701,-4.395
1.065,0.099,0.071,-16.174,22.949,-4.333
1.069,0.107,0.062,-14.526,13.000,-3.845
1.052,0.103,0.043,-12.573,3.113,-3.296
1.025,0.104,0.023,-10.193,-4.578,-2.563
1.001,0.103,0.017,-8.179,-9.216,-1.404
0.988,0.098,0.010,-6.653,-10.620,-0.977
0.971,0.095,0.002,-5.859,-9.277,-1.099
0.956,0.096,-0.014,-5.676,-5.127,-1.221
0.966,0.096,-0.010,-4.944,0.671,-0.793
0.981,0.096,0.003,-4.517,6.042,-0.122

1.084,-0.366,1.272,-188.782,24.353,21.667
1.113,-0.436,1.346,-214.050,11.230,24.231
1.096,-0.516,1.363,-241.394,-4.578,27.649
1.009,-0.604,1.319,-268.921,-19.958,31.555
0.943,-0.679,1.255,-296.692,-31.677,34.546
0.884,-0.739,1.199,-324.829,-38.635,36.133
0.826,-0.801,1.126,-351.624,-41.626,36.194
0.760,-0.869,1.033,-377.258,-40.527,35.095
0.713,-0.972,0.912,-403.320,-35.645,32.776
0.693,-1.120,0.776,-431.580,-28.564,29.968
0.715,-1.241,0.664,-464.172,-20.630,25.940
0.703,-1.366,0.521,-499.634,-12.085,19.836
0.667,-1.495,0.343,-536.072,2.808,8.484
0.653,-1.444,0.172,-572.144,24.536,-5.554
0.620,-1.357,0.037,-597.900,51.208,-16.541
0.562,-1.335,-0.171,-610.413,77.698,-25.024
0.580,-1.354,-0.385,-611.877,105.286,-31.860
0.650,-1.410,-0.580,-604.187,131.958,-38.025
0.742,-1.456,-0.778,-590.698,152.527,-46.143
0.866,-1.502,-0.926,-573.059,162.720,-53.040
0.981,-1.532,-1.122,-550.659,156.433,-50.964
1.063,-1.549,-1.289,-521.423,134.216,-40.222
1.085,-1.514,-1.453,-487.488,97.534,-27.710
1.078,-1.341,-1.580,-446.167,54.077,-17.334
1.040,-1.147,-1.633,-393.738,11.108,-7.629
0.977,-0.987,-1.639,-330.933,-27.466,0.122
0.874,-0.905,-1.592,-259.338,-56.580,5.920
0.826,-0.912,-1.538,-182.617,-70.923,7.996
0.846,-0.968,-1.467,-109.741,-72.876,8.484
0.879,-1.012,-1.370,-44.067,-65.186,8.240
0.938,-1.019,-1.270,11.536,-52.551,7.507
1.025,-1.096,-1.154,58.960,-39.612,7.080
1.089,-1.139,-1.042,93.140,-29.297,6.592
1.112,-1.116,-0.967,114.624,-24.048,5.432
1.100,-1.053,-0.928,128.052,-22.766,4.028
1.074,-0.903,-0.878,135.132,-22.339,2.502
1.054,-0.783,-0.831,142.639,-21.362,4.761
1.023,-0.706,-0.817,150.513,-21.912,9.094
0.973,-0.611,-0.785,155.457,-21.484,11.536
0.941,-0.523,-0.759,159.119,-19.775,13.184
0.891,-0.476,-0.763,164.795,-18.494,15.259
0.842,-0.448,-0.784,170.532,-15.869,17.639
0.823,-0.426,-0.801,176.514,-11.841,19.104
0.813,-0.392,-0.805,182.007,-6.958,17.456
0.810,-0.375,-0.805,188.110,-1.282,13.123
0.814,-0.362,-0.818,194.458,4.089,6.897
0.818,-0.331,-0.834,201.782,8.484,-0.488
0.827,-0.322,-0.845,210.266,12.268,-7.263
0.844,-0.349,-0.862,220.398,14.648,-13.672
0.873,-0.382,-0.866,229.248,15.137,-18.311
0.894,-0.377,-0.842,235.046,13.428,-21.240
0.908,-0.360,-0.788,237.976,10.925,-22.156
0.940,-0.373,-0.735,239.624,6.042,-21.362
0.956,-0.365,-0.709,239.014,-1.160,-19.287
0.976,-0.334,-0.657,238.037,-7.629,-18.677
0.964,-0.281,-0.618,237.549,-15.015,-20.630
0.924,-0.286,-0.608,240.112,-22.278,-21.423
0.887,-0.296,-0.619,242.981,-26.917,-22.522
0.882,-0.264,-0.594,246.216,-27.222,-24.658
0.912,-0.248,-0.552,249.451,-25.146,-25.574
0.954,-0.242,-0.498,253.357,-25.757,-22.949
0.979,-0.248,-0.441,257.812,-28.625,-19.775
0.989,-0.244,-0.387,261.292,-33.752,-18.555
0.989,-0.229,-0.340,264.343,-39.429,-18.250
0.971,-0.235,-0.306,267.822,-45.105,-17.151
0.938,-0.211,-0.267,270.630,-47.302,-15.503
0.908,-0.204,-0.213,273.193,-44.922,-14.587
0.912,-0.229,-0.162,275.146,-38.879,-13.489
0.943,-0.210,-0.081,274.841,-31.433,-13.733
0.961,-0.204,-0.002,273.193,-25.818,-14.404
0.965,-0.249,0.060,268.982,-23.132,-13.550
0.972,-0.265,0.120,259.827,-23.193,-11.536
0.979,-0.261,0.156,248.474,-26.245,-9.155
0.967,-0.306,0.170,235.229,-31.921,-6.042
0.925,-0.334,0.177,216.064,-37.659,-3.479
0.860,-0.303,0.180,192.871,-41.626,-1.953
0.802,-0.224,0.185,170.349,-40.649,-1.953
0.783,-0.155,0.192,153.625,-34.363,-3.174
0.808,-0.091,0.215,142.578,-26.550,-5.188
0.859,-0.037,0.259,138.184,-20.142,-8.240
0.908,-0.037,0.284,138.123,-17.700,-11.169
0.949,-0.051,0.296,138.672,-18.433,-13.367
0.977,-0.059,0.307,136.719,-21.790,-14.282
0.985,-0.080,0.290,133.118,-27.832,-13.855
0.962,-0.111,0.251,127.197,-34.729,-12.390
0.924,-0.122,0.213,118.408,-38.818,-10.193
0.893,-0.101,0.202,108.948,-37.659,-7.996
0.881,-0.092,0.197,101.257,-31.921,-6.775
0.880,-0.071,0.209,93.262,-24.170,-6.042
0.904,-0.033,0.233,86.731,-15.564,-5.798
0.934,-0.019,0.256,82.825,-9.094,-5.798
0.958,-0.008,0.276,80.017,-5.554,-5.615
0.972,-0.009,0.280,77.209,-5.188,-5.798
0.976,-0.022,0.273,74.341,-6.775,-6.287
0.971,-0.038,0.266,69.824,-8.240,-6.653
0.964,-0.051,0.250,64.453,-9.277,-6.775
0.957,-0.051,0.233,58.289,-9.583,-6.958
0.927,-0.058,0.204,52.124,-8.545,-7.446
0.915,-0.065,0.182,45.837,-4.272,-8.423
0.928,-0.055,0.174,38.818,2.747,-9.338
0.956,-0.038,0.174,31.677,10.376,-9.705
0.997,-0.017,0.181,26.489,15.808,-9.827
1.030,-0.007,0.178,22.949,17.395,-10.071
1.057,0.001,0.169,20.264,14.648,-10.071
1.070,0.015,0.162,19.409,9.399,-9.705
1.079,0.028,0.158,20.020,3.052,-8.789
1.079,0.039,0.158,21.301,-3.540,-7.874
1.068,0.037,0.151,23.376,-10.315,-6.775
1.050,0.029,0.139,25.024,-16.724,-5.493
1.023,0.024,0.122,25.452,-21.301,-4.639
0.990,0.019,0.105,24.963,-23.499,-4.028
0.946,0.017,0.085,23.132,-21.729,-4.028
0.917,0.021,0.072,20.447,-14.954,-4.761
0.915,0.024,0.062,18.066,-5.981,-5.615
0.923,0.023,0.060,14.832,3.174,-6.287
0.943,0.027,0.057,11.108,11.841,-6.958
0.971,0.035,0.055,8.240,18.616,-7.568
1.006,0.043,0.054,5.554,23.071,-7.507
1.038,0.050,0.049,3.357,23.865,-6.836

1.138,-0.562,0.888,-218.750,14.709,42.297
1.086,-0.683,0.875,-244.568,-1.587,50.842
1.019,-0.798,0.866,-277.832,-13.855,58.411
0.951,-0.845,0.917,-317.139,-21.423,61.646
0.866,-0.829,0.945,-355.347,-23.254,59.937
0.814,-0.822,0.922,-389.587,-19.226,57.190
0.721,-0.840,0.866,-419.678,-9.460,54.749
0.655,-0.881,0.782,-445.618,5.554,52.673
0.649,-0.956,0.700,-468.933,24.963,52.612
0.664,-1.042,0.634,-490.723,45.349,55.054
0.643,-1.166,0.536,-513.000,61.279,57.800
0.593,-1.291,0.386,-535.828,72.083,59.204
0.532,-1.346,0.193,-556.702,82.092,57.556
0.462,-1.397,-0.003,-572.449,95.337,52.979
0.372,-1.451,-0.189,-581.909,111.023,45.105
0.317,-1.487,-0.400,-585.693,127.625,34.302
0.115,-1.538,-0.700,-583.252,145.752,22.278
0.081,-1.530,-0.955,-575.745,174.866,7.629
0.300,-1.617,-0.931,-561.584,206.177,-6.226
0.537,-1.556,-1.079,-546.204,203.918,-16.968
0.403,-1.615,-1.347,-516.907,178.406,-13.611
0.562,-1.612,-1.564,-482.910,144.531,-12.695
0.962,-1.508,-1.428,-450.623,99.243,-18.860
0.810,-1.320,-1.463,-401.978,36.743,-22.095
0.961,-1.233,-1.498,-345.215,-26.001,-23.682
0.701,-0.976,-1.508,-281.555,-70.251,-24.414
0.660,-0.936,-1.435,-207.214,-88.989,-15.686
0.762,-0.961,-1.325,-130.249,-89.294,-9.033
0.938,-1.014,-1.183,-61.951,-77.576,-5.737
1.041,-1.130,-1.052,-5.005,-61.157,-1.953
1.216,-1.246,-0.979,35.950,-46.997,2.991
1.326,-1.278,-0.880,60.303,-38.086,7.019
1.314,-1.187,-0.826,74.951,-36.926,11.353
1.278,-1.218,-0.845,86.792,-40.222,17.273
1.187,-1.108,-0.809,90.637,-41.931,19.592
1.123,-0.966,-0.767,92.529,-43.335,22.827
1.018,-0.835,-0.796,95.398,-43.762,28.442
0.894,-0.733,-0.826,99.304,-40.344,32.959
0.807,-0.545,-0.817,102.722,-34.546,32.593
0.754,-0.492,-0.829,112.732,-27.405,34.668
0.698,-0.502,-0.847,123.840,-19.592,35.339
0.655,-0.528,-0.849,133.362,-11.780,31.860
0.672,-0.548,-0.829,140.930,-4.578,25.879
0.687,-0.562,-0.831,147.400,0.183,19.287
0.695,-0.578,-0.834,153.076,3.296,12.451
0.713,-0.574,-0.823,156.128,4.395,4.944
0.725,-0.522,-0.808,158.081,4.395,-2.747
0.758,-0.478,-0.793,161.133,3.357,-10.193
0.781,-0.482,-0.803,165.222,1.831,-16.113
0.812,-0.464,-0.785,169.617,1.587,-20.508
0.839,-0.405,-0.767,173.401,0.305,-23.437
0.860,-0.428,-0.749,180.359,-2.869,-23.743
0.897,-0.445,-0.732,185.852,-8.667,-23.315
0.924,-0.433,-0.718,190.369,-14.832,-19.592
0.931,-0.402,-0.702,194.092,-19.348,-16.418
0.956,-0.381,-0.665,197.876,-23.010,-13.733
0.985,-0.365,-0.629,201.538,-27.588,-9.888
0.989,-0.348,-0.588,204.529,-32.837,-4.150
0.972,-0.325,-0.548,207.458,-37.842,1.404
0.960,-0.337,-0.537,210.876,-42.053,6.470
0.944,-0.322,-0.545,213.989,-44.678,9.705
0.901,-0.286,-0.543,217.163,-44.983,10.559
0.871,-0.266,-0.530,221.924,-42.786,9.399
0.866,-0.237,-0.496,227.478,-37.598,5.798
0.870,-0.251,-0.481,233.459,-31.677,1.404
0.879,-0.277,-0.477,238.647,-26.672,-2.441
0.896,-0.259,-0.431,240.417,-22.156,-4.883
0.916,-0.250,-0.379,240.845,-19.287,-6.165
0.930,-0.253,-0.338,239.929,-19.958,-5.066
0.938,-0.226,-0.299,237.488,-22.827,-3.601
0.943,-0.222,-0.260,235.840,-27.283,-2.441
0.939,-0.234,-0.223,232.910,-33.081,-0.977
0.924,-0.235,-0.188,228.516,-39.307,0.122
0.912,-0.210,-0.157,222.961,-45.288,0.427
0.874,-0.202,-0.144,217.773,-50.598,-0.427
0.833,-0.191,-0.148,213.379,-53.833,-2.319
0.807,-0.158,-0.136,209.534,-53.650,-4.272
0.798,-0.176,-0.143,206.543,-50.720,-6.287
0.808,-0.176,-0.138,203.003,-46.021,-8.362
0.820,-0.144,-0.104,199.463,-41.077,-10.376
0.834,-0.151,-0.080,197.327,-37.048,-12.024
0.850,-0.174,-0.052,193.848,-34.180,-12.451
0.847,-0.158,-0.030,189.026,-32.104,-13.245
0.840,-0.175,-0.018,182.068,-29.480,-13.733
0.836,-0.166,-0.018,173.584,-26.245,-14.404
0.841,-0.149,0.005,165.100,-23.010,-15.198
0.865,-0.136,0.021,157.043,-21.179,-15.259
0.918,-0.095,0.058,149.719,-22.034,-15.076
0.962,-0.062,0.106,144.836,-26.550,-16.479
0.976,-0.051,0.127,141.663,-33.997,-18.066
0.980,-0.057,0.137,139.282,-42.175,-19.409
0.962,-0.051,0.147,137.024,-49.011,-20.874
0.932,-0.061,0.156,135.193,-52.063,-21.423
0.906,-0.094,0.150,131.714,-51.331,-20.142
0.879,-0.119,0.141,125.549,-46.753,-17.334
0.869,-0.125,0.145,115.601,-39.795,-13.306
0.869,-0.112,0.145,104.004,-31.799,-9.705
0.896,-0.086,0.158,92.590,-22.644,-6.897
0.932,-0.056,0.186,82.825,-15.198,-5.066
0.947,-0.026,0.190,74.890,-12.573,-4.456
0.963,-0.008,0.193,69.763,-12.329,-4.700
0.986,0.002,0.203,66.162,-13.184,-5.249
1.004,0.018,0.219,63.843,-16.357,-5.737
1.012,0.020,0.230,62.256,-21.851,-5.554
1.026,0.010,0.228,60.547,-29.358,-4.639
1.018,0.014,0.221,58.289,-37.720,-3.662
0.969,-0.024,0.206,55.908,-45.471,-2.441
0.945,0.004,0.154,51.636,-49.622,-2.563
0.897,-0.001,0.143,47.974,-44.922,-3.113
0.869,0.013,0.128,43.884,-36.499,-5.249
0.874,0.019,0.134,40.527,-23.804,-6.714
0.888,0.027,0.155,37.598,-10.254,-7.446
0.935,0.018,0.150,34.546,1.038,-7.690
0.958,0.011,0.162,31.128,11.475,-8.301
0.998,0.012,0.158,27.100,17.822,-9.033
1.042,0.011,0.164,22.766,20.386,-9.094
1.068,0.025,0.170,18.982,18.799,-8.728
1.086,0.034,0.156,16.174,13.123,-7.751
1.077,0.044,0.138,13.855,6.653,-7.019

1.270,-0.309,1.102,24.048,3.357,-1.587
1.159,-0.431,1.125,7.080,-0.793,2.075
1.020,-0.534,1.091,-15.198,1.343,7.324
0.885,-0.651,1.059,-41.138,10.254,12.695
0.808,-0.738,1.025,-72.693,23.926,17.883
0.763,-0.806,0.989,-106.812,40.466,21.606
0.725,-0.858,0.938,-141.174,56.580,24.292
0.743,-0.922,0.883,-176.331,71.106,27.588
0.798,-0.992,0.838,-215.393,81.543,34.485
0.794,-1.046,0.768,-258.667,84.595,45.044
0.731,-1.089,0.662,-303.772,80.811,56.396
0.652,-1.120,0.533,-348.511,76.782,67.383
0.616,-1.142,0.447,-389.954,76.233,77.087
0.588,-1.177,0.353,-427.979,76.538,85.144
0.532,-1.198,0.275,-464.233,76.538,90.332
0.512,-1.197,0.171,-496.460,78.125,92.773
0.535,-1.251,0.078,-524.841,76.965,94.543
0.498,-1.288,-0.023,-555.786,71.899,92.957
0.430,-1.299,-0.147,-583.252,68.420,87.341
0.385,-1.242,-0.257,-604.126,70.618,79.529
0.356,-1.210,-0.408,-614.929,79.590,71.350
0.316,-1.166,-0.572,-614.746,95.154,64.209
0.289,-1.115,-0.691,-603.943,114.136,56.946
0.339,-1.114,-0.802,-583.679,131.287,46.936
0.386,-1.214,-0.878,-559.448,145.996,34.241
0.471,-1.291,-0.915,-538.086,159.119,20.508
0.545,-1.383,-0.997,-518.738,163.757,8.667
0.664,-1.399,-1.047,-499.695,155.945,-4.028
0.805,-1.289,-1.126,-477.478,131.592,-15.930
0.895,-1.186,-1.209,-440.491,96.924,-20.813
0.738,-1.130,-1.356,-389.648,56.763,-22.705
0.772,-1.059,-1.349,-335.327,30.212,-24.231
0.882,-1.001,-1.231,-275.940,13.489,-21.240
0.856,-1.009,-1.232,-212.769,-7.019,-15.564
0.879,-1.046,-1.222,-152.588,-21.240,-7.629
0.997,-1.064,-1.173,-98.816,-27.771,1.221
1.041,-1.119,-1.138,-51.636,-35.645,10.071
1.058,-1.125,-1.097,-15.564,-42.786,15.015
1.083,-1.148,-1.048,11.414,-47.913,18.677
1.062,-1.164,-0.992,30.640,-50.354,22.217
1.006,-1.170,-0.970,40.222,-48.889,26.489
0.961,-1.135,-0.971,43.640,-45.898,28.931
0.909,-0.987,-0.963,42.786,-40.955,28.992
0.853,-0.858,-0.952,42.847,-33.447,29.907
0.814,-0.761,-0.934,44.861,-25.757,29.480
0.723,-0.647,-0.899,48.218,-19.775,25.452
0.690,-0.509,-0.905,54.688,-14.099,21.484
0.651,-0.482,-0.860,66.895,-5.615,19.958
0.639,-0.405,-0.833,77.515,-0.732,16.541
0.675,-0.466,-0.828,89.233,4.761,14.526
0.674,-0.488,-0.821,96.008,9.521,9.216
0.731,-0.501,-0.785,99.976,11.475,4.211
0.756,-0.515,-0.780,102.661,9.033,1.465
0.792,-0.578,-0.760,104.431,5.371,0.427
0.793,-0.597,-0.747,101.685,1.709,-1.892
0.750,-0.547,-0.780,98.145,-0.488,-5.554
0.783,-0.519,-0.729,96.924,2.563,-9.644
0.815,-0.431,-0.708,97.717,3.357,-12.634
0.886,-0.489,-0.757,104.431,1.831,-11.292
0.831,-0.499,-0.738,108.765,0.854,-15.442
0.825,-0.442,-0.739,110.107,-2.136,-20.874
0.915,-0.423,-0.718,116.150,-3.967,-20.691
0.883,-0.402,-0.731,123.840,-7.080,-19.104
0.874,-0.422,-0.727,132.935,-9.766,-15.991
0.942,-0.406,-0.723,141.724,-12.695,-12.024
0.943,-0.413,-0.712,151.794,-18.372,-6.958
0.930,-0.434,-0.733,160.889,-27.527,-3.235
0.937,-0.454,-0.720,167.725,-37.048,-0.244
0.936,-0.437,-0.715,173.462,-46.204,3.540
0.909,-0.387,-0.704,177.917,-52.917,4.517
0.892,-0.379,-0.695,183.350,-56.763,3.662
0.870,-0.395,-0.714,189.941,-58.167,2.075
0.837,-0.392,-0.709,195.374,-55.115,0.366
0.818,-0.411,-0.697,199.768,-49.927,-0.305
0.811,-0.436,-0.683,203.186,-45.410,-1.709
0.800,-0.415,-0.664,204.834,-42.175,-2.808
0.783,-0.403,-0.629,206.299,-39.673,-2.869
0.774,-0.370,-0.589,207.520,-39.063,-4.639
0.756,-0.343,-0.562,209.534,-39.734,-7.202
0.747,-0.328,-0.557,213.257,-40.283,-10.376
0.754,-0.318,-0.533,216.614,-38.574,-16.235
0.773,-0.312,-0.508,220.154,-34.424,-22.217
0.797,-0.307,-0.482,223.938,-31.738,-26.123
0.833,-0.320,-0.450,227.539,-31.128,-28.076
0.846,-0.332,-0.433,229.980,-32.837,-27.893
0.856,-0.296,-0.413,231.384,-36.316,-26.794
0.866,-0.237,-0.368,234.070,-40.894,-25.391
0.862,-0.215,-0.340,238.525,-47.668,-22.766
0.852,-0.176,-0.318,244.873,-56.152,-20.630
0.825,-0.153,-0.276,253.113,-64.331,-19.653
0.765,-0.181,-0.249,261.658,-71.594,-20.386
0.700,-0.216,-0.231,268.494,-75.317,-22.888
0.672,-0.231,-0.217,272.217,-74.646,-27.527
0.680,-0.298,-0.199,272.644,-71.350,-32.959
0.676,-0.367,-0.201,268.555,-67.078,-38.147
0.675,-0.379,-0.177,259.888,-60.547,-43.213
0.717,-0.385,-0.153,249.146,-52.734,-47.607
0.776,-0.386,-0.127,237.488,-46.265,-49.866
0.809,-0.370,-0.088,225.159,-41.504,-50.598
0.835,-0.354,-0.058,213.379,-39.063,-50.903
0.836,-0.305,-0.000,204.651,-37.903,-50.476
0.905,-0.237,0.024,198.853,-37.598,-49.377
0.917,-0.298,0.099,195.129,-35.339,-46.509
0.923,-0.225,0.141,189.026,-35.706,-44.983
0.968,-0.209,0.203,185.181,-36.621,-40.161
0.984,-0.231,0.228,181.763,-39.551,-35.095
0.991,-0.253,0.235,175.903,-44.373,-30.762
0.974,-0.264,0.249,167.358,-47.180,-28.198
0.955,-0.263,0.262,157.227,-47.852,-26.428
0.935,-0.273,0.271,146.118,-46.753,-23.376
0.921,-0.256,0.273,132.385,-43.213,-20.752
0.932,-0.273,0.277,117.554,-37.659,-18.188
0.936,-0.247,0.297,102.783,-30.945,-18.250
0.975,-0.200,0.325,89.050,-26.306,-18.250
1.024,-0.175,0.336,78.247,-25.269,-16.663
1.049,-0.161,0.341,71.045,-28.015,-14.587
1.074,-0.153,0.338,65.186,-33.569,-12.817
1.066,-0.133,0.328,60.730,-39.429,-12.207
1.038,-0.122,0.303,57.312,-44.250,-11.108

1.015,-0.750,0.978,-195.740,99.792,48.889
1.017,-0.848,1.097,-216.125,91.736,60.120
0.967,-1.030,1.230,-239.319,79.468,74.524
0.856,-1.186,1.248,-271.240,68.115,91.736
0.748,-1.249,1.241,-308.350,59.143,107.666
0.675,-1.266,1.208,-344.727,52.185,117.371
0.644,-1.294,1.134,-377.136,47.180,121.399
0.599,-1.367,1.050,-406.006,47.058,121.216
0.498,-1.484,0.894,-433.411,50.720,118.347
0.392,-1.593,0.683,-461.670,59.143,113.220
0.274,-1.671,0.446,-488.525,74.585,107.605
0.223,-1.724,0.187,-512.451,96.008,103.699
0.265,-1.701,0.007,-534.363,119.141,101.685
0.236,-1.684,-0.146,-550.720,139.771,100.708
0.219,-1.756,-0.318,-562.988,158.386,98.633
0.180,-1.854,-0.724,-569.763,171.936,95.642
0.236,-2.009,-1.055,-564.636,180.969,88.867
0.458,-1.719,-1.513,-553.650,172.302,80.078
0.495,-1.552,-1.812,-520.264,154.907,84.839
0.726,-1.339,-1.811,-473.999,125.244,83.374
0.768,-1.075,-1.821,-416.565,68.054,74.646
0.904,-1.146,-1.820,-343.140,13.977,68.787
0.749,-1.293,-1.875,-275.269,-36.682,44.861
0.543,-1.176,-1.906,-226.685,-78.369,12.634
0.451,-1.149,-1.868,-174.866,-96.191,-7.080
0.509,-1.301,-1.857,-122.253,-89.966,-19.836
0.630,-1.387,-1.816,-80.688,-70.679,-29.236
0.767,-1.376,-1.760,-50.171,-51.941,-36.133
0.820,-1.379,-1.636,-27.710,-35.950,-42.236
0.934,-1.376,-1.512,-16.724,-22.949,-45.410
1.007,-1.279,-1.383,-14.709,-15.259,-44.250
1.050,-1.143,-1.282,-16.113,-15.320,-38.147
1.024,-1.013,-1.168,-17.700,-17.456,-27.588
0.973,-0.811,-1.082,-20.569,-20.996,-20.447
0.948,-0.596,-1.010,-18.188,-21.973,-13.733
0.910,-0.475,-0.943,-9.155,-18.616,-6.714
0.844,-0.409,-0.897,1.709,-13.916,-2.075
0.802,-0.372,-0.815,11.780,-6.409,3.479
0.776,-0.391,-0.755,19.592,1.404,9.766
0.753,-0.421,-0.714,22.827,7.324,14.709
0.727,-0.443,-0.685,21.912,12.207,17.639
0.698,-0.434,-0.674,17.334,16.113,17.456
0.671,-0.411,-0.672,11.780,20.874,14.893
0.651,-0.367,-0.671,5.981,26.062,10.620
0.646,-0.342,-0.661,1.831,31.982,5.493
0.659,-0.337,-0.649,-1.221,38.391,0.000
0.677,-0.329,-0.633,-4.089,43.091,-4.211
0.683,-0.331,-0.637,-6.287,45.166,-7.202
0.727,-0.330,-0.632,-7.568,46.143,-9.521
0.772,-0.313,-0.625,-7.568,44.739,-11.230
0.815,-0.277,-0.600,-5.859,39.490,-12.756
0.819,-0.293,-0.636,-1.648,29.907,-13.367
0.798,-0.298,-0.678,3.784,23.926,-13.306
0.817,-0.297,-0.652,10.010,22.156,-13.977
0.837,-0.300,-0.646,16.602,20.081,-14.648
0.833,-0.327,-0.624,22.461,19.226,-14.099
0.905,-0.329,-0.592,26.123,17.639,-12.878
0.928,-0.340,-0.585,30.396,11.902,-9.521
0.894,-0.380,-0.621,34.973,3.662,-5.005
0.937,-0.416,-0.621,38.147,-2.136,0.305
0.911,-0.475,-0.604,39.856,-6.836,4.761
0.868,-0.465,-0.626,38.696,-13.855,4.944
0.862,-0.464,-0.680,39.551,-19.958,4.761
0.799,-0.463,-0.735,43.884,-22.705,4.028
0.762,-0.457,-0.761,49.988,-22.888,2.258
0.749,-0.445,-0.776,57.922,-21.606,-0.305
0.722,-0.437,-0.777,67.749,-20.386,-2.502
0.724,-0.445,-0.783,77.881,-21.057,-4.639
0.743,-0.445,-0.770,87.463,-22.705,-8.789
0.748,-0.425,-0.740,96.558,-25.024,-13.367
0.766,-0.416,-0.722,105.225,-28.687,-17.517
0.793,-0.436,-0.708,114.136,-32.837,-21.667
0.803,-0.457,-0.705,121.826,-36.865,-25.024
0.807,-0.476,-0.703,127.563,-41.077,-26.306
0.798,-0.485,-0.709,132.324,-45.898,-25.330
0.796,-0.483,-0.716,136.292,-49.805,-24.109
0.800,-0.490,-0.716,139.832,-52.185,-22.583
0.802,-0.460,-0.696,143.066,-53.284,-21.484
0.817,-0.388,-0.663,145.996,-53.406,-22.156
0.835,-0.351,-0.630,151.062,-52.856,-24.170
0.845,-0.324,-0.593,157.654,-51.697,-26.978
0.853,-0.301,-0.548,164.001,-49.744,-30.029
0.871,-0.300,-0.512,168.884,-46.997,-31.555
0.883,-0.326,-0.496,173.096,-45.227,-31.311
0.883,-0.351,-0.484,175.171,-44.250,-29.480
0.893,-0.373,-0.486,174.805,-44.006,-26.978
0.929,-0.381,-0.484,171.570,-44.373,-24.719
0.967,-0.323,-0.448,167.297,-44.983,-22.583
0.982,-0.276,-0.411,165.161,-47.058,-20.508
0.992,-0.282,-0.369,163.757,-50.964,-17.822
1.000,-0.270,-0.331,160.400,-55.054,-14.404
0.980,-0.243,-0.312,156.128,-58.350,-10.376
0.961,-0.247,-0.321,152.954,-61.035,-6.470
0.960,-0.245,-0.336,150.085,-62.561,-3.601
0.928,-0.239,-0.351,147.949,-62.988,-1.892
0.910,-0.239,-0.358,146.667,-60.181,-0.610
0.935,-0.206,-0.332,145.508,-55.786,-0.061
0.936,-0.164,-0.299,145.691,-52.368,-0.610
0.912,-0.156,-0.282,147.644,-48.523,-1.526
0.911,-0.166,-0.255,149.109,-44.128,-2.014
0.923,-0.165,-0.224,148.682,-40.405,-2.258
0.949,-0.187,-0.204,147.522,-39.124,-1.892
0.959,-0.210,-0.185,143.616,-41.565,-0.366
0.962,-0.229,-0.190,137.329,-46.692,1.831
0.947,-0.214,-0.191,129.822,-52.063,4.211
0.916,-0.187,-0.187,122.070,-55.603,6.470
0.904,-0.167,-0.180,116.394,-57.251,7.874
0.911,-0.149,-0.167,112.183,-57.434,8.606
0.934,-0.132,-0.154,109.375,-58.105,9.460
0.944,-0.088,-0.131,107.971,-60.181,9.888
0.942,-0.071,-0.104,109.070,-62.317,9.888
0.936,-0.081,-0.082,110.535,-63.904,10.315
0.933,-0.084,-0.057,110.718,-64.575,11.414
0.919,-0.080,-0.043,110.107,-64.819,12.451
0.903,-0.094,-0.035,108.643,-63.232,13.123
0.920,-0.120,-0.028,106.018,-60.303,13.428
0.926,-0.125,-0.027,101.501,-58.716,13.977
0.902,-0.132,-0.034,95.764,-57.495,14.404
0.872,-0.143,-0.052,89.417,-54.749,14.282

1.857,-0.471,1.606,-14.221,-5.371,47.668
1.846,-0.820,2.260,-51.086,-21.484,80.627
1.583,-1.228,2.766,-113.159,-42.358,105.286
1.293,-1.575,2.852,-195.740,-61.096,118.286
1.017,-1.676,2.846,-297.302,-65.857,122.253
0.582,-1.696,2.543,-397.766,-49.866,120.239
0.334,-1.832,2.041,-483.948,-5.920,112.427
0.201,-2.041,1.451,-557.251,55.054,102.661
-0.035,-2.179,0.749,-615.723,122.986,90.759
-0.519,-2.360,-0.485,-656.616,207.214,77.271
-1.513,-3.918,-2.787,-679.199,393.066,35.645
0.517,-1.570,0.272,-693.237,681.885,-60.791
0.010,-1.711,-1.076,-705.750,605.103,25.452
1.822,-0.818,-0.520,-725.159,528.809,105.347
1.719,-2.277,-0.334,-705.994,428.955,220.215
0.970,-1.871,0.059,-693.054,289.734,212.158
0.445,-1.860,-0.641,-677.734,97.046,226.685
0.179,-1.744,-1.064,-633.789,-40.283,234.009
0.536,-1.627,-1.423,-565.063,-119.690,243.347
0.154,-2.192,-1.933,-473.083,-167.480,244.568
-0.289,-1.899,-2.201,-402.893,-181.946,194.214
-0.387,-1.747,-2.127,-329.529,-147.705,151.794
-0.274,-1.912,-2.019,-249.878,-92.590,110.291
-0.007,-1.846,-2.020,-183.716,-42.480,66.895
0.252,-1.638,-1.947,-122.009,8.667,31.677
0.359,-1.638,-1.884,-64.026,49.072,4.395
0.435,-1.543,-1.721,-21.606,69.580,-19.958
0.613,-1.270,-1.470,3.113,69.519,-40.405
0.750,-1.091,-1.231,23.682,55.420,-46.875
0.808,-0.966,-1.041,39.551,31.677,-41.077
0.832,-0.849,-0.885,48.584,3.235,-27.527
0.822,-0.731,-0.777,50.842,-21.362,-9.705
0.783,-0.604,-0.729,48.279,-40.161,7.385
0.717,-0.484,-0.705,43.274,-50.720,20.630
0.658,-0.395,-0.680,37.598,-50.903,28.442
0.648,-0.303,-0.659,32.654,-43.091,30.334
0.659,-0.239,-0.638,28.992,-31.128,26.550
0.674,-0.228,-0.600,24.414,-15.869,20.020
0.699,-0.198,-0.562,18.494,-1.282,12.146
0.737,-0.161,-0.534,11.292,10.742,4.761
0.778,-0.167,-0.500,4.089,19.592,-0.244
0.836,-0.146,-0.458,-3.662,23.804,-2.747
0.862,-0.132,-0.457,-10.254,22.766,-2.014
0.861,-0.144,-0.457,-14.587,20.142,0.977
0.867,-0.132,-0.457,-18.494,17.456,5.005
0.853,-0.128,-0.462,-20.508,14.771,10.132
0.845,-0.153,-0.470,-20.508,12.817,14.343
0.870,-0.177,-0.475,-19.836,11.475,16.968
0.870,-0.222,-0.488,-18.982,9.521,17.944
0.875,-0.254,-0.498,-18.860,5.432,17.212
0.880,-0.262,-0.512,-17.822,0.122,15.869
0.865,-0.285,-0.528,-15.747,-5.371,14.832
0.841,-0.318,-0.539,-12.207,-10.315,13.489
0.813,-0.357,-0.544,-8.301,-13.062,11.230
0.808,-0.386,-0.553,-5.249,-12.146,8.301
0.830,-0.396,-0.539,-2.747,-9.888,4.700
0.845,-0.408,-0.523,-1.404,-7.568,0.793
0.862,-0.419,-0.513,-1.343,-5.127,-2.258
0.875,-0.399,-0.502,-1.953,-3.662,-4.517
0.876,-0.374,-0.501,-1.892,-3.601,-7.202
0.872,-0.375,-0.504,-1.099,-3.601,-8.728
0.858,-0.367,-0.501,-0.305,-3.052,-9.033
0.852,-0.341,-0.491,0.183,-1.465,-9.277
0.846,-0.322,-0.489,1.221,-0.183,-9.399
0.850,-0.311,-0.477,2.930,0.366,-8.423
0.856,-0.286,-0.461,4.517,-1.099,-7.019
0.849,-0.272,-0.453,6.348,-4.150,-5.981
0.832,-0.277,-0.454,8.301,-7.385,-5.554
0.819,-0.295,-0.457,10.132,-9.888,-5.005
0.801,-0.314,-0.449,10.559,-10.925,-4.395
0.777,-0.325,-0.446,9.766,-10.010,-4.456
0.766,-0.325,-0.440,8.057,-6.348,-4.883
0.781,-0.340,-0.435,6.409,-2.014,-5.310
0.792,-0.350,-0.427,4.333,0.671,-5.920
0.798,-0.339,-0.424,1.831,2.197,-6.531
0.808,-0.329,-0.427,0.122,2.563,-7.263
0.826,-0.329,-0.428,-0.427,1.587,-7.996
0.839,-0.345,-0.431,-0.244,-0.671,-7.996
0.849,-0.351,-0.438,-0.610,-3.845,-7.385
0.855,-0.347,-0.439,-0.610,-7.385,-6.226
0.848,-0.343,-0.442,-0.244,-9.155,-4.211
0.848,-0.356,-0.446,1.099,-9.766,-2.502
0.860,-0.368,-0.455,2.258,-9.583,-0.549
0.868,-0.378,-0.450,2.869,-9.338,0.793
0.867,-0.378,-0.448,2.502,-9.338,1.465
0.856,-0.379,-0.456,2.563,-9.216,1.343
0.852,-0.374,-0.464,2.258,-7.568,0.305
0.853,-0.368,-0.458,2.625,-5.371,-1.160
0.859,-0.361,-0.457,2.930,-3.662,-2.502
0.863,-0.353,-0.456,3.723,-2.625,-3.357
0.862,-0.346,-0.454,4.578,-2.014,-3.967
0.866,-0.341,-0.452,5.798,-2.136,-4.272
0.866,-0.340,-0.446,6.897,-3.113,-3.906
0.862,-0.341,-0.446,8.362,-4.517,-3.418
0.859,-0.351,-0.450,9.766,-6.042,-3.113
0.851,-0.349,-0.444,10.254,-7.751,-2.747
0.849,-0.340,-0.434,11.047,-8.484,-2.625
0.847,-0.343,-0.432,11.658,-8.667,-2.563
0.850,-0.348,-0.426,11.597,-8.118,-2.319
0.858,-0.349,-0.421,11.414,-7.690,-2.014
0.855,-0.352,-0.423,10.803,-7.751,-2.136
0.853,-0.356,-0.428,10.498,-7.751,-2.625
0.846,-0.355,-0.426,10.254,-6.592,-3.113
0.845,-0.351,-0.428,9.766,-5.005,-3.906
0.853,-0.351,-0.422,9.216,-3.113,-5.249
0.866,-0.341,-0.412,8.850,-1.038,-6.409
0.880,-0.346,-0.404,8.850,0.244,-6.775
0.884,-0.358,-0.408,8.301,0.854,-6.531
0.883,-0.355,-0.407,7.507,1.221,-6.592
0.886,-0.352,-0.405,6.836,1.526,-6.714
0.890,-0.349,-0.402,6.104,1.404,-6.165
0.887,-0.348,-0.400,5.737,0.549,-5.249
0.882,-0.347,-0.407,5.310,-1.038,-4.150
0.870,-0.344,-0.411,5.188,-2.563,-3.235
0.855,-0.346,-0.418,5.920,-3.906,-2.563
0.843,-0.349,-0.420,6.042,-3.906,-1.343
0.839,-0.352,-0.417,5.981,-3.296,-0.366
0.836,-0.356,-0.419,6.470,-2.808,-0.244
0.831,-0.359,-0.421,6.836,-2.319,-0.916

1.496,-0.444,0.761,36.072,14.221,41.016
1.509,-0.517,0.809,22.949,16.846,49.255
1.513,-0.580,0.829,5.920,16.846,56.702
1.473,-0.620,0.842,-13.245,17.456,63.110
1.450,-0.662,0.886,-31.799,21.606,69.641
1.395,-0.732,0.931,-50.293,27.710,78.186
1.305,-0.803,0.985,-71.655,37.476,88.135
1.200,-0.881,1.037,-95.947,53.650,98.877
1.094,-0.974,1.079,-125.732,77.942,112.854
1.020,-1.051,1.127,-160.095,106.567,128.601
0.969,-1.140,1.131,-195.923,134.888,143.616
0.941,-1.243,1.039,-234.253,158.936,158.691
0.903,-1.367,0.918,-277.344,177.307,172.729
0.845,-1.511,0.773,-324.585,191.467,184.265
0.791,-1.631,0.667,-377.686,202.148,193.726
0.729,-1.690,0.566,-433.289,207.825,200.867
0.674,-1.688,0.428,-482.300,205.811,205.688
0.647,-1.635,0.278,-517.090,197.144,210.876
0.560,-1.597,0.176,-534.607,186.890,214.844
0.409,-1.552,0.052,-539.490,177.124,216.736
0.286,-1.497,-0.121,-533.875,171.082,217.590
0.202,-1.374,-0.303,-515.320,167.664,217.834
0.138,-1.208,-0.429,-482.971,163.391,218.445
0.131,-1.078,-0.510,-440.308,154.663,220.581
0.196,-1.094,-0.559,-395.874,142.700,224.976
0.219,-1.271,-0.571,-362.854,130.432,229.614
0.152,-1.459,-0.601,-351.868,117.432,232.239
0.063,-1.553,-0.703,-361.267,101.868,227.478
-0.032,-1.523,-0.846,-382.080,84.656,216.187
-0.122,-1.398,-1.061,-400.635,67.932,206.360
-0.181,-1.220,-1.332,-407.288,56.396,199.585
-0.187,-0.978,-1.625,-397.156,42.969,188.965
-0.166,-0.720,-1.787,-367.920,25.085,170.776
-0.128,-0.527,-1.820,-325.684,9.155,146.240
-0.136,-0.456,-1.805,-274.536,-1.831,120.056
-0.200,-0.465,-1.760,-223.083,-7.141,93.994
-0.201,-0.485,-1.669,-178.528,-6.226,71.045
-0.148,-0.597,-1.628,-140.686,-4.150,53.406
-0.067,-0.725,-1.644,-112.061,-1.160,39.795
0.012,-0.744,-1.611,-94.055,5.066,29.236
0.118,-0.711,-1.553,-82.031,10.559,19.348
0.255,-0.726,-1.515,-73.059,11.414,10.681
0.359,-0.673,-1.465,-67.871,7.324,1.038
0.391,-0.632,-1.408,-63.782,1.038,-7.507
0.387,-0.561,-1.360,-61.646,-3.723,-16.846
0.427,-0.432,-1.281,-59.631,-4.395,-25.330
0.518,-0.301,-1.169,-53.650,-2.869,-29.907
0.558,-0.261,-1.128,-44.067,-3.906,-30.090
0.532,-0.233,-1.102,-34.241,-3.845,-28.625
0.540,-0.201,-1.059,-25.269,-0.488,-26.794
0.611,-0.196,-1.014,-16.968,5.310,-23.010
0.660,-0.236,-0.954,-9.949,10.193,-16.357
0.656,-0.267,-0.913,-6.287,9.338,-10.620
0.665,-0.290,-0.913,-5.981,5.676,-6.287
0.691,-0.316,-0.926,-5.798,2.686,-2.014
0.694,-0.320,-0.916,-6.775,-0.366,2.991
0.693,-0.298,-0.870,-10.254,-4.272,7.324
0.689,-0.253,-0.855,-13.611,-9.033,9.399
0.661,-0.202,-0.862,-15.381,-11.902,10.437
0.649,-0.168,-0.861,-14.587,-11.841,11.353
0.640,-0.151,-0.848,-12.085,-9.827,12.695
0.620,-0.148,-0.840,-9.094,-6.042,13.245
0.616,-0.171,-0.830,-5.737,-1.343,13.245
0.608,-0.183,-0.814,-3.906,3.845,12.512
0.607,-0.197,-0.792,-2.686,9.155,10.986
0.623,-0.218,-0.771,-3.113,12.695,8.850
0.637,-0.230,-0.761,-4.272,14.404,6.470
0.650,-0.230,-0.756,-6.409,14.160,4.272
0.669,-0.227,-0.752,-8.972,11.963,2.625
0.679,-0.219,-0.755,-11.230,8.789,1.648
0.669,-0.213,-0.766,-12.146,5.432,1.587
0.655,-0.214,-0.777,-12.329,2.869,2.197
0.655,-0.210,-0.772,-11.597,2.014,2.625
0.656,-0.203,-0.766,-10.315,1.709,2.747
0.645,-0.204,-0.775,-8.179,1.526,2.747
0.645,-0.215,-0.774,-5.737,1.648,2.380
0.649,-0.229,-0.764,-4.028,1.953,2.075
0.648,-0.234,-0.765,-3.174,1.648,1.404
0.648,-0.231,-0.769,-2.808,0.916,0.549
0.643,-0.229,-0.772,-1.160,0.000,-0.549
0.643,-0.241,-0.773,0.610,-0.977,-1.770
0.648,-0.252,-0.777,1.892,-2.686,-2.869
0.642,-0.250,-0.786,2.808,-4.639,-3.479
0.648,-0.242,-0.785,4.211,-5.920,-4.272
0.656,-0.245,-0.781,6.287,-7.751,-5.249
0.653,-0.263,-0.780,8.362,-8.972,-5.859
0.654,-0.269,-0.789,9.521,-9.949,-5.981
0.659,-0.256,-0.794,10.803,-10.986,-6.226
0.672,-0.247,-0.793,12.329,-11.658,-6.531
0.682,-0.259,-0.780,13.489,-13.062,-6.836
0.687,-0.261,-0.760,13.611,-14.343,-7.080
0.690,-0.251,-0.750,13.184,-15.076,-6.897
0.698,-0.250,-0.753,12.939,-15.564,-6.714
0.698,-0.245,-0.766,13.611,-15.564,-6.287
0.700,-0.234,-0.765,14.404,-15.381,-5.920
0.707,-0.220,-0.772,15.808,-15.564,-5.371
0.706,-0.234,-0.774,18.311,-15.564,-4.944
0.700,-0.239,-0.783,20.325,-15.137,-4.517
0.703,-0.233,-0.786,22.034,-14.893,-4.395
0.708,-0.224,-0.792,23.865,-14.282,-4.395
0.702,-0.223,-0.787,25.818,-13.428,-4.211
0.704,-0.228,-0.772,27.222,-12.451,-3.601
0.708,-0.222,-0.761,28.076,-11.597,-3.235
0.712,-0.228,-0.756,28.442,-11.536,-2.808
0.716,-0.222,-0.759,28.381,-12.390,-2.380
0.714,-0.210,-0.749,27.893,-13.062,-1.587
0.710,-0.203,-0.738,27.344,-13.794,-0.854
0.712,-0.198,-0.731,27.100,-14.526,-0.488
0.709,-0.198,-0.730,27.039,-14.954,-0.244
0.704,-0.199,-0.724,27.161,-14.648,0.061
0.708,-0.192,-0.713,26.917,-14.038,0.366
0.713,-0.197,-0.704,26.550,-12.756,0.732
0.718,-0.194,-0.701,25.574,-11.536,0.610
0.730,-0.193,-0.696,24.536,-10.437,0.671
0.727,-0.188,-0.693,23.437,-10.193,0.488
0.739,-0.164,-0.689,22.461,-10.803,-0.061
0.748,-0.166,-0.679,23.132,-11.658,0.000
0.750,-0.162,-0.681,23.499,-13.367,-0.061
0.753,-0.157,-0.679,24.353,-15.747,-0.122

1.449,-0.375,1.193,-145.996,152.710,-4.578
1.590,-0.463,1.178,-152.344,157.227,0.122
1.686,-0.585,1.169,-162.903,156.250,13.550
1.709,-0.749,1.112,-177.002,153.137,29.846
1.681,-0.934,0.998,-193.604,146.851,47.974
1.643,-1.076,0.881,-214.111,140.198,67.200
1.572,-1.148,0.755,-236.450,132.385,85.938
1.423,-1.271,0.576,-256.714,123.291,101.440
1.228,-1.350,0.343,-274.414,118.652,111.755
1.033,-1.319,0.111,-288.635,125.977,117.981
0.841,-1.284,-0.097,-295.654,146.301,120.911
0.767,-1.214,-0.284,-294.861,176.819,124.634
0.725,-1.147,-0.406,-287.598,209.167,130.615
0.738,-1.158,-0.549,-275.330,235.657,138.489
0.839,-1.099,-0.611,-264.526,250.244,148.804
0.938,-1.034,-0.617,-254.822,247.253,162.231
1.025,-1.028,-0.641,-244.202,220.215,180.908
0.982,-1.030,-0.721,-234.863,167.969,201.721
0.827,-1.002,-0.824,-227.966,102.600,217.224
0.600,-1.001,-0.985,-220.947,36.926,223.816
0.302,-1.001,-1.193,-215.088,-16.663,220.703
-0.034,-0.963,-1.468,-212.158,-51.208,208.435
-0.191,-0.769,-1.602,-211.060,-59.509,188.660
-0.423,-0.809,-1.754,-203.857,-50.659,164.612
-0.551,-0.753,-2.050,-195.923,-32.654,132.751
-0.739,-0.509,-1.980,-191.040,1.526,100.464
-0.726,-0.123,-2.008,-181.091,32.104,70.557
-0.438,-0.113,-2.015,-149.963,50.232,67.383
-0.352,-0.113,-2.032,-114.685,54.749,63.354
-0.065,0.170,-1.719,-85.327,47.974,54.626
0.058,-0.044,-1.775,-47.913,15.686,54.260
0.201,-0.020,-1.568,-24.353,-25.391,47.180
0.121,-0.164,-1.584,-13.184,-69.580,41.260
-0.022,-0.096,-1.511,-13.977,-99.731,30.396
0.030,0.047,-1.404,-15.686,-112.427,21.301
0.091,-0.005,-1.441,-9.460,-115.845,15.503
0.116,0.032,-1.419,-4.822,-110.657,5.005
0.161,0.112,-1.340,-1.343,-98.145,-5.981
0.238,0.161,-1.265,6.287,-81.116,-15.076
0.372,0.202,-1.168,15.442,-62.500,-21.179
0.529,0.235,-1.044,24.048,-45.837,-24.231
0.640,0.219,-0.946,31.738,-34.546,-24.475
0.734,0.218,-0.842,36.133,-28.625,-22.888
0.825,0.231,-0.739,37.537,-26.978,-20.447
0.895,0.230,-0.663,36.743,-29.297,-17.151
0.928,0.209,-0.627,34.363,-34.851,-12.329
0.928,0.190,-0.619,29.419,-40.527,-6.836
0.901,0.185,-0.616,22.827,-44.495,-1.892
0.863,0.194,-0.626,16.541,-46.631,1.831
0.810,0.189,-0.649,12.024,-46.448,4.211
0.767,0.176,-0.675,9.155,-43.762,4.944
0.727,0.184,-0.694,7.019,-37.720,3.296
0.693,0.185,-0.708,6.470,-27.893,0.793
0.661,0.186,-0.721,6.897,-15.137,-1.892
0.642,0.188,-0.724,8.179,0.000,-3.540
0.629,0.175,-0.726,10.193,16.846,-4.883
0.646,0.162,-0.716,12.207,33.142,-6.470
0.676,0.146,-0.698,13.672,46.143,-8.301
0.707,0.122,-0.686,14.282,54.016,-9.888
0.723,0.096,-0.689,13.611,57.007,-11.230
0.757,0.110,-0.653,11.475,56.641,-12.573
0.786,0.080,-0.656,10.010,51.086,-12.573
0.785,0.054,-0.673,8.362,42.175,-13.184
0.750,0.060,-0.694,5.554,32.959,-15.137
0.809,0.178,-0.590,4.028,24.414,-17.395
0.848,0.086,-0.678,7.751,9.033,-14.282
0.793,0.027,-0.758,9.155,-5.005,-12.024
0.783,0.164,-0.676,6.897,-11.414,-11.475
0.797,0.104,-0.759,12.085,-18.555,-7.263
0.822,0.115,-0.732,17.578,-21.362,-5.615
0.864,0.110,-0.712,22.644,-23.804,-5.066
0.881,0.091,-0.699,27.588,-27.954,-4.700
0.878,0.070,-0.698,30.212,-32.471,-3.906
0.857,0.063,-0.689,30.212,-34.973,-4.089
0.833,0.083,-0.669,29.785,-34.485,-5.188
0.832,0.084,-0.664,29.541,-32.166,-5.615
0.827,0.075,-0.674,29.541,-28.870,-6.226
0.811,0.068,-0.676,28.809,-23.804,-8.301
0.789,0.079,-0.665,28.564,-17.151,-11.353
0.791,0.089,-0.651,28.381,-9.216,-14.343
0.839,0.111,-0.627,28.931,-1.953,-15.381
0.873,0.113,-0.622,30.090,3.479,-14.648
0.889,0.119,-0.606,31.250,7.202,-12.512
0.882,0.117,-0.594,32.776,9.216,-10.803
0.880,0.128,-0.557,34.363,11.108,-10.193
0.890,0.138,-0.527,36.011,11.292,-9.338
0.932,0.153,-0.487,37.170,8.728,-7.629
0.986,0.142,-0.460,37.537,2.319,-4.578
1.001,0.094,-0.467,35.950,-7.568,-0.610
0.966,0.073,-0.478,31.189,-18.738,3.296
0.922,0.078,-0.484,24.536,-27.527,5.981
0.876,0.062,-0.531,18.860,-32.898,7.324
0.839,0.087,-0.551,14.343,-33.569,6.897
0.830,0.104,-0.565,12.329,-31.006,6.104
0.832,0.088,-0.595,12.573,-26.978,4.700
0.859,0.110,-0.592,13.367,-21.851,3.357
0.888,0.121,-0.611,14.893,-17.761,4.517
0.938,0.157,-0.595,18.066,-14.954,7.751
1.007,0.163,-0.571,23.254,-15.747,13.062
1.029,0.099,-0.594,28.748,-21.912,19.287
1.005,0.070,-0.604,30.884,-29.480,23.071
0.959,0.074,-0.588,31.128,-35.339,23.315
0.916,0.064,-0.593,30.151,-38.940,21.851
0.880,0.073,-0.592,29.175,-39.917,19.714
0.911,0.109,-0.549,28.198,-38.818,17.883
0.939,0.079,-0.557,29.297,-40.222,19.104
0.820,-0.013,-0.667,28.503,-41.992,19.897
0.752,0.142,-0.581,23.499,-33.447,14.343
0.769,0.139,-0.575,25.452,-21.484,10.376
0.779,0.086,-0.634,32.104,-13.184,8.301
0.758,0.122,-0.599,33.325,-2.258,5.859
0.806,0.135,-0.556,35.645,7.568,6.226
0.872,0.130,-0.537,39.734,15.076,7.324
0.919,0.106,-0.522,42.786,16.113,9.460
0.947,0.127,-0.486,43.030,12.024,11.658
0.928,0.123,-0.463,43.579,3.418,13.489
0.923,0.127,-0.439,43.274,-5.554,14.954
0.911,0.131,-0.422,42.908,-14.587,15.991
0.890,0.121,-0.414,42.175,-22.583,16.846

0.169,-0.561,1.866,-75.684,0.061,-19.165
-0.045,-0.756,1.881,-112.610,8.484,-33.630
-0.227,-0.996,1.857,-156.616,25.818,-49.072
-0.309,-1.218,1.801,-209.106,50.049,-66.528
-0.211,-1.382,1.713,-263.184,76.172,-87.585
-0.017,-1.563,1.525,-315.918,96.985,-110.046
0.152,-1.777,1.267,-369.812,113.892,-129.272
0.227,-1.921,0.968,-425.049,130.737,-145.020
0.258,-1.911,0.599,-475.647,148.743,-161.438
0.345,-1.887,0.200,-511.841,174.438,-176.208
0.487,-1.882,-0.148,-537.476,212.769,-187.683
0.630,-1.842,-0.399,-556.824,258.728,-193.054
0.814,-1.814,-0.561,-573.975,300.232,-186.401
1.043,-1.773,-0.675,-591.980,324.280,-166.565
1.296,-1.649,-0.736,-609.192,317.810,-134.277
1.495,-1.460,-0.724,-618.530,274.353,-92.529
1.555,-1.315,-0.673,-614.563,203.003,-50.354
1.535,-1.253,-0.821,-596.252,116.028,-16.968
1.520,-1.230,-1.115,-559.937,22.766,2.808
1.441,-1.107,-1.376,-513.245,-56.519,6.104
1.224,-0.881,-1.627,-459.167,-106.018,-2.502
0.949,-0.638,-1.793,-392.090,-120.300,-15.747
0.772,-0.447,-1.715,-319.580,-101.135,-28.809
0.859,-0.440,-1.514,-243.164,-63.721,-32.349
1.009,-0.714,-1.324,-167.908,-30.273,-22.339
1.080,-0.902,-1.243,-113.220,-11.475,-11.414
1.170,-0.981,-1.207,-78.308,-5.920,-3.967
1.255,-1.085,-1.197,-51.758,-5.493,1.221
1.265,-1.159,-1.183,-34.973,-9.033,3.601
1.227,-1.122,-1.143,-28.320,-15.015,1.709
1.202,-1.019,-1.088,-25.513,-21.179,-2.380
1.159,-0.879,-1.038,-23.865,-25.085,-7.385
1.082,-0.710,-0.987,-21.301,-25.452,-14.160
1.040,-0.555,-0.923,-16.541,-21.301,-21.118
1.047,-0.437,-0.860,-9.460,-13.794,-26.978
1.043,-0.363,-0.813,-0.549,-5.432,-30.212
1.036,-0.314,-0.776,9.216,2.197,-30.273
1.054,-0.260,-0.710,17.456,8.484,-27.222
1.084,-0.223,-0.624,24.597,12.390,-21.362
1.086,-0.214,-0.547,30.701,13.184,-13.977
1.079,-0.195,-0.499,35.217,11.047,-6.104
1.074,-0.166,-0.457,38.452,6.653,0.671
1.059,-0.148,-0.415,40.344,1.404,6.775
1.036,-0.138,-0.374,41.016,-2.991,11.719
1.015,-0.145,-0.353,41.199,-6.348,14.893
0.994,-0.183,-0.346,40.466,-8.972,17.273
0.965,-0.211,-0.314,35.889,-9.827,19.531
0.954,-0.201,-0.270,28.748,-9.277,20.569
0.945,-0.178,-0.241,21.423,-8.118,19.409
0.906,-0.171,-0.238,15.686,-6.775,16.235
0.864,-0.169,-0.250,12.085,-3.479,11.780
0.855,-0.161,-0.270,10.315,2.563,7.263
0.859,-0.173,-0.266,10.254,11.353,2.686
0.852,-0.193,-0.257,10.742,21.606,-2.258
0.857,-0.202,-0.253,10.376,32.776,-7.507
0.891,-0.192,-0.234,10.986,43.152,-13.062
0.960,-0.180,-0.190,12.512,49.255,-17.517
1.030,-0.180,-0.182,14.771,48.462,-19.836
1.073,-0.215,-0.183,17.517,42.419,-18.494
1.105,-0.244,-0.167,18.494,31.616,-15.198
1.113,-0.239,-0.168,17.578,18.066,-10.620
1.086,-0.225,-0.173,16.663,5.554,-4.822
1.068,-0.215,-0.158,16.479,-3.784,0.244
1.066,-0.210,-0.164,16.724,-12.573,3.784
1.042,-0.208,-0.196,17.944,-19.958,5.859
0.996,-0.218,-0.204,18.738,-23.254,7.996
0.984,-0.195,-0.179,18.188,-21.729,9.644
1.000,-0.174,-0.151,18.250,-19.226,10.742
0.992,-0.149,-0.142,18.433,-17.517,11.169
0.964,-0.141,-0.153,18.677,-14.893,11.292
0.957,-0.138,-0.171,19.592,-11.292,10.315
0.965,-0.132,-0.173,21.423,-7.874,9.033
0.978,-0.141,-0.166,23.132,-4.456,7.996
0.987,-0.155,-0.166,23.987,-3.296,6.714
0.994,-0.162,-0.164,23.621,-3.113,5.554
0.997,-0.170,-0.174,22.522,-4.089,5.066
0.990,-0.174,-0.187,21.484,-5.188,4.150
0.979,-0.178,-0.196,20.508,-5.249,3.052
0.966,-0.182,-0.204,19.348,-4.395,2.136
0.958,-0.187,-0.204,17.944,-2.686,1.343
0.965,-0.180,-0.199,16.846,-0.427,1.099
0.974,-0.177,-0.196,15.686,1.221,1.221
0.978,-0.180,-0.199,15.015,2.136,1.343
0.973,-0.182,-0.211,14.648,2.441,1.526
0.977,-0.181,-0.209,14.526,3.174,2.197
0.981,-0.187,-0.207,14.954,3.723,3.418
0.981,-0.203,-0.212,15.320,3.723,4.517
0.985,-0.209,-0.213,15.625,3.540,5.188
0.987,-0.208,-0.208,16.052,2.869,4.761
0.985,-0.201,-0.205,16.724,1.831,3.967
0.975,-0.195,-0.202,17.456,1.221,2.808
0.962,-0.198,-0.205,18.433,1.526,1.404
0.961,-0.213,-0.200,19.470,3.479,0.183
0.968,-0.231,-0.188,19.836,6.470,-0.732
0.985,-0.237,-0.167,18.372,8.240,-0.610
1.004,-0.231,-0.155,15.991,7.507,0.488
1.006,-0.220,-0.156,13.062,4.822,1.953
1.001,-0.202,-0.163,10.925,0.977,3.113
0.991,-0.190,-0.173,9.705,-2.686,4.089
0.972,-0.177,-0.188,9.338,-5.371,5.371
0.943,-0.166,-0.209,10.071,-6.104,6.287
0.930,-0.158,-0.214,11.536,-4.517,6.531
0.941,-0.158,-0.218,13.428,-1.709,6.165
0.950,-0.175,-0.229,15.564,0.549,5.127
0.947,-0.182,-0.245,16.907,2.502,3.845
0.961,-0.193,-0.260,17.822,4.150,2.747
0.973,-0.204,-0.274,19.165,5.371,1.587
0.977,-0.198,-0.294,19.775,6.531,0.610
0.985,-0.184,-0.303,20.996,7.568,0.122
0.999,-0.180,-0.311,23.437,8.057,1.099
1.019,-0.175,-0.305,25.818,7.141,2.991
1.037,-0.157,-0.294,28.259,5.127,5.005
1.044,-0.150,-0.290,31.067,1.282,7.202
1.051,-0.159,-0.281,33.264,-2.625,10.315
1.049,-0.174,-0.277,35.278,-6.836,13.550
1.036,-0.175,-0.282,36.316,-10.437,16.418
1.021,-0.181,-0.292,37.109,-13.123,18.921
1.018,-0.194,-0.309,37.964,-14.648,20.447
1.004,-0.206,-0.335,38.818,-14.893,20.569

1.104,-0.569,1.320,-71.289,72.083,-1.038
1.215,-0.581,1.341,-114.197,86.487,-2.808
1.279,-0.617,1.255,-153.320,89.783,-0.122
1.316,-0.696,1.119,-189.270,84.961,5.920
1.324,-0.805,0.961,-222.229,78.613,14.526
1.335,-0.913,0.862,-255.005,74.463,25.513
1.319,-1.009,0.836,-289.368,73.608,37.354
1.289,-1.104,0.803,-323.547,73.242,49.561
1.238,-1.177,0.773,-358.093,72.815,63.171
1.163,-1.222,0.715,-389.282,74.158,74.768
1.130,-1.235,0.667,-415.588,77.393,84.106
1.112,-1.285,0.599,-435.181,81.970,91.797
1.093,-1.371,0.545,-453.613,84.839,98.450
1.072,-1.451,0.514,-469.910,86.426,103.882
1.081,-1.534,0.451,-483.765,84.717,109.375
1.096,-1.611,0.393,-495.361,79.773,116.028
1.064,-1.720,0.342,-505.188,70.496,123.901
0.983,-1.855,0.252,-517.456,59.265,131.226
0.875,-1.946,0.117,-531.494,50.537,135.742
0.786,-1.984,-0.054,-543.762,46.509,137.878
0.724,-1.987,-0.250,-550.903,45.471,140.137
0.656,-1.941,-0.400,-552.246,47.729,141.052
0.606,-1.844,-0.531,-547.852,53.650,141.174
0.571,-1.756,-0.633,-538.696,59.937,141.113
0.535,-1.659,-0.729,-524.841,64.209,139.038
0.522,-1.568,-0.839,-507.385,62.622,136.108
0.499,-1.502,-0.988,-485.535,55.054,134.338
0.472,-1.484,-1.156,-458.801,44.006,133.301
0.451,-1.524,-1.311,-431.274,32.104,131.165
0.462,-1.538,-1.458,-405.579,18.005,126.709
0.491,-1.456,-1.611,-379.150,-1.282,120.300
0.530,-1.324,-1.744,-348.145,-23.437,111.633
0.563,-1.183,-1.802,-309.998,-42.969,99.915
0.577,-1.032,-1.768,-265.991,-56.274,84.717
0.580,-0.860,-1.679,-219.360,-64.453,67.993
0.591,-0.713,-1.564,-169.739,-67.749,52.124
0.604,-0.633,-1.436,-118.286,-63.721,39.368
0.611,-0.623,-1.305,-70.068,-53.772,29.663
0.671,-0.672,-1.150,-30.151,-39.856,21.973
0.776,-0.700,-0.974,-3.723,-26.062,15.564
0.865,-0.695,-0.817,10.803,-17.456,10.559
0.915,-0.662,-0.689,15.930,-14.771,7.385
0.930,-0.607,-0.638,14.954,-15.015,4.883
0.927,-0.533,-0.635,10.620,-14.771,2.991
0.940,-0.469,-0.611,5.371,-12.024,1.587
0.946,-0.406,-0.575,-0.916,-9.155,0.916
0.953,-0.332,-0.547,-8.179,-6.592,0.671
0.950,-0.254,-0.545,-14.771,-4.700,1.282
0.934,-0.195,-0.551,-19.836,-3.235,2.319
0.908,-0.156,-0.561,-22.766,-0.916,3.418
0.883,-0.136,-0.589,-23.865,2.197,4.700
0.868,-0.135,-0.618,-22.461,6.531,5.249
0.862,-0.160,-0.634,-20.203,10.620,5.371
0.857,-0.192,-0.641,-17.395,14.038,5.371
0.856,-0.211,-0.654,-14.404,15.564,4.944
0.855,-0.214,-0.657,-11.597,15.381,4.395
0.868,-0.226,-0.651,-8.118,14.282,3.479
0.882,-0.256,-0.630,-4.395,11.719,2.625
0.880,-0.258,-0.601,-2.258,8.789,1.648
0.874,-0.244,-0.589,-0.488,5.798,0.244
0.872,-0.234,-0.579,2.014,4.150,-1.587
0.871,-0.224,-0.565,4.456,4.150,-3.357
0.874,-0.223,-0.551,8.301,4.944,-5.310
0.892,-0.233,-0.530,12.268,6.348,-7.568
0.902,-0.254,-0.507,15.503,7.629,-9.766
0.913,-0.268,-0.496,18.311,8.667,-12.207
0.931,-0.274,-0.485,20.203,9.583,-14.221
0.946,-0.274,-0.479,22.400,9.583,-15.503
0.960,-0.250,-0.477,25.452,8.545,-16.113
0.977,-0.257,-0.461,29.846,6.653,-16.296
1.001,-0.273,-0.438,33.142,3.540,-15.930
1.017,-0.261,-0.404,34.851,-0.549,-14.709
0.977,-0.267,-0.422,36.682,-3.723,-11.353
0.946,-0.235,-0.429,37.903,-4.395,-8.118
0.983,-0.224,-0.402,40.466,-2.380,-3.784
0.963,-0.270,-0.393,43.274,-4.211,-0.427
0.901,-0.253,-0.452,44.006,-8.362,1.038
0.867,-0.254,-0.471,47.363,-6.714,3.601
0.829,-0.271,-0.531,51.697,-1.892,4.700
0.855,-0.264,-0.439,55.664,7.507,2.197
1.025,-0.147,-0.291,58.167,6.165,0.366
0.960,-0.240,-0.459,63.416,-8.911,3.235
0.843,-0.243,-0.435,64.636,-10.498,4.333
0.891,-0.207,-0.403,63.049,-6.714,3.479
0.934,-0.203,-0.324,62.683,-5.432,2.319
0.989,-0.122,-0.293,59.387,-8.423,2.930
0.912,-0.192,-0.327,59.082,-8.423,9.277
0.926,-0.186,-0.270,54.321,-7.996,10.498
0.971,-0.119,-0.252,47.363,-10.986,8.545
0.956,-0.114,-0.262,44.739,-11.597,9.216
0.924,-0.114,-0.280,41.809,-11.658,8.850
0.948,-0.100,-0.272,38.940,-8.972,8.728
0.966,-0.130,-0.253,36.377,-5.615,10.071
0.974,-0.129,-0.250,31.860,-3.723,9.705
0.973,-0.103,-0.251,27.161,-2.686,9.766
0.986,-0.088,-0.267,23.865,-1.953,11.597
0.967,-0.104,-0.284,21.790,-2.319,13.245
0.951,-0.064,-0.295,19.409,-3.174,12.878
0.942,-0.056,-0.320,19.714,-2.747,13.855
0.933,-0.070,-0.325,21.484,-1.099,15.015
0.937,-0.079,-0.325,22.949,-0.610,15.503
0.947,-0.090,-0.336,24.536,-1.770,15.381
0.944,-0.109,-0.349,26.489,-4.517,14.771
0.932,-0.115,-0.372,28.931,-7.324,13.306
0.914,-0.118,-0.404,32.654,-8.789,10.803
0.909,-0.162,-0.420,37.231,-6.958,7.751
0.916,-0.191,-0.419,40.955,-2.258,3.357
0.944,-0.206,-0.425,44.128,2.808,-1.526
0.974,-0.241,-0.432,47.302,6.470,-6.042
0.992,-0.257,-0.434,48.950,9.399,-11.292
1.007,-0.265,-0.451,50.476,11.841,-16.968
1.012,-0.257,-0.480,52.856,14.954,-22.705
1.006,-0.221,-0.496,57.068,19.714,-27.649
1.007,-0.191,-0.509,63.354,24.170,-30.396
1.011,-0.169,-0.513,70.862,26.550,-31.006
1.021,-0.138,-0.498,78.369,26.367,-30.029
1.032,-0.133,-0.503,86.853,22.949,-27.405
1.023,-0.187,-0.507,94.971,17.517,-22.705
1.001,-0.235,-0.479,99.548,12.695,-17.273

0.989,-0.673,1.352,139.771,37.048,-31.860
0.947,-0.903,1.366,117.004,38.452,-23.865
0.906,-1.097,1.356,78.003,39.307,-14.221
0.851,-1.219,1.281,24.841,43.091,-4.700
0.813,-1.279,1.150,-38.025,50.354,1.892
0.820,-1.351,0.960,-107.788,64.270,7.080
0.884,-1.419,0.755,-182.983,83.069,13.245
0.899,-1.454,0.581,-260.315,103.638,20.447
0.896,-1.471,0.370,-333.923,121.582,27.893
0.890,-1.511,0.166,-398.743,135.742,35.034
0.892,-1.552,-0.062,-451.477,146.118,42.297
0.918,-1.587,-0.319,-493.408,154.114,50.903
0.962,-1.624,-0.491,-529.785,163.574,60.913
1.023,-1.621,-0.547,-563.354,171.753,72.388
1.047,-1.600,-0.490,-592.224,169.922,84.106
1.075,-1.669,-0.434,-614.441,160.828,96.252
1.124,-1.758,-0.423,-633.911,142.273,107.727
1.079,-1.804,-0.500,-649.780,116.699,115.295
0.938,-1.809,-0.627,-658.386,92.834,119.019
0.790,-1.751,-0.756,-658.020,76.294,118.042
0.693,-1.687,-0.922,-644.409,68.176,115.906
0.598,-1.622,-1.020,-623.962,68.604,115.662
0.538,-1.505,-1.040,-600.586,76.355,115.906
0.519,-1.322,-1.030,-571.655,84.167,116.272
0.512,-1.166,-1.022,-535.767,89.417,118.591
0.499,-1.032,-1.041,-493.774,90.698,119.568
0.518,-0.888,-1.079,-445.984,86.060,118.713
0.535,-0.819,-1.085,-395.081,78.186,117.249
0.522,-0.801,-1.038,-347.107,68.909,114.685
0.482,-0.778,-1.001,-302.917,57.312,109.131
0.448,-0.835,-1.001,-262.756,46.265,102.783
0.413,-0.958,-1.022,-227.478,38.696,96.252
0.364,-1.026,-1.030,-201.172,34.302,88.257
0.361,-1.038,-1.055,-181.885,30.334,78.369
0.411,-1.043,-1.091,-165.710,24.109,68.481
0.450,-0.999,-1.095,-152.893,16.113,58.899
0.470,-0.925,-1.096,-142.700,7.812,49.500
0.488,-0.814,-1.100,-132.385,0.488,40.222
0.511,-0.679,-1.104,-119.873,-5.554,29.663
0.539,-0.550,-1.101,-103.760,-9.460,17.700
0.560,-0.460,-1.097,-84.106,-10.315,5.981
0.606,-0.419,-1.044,-62.866,-8.179,-3.967
0.666,-0.390,-0.974,-43.762,-3.967,-12.939
0.719,-0.374,-0.902,-26.794,-0.366,-21.118
0.781,-0.405,-0.846,-12.634,1.892,-26.978
0.844,-0.433,-0.772,-3.662,2.930,-29.968
0.892,-0.435,-0.691,-0.366,2.930,-30.334
0.928,-0.434,-0.643,-0.732,1.038,-28.503
0.957,-0.431,-0.624,-3.052,-1.953,-25.146
0.982,-0.423,-0.603,-6.104,-4.883,-21.179
0.999,-0.398,-0.592,-10.254,-7.812,-16.785
1.002,-0.360,-0.591,-14.404,-11.353,-12.390
0.981,-0.326,-0.610,-17.273,-13.550,-7.751
0.968,-0.306,-0.613,-17.944,-13.062,-3.357
0.966,-0.291,-0.604,-17.578,-10.803,0.854
0.960,-0.275,-0.599,-16.052,-8.789,5.066
0.961,-0.292,-0.599,-13.916,-6.409,8.301
0.962,-0.311,-0.594,-12.085,-5.066,10.986
0.953,-0.314,-0.578,-11.292,-5.432,13.306
0.924,-0.317,-0.579,-10.559,-6.470,14.893
0.891,-0.321,-0.588,-9.583,-6.348,15.564
0.861,-0.321,-0.585,-8.301,-4.272,14.893
0.853,-0.321,-0.573,-6.714,-1.282,12.817
0.854,-0.330,-0.577,-5.005,0.488,9.338
0.839,-0.343,-0.601,-3.235,3.113,6.531
0.848,-0.331,-0.548,-2.930,10.193,5.188
0.910,-0.286,-0.461,-3.479,13.733,4.272
0.930,-0.297,-0.480,-3.296,7.568,4.456
0.875,-0.278,-0.544,-2.625,0.244,4.700
0.856,-0.279,-0.538,-0.793,-0.305,5.859
0.860,-0.289,-0.507,1.831,0.610,6.409
0.867,-0.296,-0.501,3.906,0.610,6.165
0.891,-0.289,-0.482,5.859,1.160,6.409
0.896,-0.316,-0.471,7.751,-0.427,6.897
0.889,-0.303,-0.484,8.240,-5.432,5.920
0.875,-0.310,-0.490,9.949,-9.094,5.615
0.846,-0.303,-0.494,12.451,-10.620,4.883
0.857,-0.307,-0.488,15.076,-10.559,4.028
0.867,-0.292,-0.495,18.555,-10.803,2.502
0.845,-0.295,-0.521,24.048,-9.583,1.709
0.860,-0.306,-0.505,29.785,-5.310,1.282
0.908,-0.311,-0.428,32.959,-1.221,0.000
0.933,-0.330,-0.432,34.546,-2.136,-1.282
0.945,-0.307,-0.386,34.180,-3.357,-3.174
0.975,-0.284,-0.423,34.058,-6.226,-4.028
0.936,-0.292,-0.401,35.278,-6.531,-2.380
0.932,-0.284,-0.378,33.569,-4.517,0.671
0.934,-0.274,-0.352,32.104,-1.953,2.991
0.944,-0.221,-0.345,29.602,-1.892,4.028
0.947,-0.203,-0.354,29.541,-2.319,6.897
0.944,-0.191,-0.354,30.334,-3.357,9.460
0.932,-0.191,-0.348,31.250,-5.127,11.597
0.911,-0.200,-0.348,32.532,-7.019,13.306
0.890,-0.205,-0.348,33.630,-7.141,14.648
0.882,-0.224,-0.349,34.241,-5.859,14.954
0.883,-0.244,-0.327,33.264,-2.747,14.465
0.879,-0.253,-0.309,30.640,0.977,13.306
0.889,-0.260,-0.297,27.039,4.150,11.658
0.894,-0.258,-0.297,23.010,6.653,9.460
0.891,-0.246,-0.308,19.592,7.874,6.897
0.896,-0.226,-0.306,16.785,8.362,4.333
0.903,-0.206,-0.302,14.771,7.629,1.770
0.914,-0.199,-0.307,14.343,6.348,-0.366
0.918,-0.201,-0.308,14.099,4.456,-1.160
0.922,-0.215,-0.310,13.916,2.380,-1.221
0.909,-0.214,-0.320,14.099,1.038,-0.427
0.902,-0.209,-0.333,14.893,0.549,0.916
0.909,-0.204,-0.342,16.907,1.099,2.258
0.918,-0.202,-0.344,19.836,1.221,3.540
0.929,-0.213,-0.340,22.888,-0.305,4.211
0.939,-0.220,-0.339,25.513,-2.136,4.456
0.948,-0.204,-0.337,27.588,-4.333,4.395
0.958,-0.203,-0.329,29.358,-6.714,4.517
0.959,-0.198,-0.304,29.724,-8.972,5.493
0.951,-0.187,-0.293,28.503,-10.559,6.897
0.942,-0.183,-0.281,26.794,-10.803,8.667
0.949,-0.168,-0.276,24.902,-10.803,10.376
0.948,-0.155,-0.280,22.949,-11.108,12.146
0.942,-0.143,-0.284,21.118,-11.353,13.672

1.426,-0.402,1.086,-21.729,76.172,-6.836
1.484,-0.459,1.200,-47.913,86.304,-3.418
1.515,-0.526,1.302,-77.515,92.102,0.916
1.531,-0.616,1.421,-110.718,96.863,8.789
1.527,-0.707,1.514,-149.231,98.206,20.691
1.488,-0.834,1.587,-193.848,94.727,36.743
1.421,-1.014,1.609,-243.896,86.548,57.312
1.361,-1.207,1.521,-299.255,72.754,78.735
1.300,-1.316,1.398,-355.774,54.565,96.680
1.184,-1.394,1.236,-404.297,36.377,108.154
1.074,-1.520,1.012,-445.007,26.001,111.633
1.004,-1.654,0.765,-481.140,26.672,109.497
0.925,-1.753,0.581,-511.353,36.499,105.469
0.858,-1.846,0.387,-536.011,52.246,100.891
0.830,-1.932,0.192,-558.472,70.313,97.229
0.821,-1.925,0.066,-581.055,84.290,94.055
0.821,-1.851,-0.027,-598.755,88.928,94.482
0.823,-1.772,-0.096,-610.168,80.200,101.379
0.824,-1.739,-0.142,-614.136,56.274,110.596
0.807,-1.738,-0.264,-611.328,21.973,117.981
0.766,-1.732,-0.432,-603.882,-14.954,121.277
0.712,-1.696,-0.596,-593.567,-46.509,116.333
0.670,-1.612,-0.767,-579.163,-71.411,102.234
0.595,-1.447,-0.958,-558.838,-88.684,81.055
0.504,-1.265,-1.151,-528.381,-91.187,55.115
0.414,-1.055,-1.334,-488.464,-77.881,30.823
0.418,-0.856,-1.442,-439.575,-51.941,10.742
0.531,-0.678,-1.421,-382.690,-23.865,-3.967
0.626,-0.612,-1.353,-320.190,-4.761,-14.648
0.665,-0.705,-1.278,-257.690,9.338,-20.386
0.729,-0.812,-1.206,-205.383,18.860,-23.560
0.862,-0.823,-1.070,-165.588,20.020,-24.719
0.933,-0.939,-0.987,-135.498,11.353,-19.958
0.915,-0.984,-0.973,-115.906,-3.479,-14.526
0.888,-0.890,-0.956,-105.652,-13.672,-8.728
0.891,-0.780,-0.940,-96.558,-19.104,-2.258
0.901,-0.706,-0.921,-85.754,-21.057,3.174
0.921,-0.598,-0.884,-74.158,-21.118,5.249
0.947,-0.486,-0.845,-61.584,-20.447,5.066
0.949,-0.397,-0.801,-46.753,-20.874,3.296
0.937,-0.338,-0.746,-32.166,-19.836,0.793
0.930,-0.279,-0.687,-18.677,-15.747,-2.869
0.934,-0.249,-0.643,-6.897,-9.949,-7.202
0.954,-0.246,-0.611,3.662,-2.625,-11.841
0.989,-0.224,-0.536,10.986,6.226,-15.381
1.025,-0.217,-0.451,15.076,15.320,-16.602
1.059,-0.218,-0.385,15.686,20.447,-15.625
1.089,-0.208,-0.326,13.611,20.752,-13.306
1.103,-0.202,-0.284,10.193,17.700,-9.583
1.113,-0.215,-0.267,6.042,11.536,-4.517
1.095,-0.193,-0.282,1.221,4.456,1.953
1.069,-0.161,-0.309,-2.258,-1.282,9.766
1.043,-0.125,-0.333,-2.747,-4.822,16.357
1.032,-0.117,-0.354,0.122,-6.836,21.057
1.026,-0.129,-0.364,5.005,-7.874,24.170
1.007,-0.145,-0.356,9.460,-8.484,25.940
0.983,-0.165,-0.345,13.306,-8.728,25.818
0.963,-0.194,-0.318,16.357,-7.324,23.743
0.962,-0.225,-0.322,18.188,-5.066,20.691
0.967,-0.237,-0.288,18.066,-2.930,17.090
0.973,-0.233,-0.250,15.808,-1.526,13.550
0.973,-0.211,-0.232,12.634,-1.587,10.071
0.972,-0.177,-0.236,10.193,-1.587,7.507
0.973,-0.140,-0.237,8.545,-1.099,6.531
0.978,-0.120,-0.232,8.301,-0.366,7.080
0.990,-0.108,-0.215,9.338,-0.183,7.874
1.004,-0.086,-0.216,11.169,-1.221,9.521
1.014,-0.092,-0.214,13.855,-3.357,11.597
1.001,-0.121,-0.214,16.357,-6.592,12.512
0.956,-0.140,-0.230,17.090,-9.094,11.902
0.902,-0.158,-0.234,17.212,-6.470,10.132
0.840,-0.167,-0.323,17.822,1.160,7.080
0.856,-0.258,-0.323,18.982,19.409,1.953
1.170,-0.006,0.157,15.259,30.212,-4.395
1.047,-0.161,-0.340,18.921,-2.319,-1.404
0.885,-0.239,-0.220,20.813,-2.869,2.197
0.958,-0.160,-0.267,12.939,-2.869,0.732
0.963,-0.169,-0.239,15.015,-1.953,2.380
0.954,-0.190,-0.238,15.564,1.221,6.653
0.980,-0.176,-0.255,15.808,0.671,8.972
0.980,-0.131,-0.261,17.822,-2.014,10.437
0.943,-0.179,-0.299,22.095,-4.456,12.085
0.919,-0.218,-0.279,25.391,-4.822,10.986
0.947,-0.210,-0.235,26.245,-6.775,6.165
0.953,-0.121,-0.272,26.550,-9.583,2.502
0.917,-0.173,-0.265,30.090,-5.981,4.517
0.918,-0.184,-0.234,31.677,-1.648,4.517
0.958,-0.165,-0.209,30.884,-0.854,1.587
0.983,-0.162,-0.203,30.334,-1.953,-1.160
0.981,-0.135,-0.204,30.273,-4.700,-2.869
0.942,-0.127,-0.232,31.555,-5.493,-3.235
0.934,-0.173,-0.236,34.058,-1.953,-3.052
0.963,-0.173,-0.218,34.424,3.357,-3.723
0.988,-0.138,-0.244,34.241,6.958,-4.700
0.996,-0.159,-0.247,35.767,11.841,-4.089
1.025,-0.105,-0.233,36.804,14.465,-3.906
1.032,-0.182,-0.273,39.856,13.123,-3.357
1.012,-0.130,-0.297,41.870,12.451,-5.249
1.001,-0.142,-0.326,46.448,12.329,-5.310
0.987,-0.137,-0.363,52.551,13.611,-5.432
0.994,-0.151,-0.364,60.059,15.686,-5.554
1.001,-0.167,-0.369,67.505,16.052,-5.981
0.993,-0.175,-0.390,74.707,14.893,-6.226
0.979,-0.188,-0.425,82.458,13.245,-5.493
0.969,-0.202,-0.449,89.905,13.428,-4.333
0.965,-0.189,-0.462,97.046,15.381,-3.723
0.980,-0.170,-0.474,104.675,17.517,-3.479
0.994,-0.166,-0.479,112.854,19.043,-3.113
0.998,-0.149,-0.477,120.544,20.935,-2.258
1.000,-0.124,-0.465,127.869,22.705,-1.038
1.001,-0.094,-0.464,135.376,23.804,0.366
1.000,-0.074,-0.471,143.494,24.353,1.648
0.993,-0.071,-0.483,152.222,24.780,2.380
0.987,-0.071,-0.499,161.499,25.391,1.648
0.991,-0.070,-0.516,171.326,25.635,-0.732
1.000,-0.091,-0.528,181.030,24.658,-2.991
1.003,-0.121,-0.524,188.354,23.682,-4.333
0.999,-0.139,-0.521,193.604,22.949,-5.493
1.001,-0.172,-0.527,197.510,21.973,-5.493

1.784,-0.488,1.231,46.753,13.855,15.869
1.808,-0.683,1.456,25.024,5.249,24.353
1.780,-0.815,1.593,-10.498,-5.432,31.433
1.703,-0.899,1.578,-57.312,-17.700,40.955
1.593,-0.966,1.493,-109.863,-26.306,52.551
1.474,-1.002,1.375,-162.537,-27.100,63.477
1.314,-1.017,1.178,-211.731,-17.517,70.618
1.184,-1.055,0.945,-250.427,4.578,73.608
1.105,-1.156,0.730,-282.776,36.377,76.233
1.086,-1.271,0.531,-316.345,71.838,80.017
1.090,-1.349,0.401,-351.562,103.027,83.801
1.125,-1.425,0.280,-385.315,123.047,86.975
1.164,-1.496,0.183,-418.762,127.930,91.248
1.133,-1.521,0.109,-451.477,117.371,95.764
1.050,-1.515,0.006,-477.478,94.360,97.534
0.969,-1.520,-0.178,-495.117,62.805,96.680
0.868,-1.529,-0.297,-507.568,32.349,95.093
0.760,-1.541,-0.329,-516.357,5.432,91.309
0.710,-1.604,-0.468,-520.447,-24.170,86.121
0.617,-1.663,-0.564,-526.917,-51.880,80.200
0.522,-1.667,-0.588,-534.912,-71.716,68.542
0.482,-1.601,-0.674,-540.100,-87.952,51.331
0.425,-1.450,-0.775,-542.053,-95.520,33.936
0.274,-1.206,-0.887,-537.354,-89.233,17.212
0.130,-0.914,-1.002,-519.836,-69.214,3.479
0.121,-0.626,-1.047,-489.502,-36.560,-2.563
0.230,-0.387,-1.049,-446.350,0.427,-3.235
0.358,-0.313,-1.025,-395.752,33.752,-1.404
0.432,-0.329,-0.964,-344.849,59.875,4.944
0.506,-0.344,-0.887,-298.950,74.341,12.634
0.600,-0.399,-0.862,-257.935,76.172,20.325
0.674,-0.550,-0.827,-222.107,69.214,26.733
0.721,-0.716,-0.797,-196.899,56.152,33.447
0.737,-0.848,-0.815,-182.983,36.804,38.269
0.710,-0.935,-0.878,-176.514,16.235,39.185
0.657,-0.920,-0.987,-173.950,1.892,36.377
0.621,-0.813,-1.089,-169.189,-2.808,31.860
0.605,-0.676,-1.161,-159.485,-0.671,26.917
0.622,-0.532,-1.223,-142.517,5.188,22.156
0.654,-0.399,-1.266,-117.676,13.794,16.663
0.696,-0.295,-1.275,-86.731,23.193,12.024
0.732,-0.250,-1.237,-52.734,31.982,8.423
0.792,-0.249,-1.169,-20.447,37.231,4.395
0.891,-0.284,-1.064,7.629,37.964,1.648
1.008,-0.375,-0.914,29.297,32.227,0.671
1.097,-0.490,-0.774,41.504,18.433,0.488
1.120,-0.583,-0.638,42.847,-0.427,-0.916
1.086,-0.613,-0.547,34.912,-18.433,-2.808
1.033,-0.586,-0.522,22.034,-31.433,-3.845
1.001,-0.495,-0.526,8.484,-36.255,-4.272
1.011,-0.383,-0.522,-2.014,-33.386,-4.272
1.016,-0.293,-0.505,-7.629,-26.428,-3.296
1.010,-0.214,-0.489,-9.216,-18.921,-1.831
1.012,-0.155,-0.491,-6.958,-12.695,0.549
1.009,-0.134,-0.485,-2.502,-7.996,3.479
1.000,-0.137,-0.464,2.991,-4.456,6.958
0.995,-0.145,-0.441,6.836,-2.258,10.315
1.001,-0.162,-0.424,9.888,-2.014,14.099
0.994,-0.188,-0.398,10.620,-4.150,17.700
0.970,-0.204,-0.371,9.399,-7.141,20.630
0.942,-0.227,-0.348,6.653,-10.071,22.278
0.910,-0.240,-0.354,2.625,-11.841,22.095
0.896,-0.209,-0.360,-2.747,-10.437,20.508
0.879,-0.176,-0.367,-6.165,-7.141,18.066
0.843,-0.143,-0.392,-7.263,-2.380,14.282
0.872,-0.086,-0.400,-6.104,3.296,9.888
0.869,-0.068,-0.434,-1.160,8.179,6.226
0.827,-0.086,-0.462,4.944,13.855,2.686
0.833,-0.124,-0.463,10.864,22.034,-2.380
0.874,-0.107,-0.357,15.259,29.419,-7.874
0.994,-0.066,-0.254,17.761,25.330,-10.498
0.987,-0.110,-0.371,20.813,10.010,-9.521
0.880,-0.138,-0.392,21.912,2.930,-7.568
0.869,-0.132,-0.395,21.973,1.831,-7.629
0.912,-0.161,-0.343,23.865,2.686,-8.118
0.951,-0.191,-0.357,24.902,3.784,-7.263
0.965,-0.270,-0.321,25.085,5.310,-4.395
0.999,-0.252,-0.307,20.874,1.953,-4.700
1.028,-0.212,-0.325,18.250,-4.150,-4.517
0.990,-0.206,-0.371,18.494,-8.606,-2.686
0.971,-0.160,-0.411,21.118,-10.925,-1.343
0.979,-0.151,-0.416,26.855,-8.850,0.610
0.967,-0.151,-0.415,33.508,-5.432,2.502
0.978,-0.146,-0.409,39.856,-2.136,3.662
1.000,-0.160,-0.410,46.692,-0.122,4.822
0.983,-0.162,-0.426,53.467,1.160,5.981
0.966,-0.176,-0.427,59.814,2.441,6.897
0.963,-0.193,-0.423,65.002,3.906,7.690
0.967,-0.202,-0.408,69.458,5.066,8.362
0.987,-0.206,-0.407,73.242,3.479,8.423
0.997,-0.220,-0.386,75.256,-0.061,8.606
0.983,-0.223,-0.378,74.890,-4.700,9.155
0.952,-0.197,-0.403,74.524,-8.972,9.460
0.940,-0.148,-0.423,74.646,-10.376,10.071
0.942,-0.114,-0.423,76.294,-9.644,10.559
0.945,-0.100,-0.427,79.773,-7.874,10.498
0.952,-0.049,-0.424,84.106,-5.005,8.179
0.975,-0.008,-0.427,89.722,-1.892,5.371
0.984,-0.016,-0.410,96.191,0.977,3.479
0.989,-0.035,-0.364,100.403,4.761,2.258
1.005,-0.040,-0.328,102.295,7.263,1.221
1.035,-0.076,-0.297,102.844,6.714,0.854
1.058,-0.127,-0.247,98.511,4.578,1.404
1.072,-0.135,-0.210,89.294,1.526,2.808
1.067,-0.097,-0.192,78.003,-2.014,5.249
1.049,-0.056,-0.195,67.810,-5.249,7.996
1.030,-0.026,-0.199,59.082,-6.836,10.681
1.028,0.019,-0.204,52.734,-7.324,13.245
1.030,0.052,-0.205,48.401,-7.751,16.296
1.039,0.040,-0.197,46.082,-7.996,19.348
1.058,-0.004,-0.173,43.701,-9.216,21.667
1.070,-0.057,-0.153,39.551,-13.245,22.705
1.069,-0.111,-0.141,33.386,-19.714,22.888
1.074,-0.162,-0.143,26.001,-27.161,21.790
1.048,-0.169,-0.174,17.456,-34.912,18.982
1.029,-0.163,-0.200,9.949,-39.490,15.320
1.048,-0.174,-0.202,4.150,-40.649,12.695
1.071,-0.187,-0.198,-0.244,-41.443,10.803
1.065,-0.162,-0.217,-4.211,-43.884,9.460

1.676,-1.157,1.503,134.949,76.233,-27.893
1.521,-1.418,2.131,-49.988,76.172,0.122
1.267,-1.782,2.169,-275.085,22.217,9.155
1.351,-2.078,1.730,-503.662,-56.335,8.972
1.210,-1.974,1.021,-697.144,-119.263,16.113
1.014,-1.597,0.562,-819.214,-154.236,20.447
1.026,-1.416,0.405,-871.948,-175.781,16.479
0.947,-1.162,0.059,-887.634,-185.242,2.625
0.634,-0.512,-0.387,-868.530,-169.067,-22.766
0.411,0.237,-0.651,-824.890,-107.483,-43.274
0.640,0.797,-0.883,-768.494,-20.569,-46.204
1.149,1.048,-1.114,-692.749,50.171,-34.058
1.544,1.188,-1.350,-594.543,85.388,-20.203
1.721,1.216,-1.305,-479.309,82.642,-5.432
1.808,1.055,-1.016,-362.793,48.523,14.954
1.790,0.620,-0.792,-249.512,-5.859,37.476
1.510,0.123,-0.631,-157.349,-58.350,50.354
1.096,-0.303,-0.534,-95.703,-83.130,49.500
0.900,-0.659,-0.371,-65.552,-64.026,39.307
0.967,-0.770,-0.215,-66.711,-19.775,26.733
1.116,-0.577,-0.164,-85.022,11.658,15.137
1.118,-0.290,-0.166,-99.548,20.264,6.470
1.036,0.020,-0.172,-103.943,18.127,-0.061
0.942,0.261,-0.181,-95.764,13.550,-5.188
0.920,0.355,-0.184,-78.186,12.817,-8.606
0.968,0.335,-0.142,-56.641,15.381,-10.315
1.014,0.255,-0.078,-36.987,16.113,-11.658
1.056,0.159,-0.012,-23.315,13.428,-12.512
1.065,0.104,0.047,-17.517,8.179,-12.939
1.049,0.105,0.086,-16.479,3.906,-13.245
1.052,0.121,0.110,-17.395,2.808,-13.733
1.038,0.142,0.086,-18.921,2.441,-15.991
1.034,0.177,0.032,-20.264,4.150,-19.287
1.082,0.234,-0.004,-17.883,9.094,-19.592
1.120,0.183,-0.025,-11.230,13.733,-14.771
1.103,0.152,-0.021,-6.592,14.160,-10.620
1.089,0.131,-0.053,-4.089,10.803,-7.019
1.086,0.087,-0.042,-1.526,9.888,-3.235
1.083,0.069,-0.031,-0.854,7.507,-0.854
1.068,0.056,-0.038,-0.366,2.258,0.427
1.054,0.048,-0.045,0.244,-2.625,0.488
1.020,0.051,-0.050,0.244,-5.005,0.122
0.997,0.085,-0.060,0.732,-5.920,0.000
0.992,0.132,-0.084,2.197,-5.371,0.610
0.978,0.167,-0.088,5.432,-5.188,2.258
0.958,0.175,-0.083,10.559,-4.883,4.272
0.938,0.147,-0.080,15.808,-3.845,6.348
0.919,0.106,-0.064,18.433,-1.648,7.996
0.922,0.102,-0.057,18.311,1.038,8.423
0.922,0.121,-0.044,17.090,3.357,7.751
0.929,0.134,-0.043,16.907,4.822,6.287
0.948,0.129,-0.042,18.127,4.150,4.333
0.955,0.124,-0.015,18.494,2.930,2.502
0.952,0.160,-0.025,17.578,0.000,0.488
0.936,0.203,-0.065,18.372,-2.991,-2.258
0.925,0.224,-0.068,21.179,-4.028,-5.432
0.903,0.221,-0.075,26.306,-2.991,-9.949
0.909,0.170,-0.058,32.227,-0.854,-15.076
0.938,0.101,-0.001,34.424,2.869,-19.226
0.965,0.073,0.016,31.372,5.371,-21.545
0.980,0.087,0.014,25.635,5.310,-22.705
0.978,0.089,0.015,19.714,5.859,-22.583
0.996,0.116,-0.001,13.855,8.484,-20.813
1.019,0.162,-0.020,9.277,9.888,-17.639
1.042,0.199,-0.046,7.935,9.033,-13.733
1.068,0.204,-0.059,9.888,5.188,-9.277
1.064,0.200,-0.053,12.756,-0.916,-5.188
1.045,0.202,-0.022,14.587,-6.897,-1.953
1.019,0.173,-0.021,15.320,-11.841,1.099
1.001,0.143,-0.010,13.733,-14.648,3.906
0.991,0.145,0.013,8.972,-14.954,5.737
0.979,0.167,0.007,3.601,-15.198,6.165
0.960,0.199,-0.004,-0.488,-14.221,4.761
0.959,0.210,-0.021,-2.014,-11.536,2.441
0.968,0.206,-0.026,-2.258,-8.972,0.366
0.971,0.195,-0.018,-2.747,-6.287,-1.709
0.982,0.191,-0.025,-3.601,-3.967,-2.991
0.986,0.200,-0.038,-4.395,-2.319,-3.906
0.997,0.207,-0.038,-4.211,-1.221,-4.456
1.006,0.201,-0.051,-3.052,-0.916,-4.456
1.011,0.186,-0.060,-0.977,-2.197,-4.150
1.001,0.167,-0.056,0.366,-3.357,-3.845
0.992,0.141,-0.052,0.977,-3.662,-3.479
1.000,0.110,-0.058,1.038,-3.662,-3.174
1.004,0.102,-0.050,-0.854,-3.235,-2.441
1.005,0.121,-0.057,-2.991,-2.625,-1.587
1.012,0.145,-0.069,-3.906,-2.747,-0.916
1.001,0.153,-0.085,-2.625,-3.540,-0.183
0.997,0.135,-0.094,0.305,-3.601,0.549
0.999,0.119,-0.083,2.686,-3.174,1.526
0.994,0.114,-0.078,3.601,-3.174,2.136
0.976,0.116,-0.078,4.395,-3.296,2.075
0.970,0.123,-0.077,5.493,-2.136,1.099
0.969,0.121,-0.086,7.446,-1.404,-0.427
0.973,0.128,-0.064,9.460,-0.977,-2.136
0.983,0.120,-0.051,10.986,-0.977,-3.357
0.977,0.118,-0.039,10.742,-2.075,-4.028
0.959,0.125,-0.034,9.583,-2.747,-4.395
0.953,0.134,-0.022,7.874,-2.686,-3.906
0.953,0.146,-0.018,5.920,-1.160,-3.174
0.956,0.163,-0.023,3.967,-0.061,-2.136
0.959,0.172,-0.025,3.174,0.916,-1.099
0.948,0.181,-0.032,2.380,1.404,-0.366
0.940,0.187,-0.037,2.502,2.258,-0.305
0.945,0.193,-0.052,3.296,3.540,-0.488
0.948,0.196,-0.069,5.066,4.883,-0.427
0.945,0.200,-0.083,7.935,6.104,-0.366
0.941,0.199,-0.073,12.573,7.507,-0.916
0.973,0.162,-0.066,17.517,8.057,-1.404
0.985,0.106,-0.071,20.996,4.944,-2.014
0.959,0.075,-0.053,21.118,2.747,-3.174
0.934,0.075,-0.046,19.104,2.319,-5.127
0.923,0.089,-0.062,17.273,3.845,-8.057
0.909,0.117,-0.087,15.747,7.385,-10.437
0.890,0.163,-0.114,16.296,13.062,-12.634
0.900,0.214,-0.133,19.775,20.813,-14.404
0.918,0.249,-0.154,26.367,28.564,-14.954
0.923,0.266,-0.166,35.950,35.156,-14.587
0.941,0.267,-0.164,46.570,39.795,-13.611

1.472,-1.085,1.487,-205.322,36.072,27.832
1.424,-1.371,1.508,-377.136,-39.734,35.400
1.328,-1.329,1.123,-552.002,-126.953,53.101
1.215,-1.212,0.563,-690.247,-192.261,80.078
1.043,-1.285,0.284,-759.705,-227.234,106.628
0.855,-1.112,0.172,-784.729,-242.920,121.643
0.668,-0.917,0.243,-797.485,-236.572,126.770
0.676,-0.729,0.136,-801.453,-220.947,119.873
0.673,-0.443,-0.113,-791.687,-203.491,105.957
0.713,-0.083,-0.480,-764.343,-178.406,86.182
0.768,0.248,-0.844,-720.825,-144.104,58.167
0.850,0.500,-1.179,-662.537,-104.431,27.527
0.942,0.838,-1.452,-589.661,-68.604,-0.916
1.060,1.110,-1.545,-497.131,-43.396,-25.269
1.095,1.222,-1.421,-388.489,-24.963,-41.992
1.034,1.022,-1.119,-264.954,-6.104,-55.969
0.943,0.494,-0.823,-148.926,14.893,-69.458
0.920,0.003,-0.620,-71.716,36.499,-81.604
1.028,-0.434,-0.379,-34.851,58.105,-88.257
1.253,-0.748,-0.204,-31.677,68.604,-86.060
1.410,-0.793,-0.173,-49.255,58.899,-77.271
1.364,-0.566,-0.210,-71.411,33.569,-65.918
1.238,-0.302,-0.264,-85.205,7.141,-52.979
1.167,-0.034,-0.304,-87.158,-9.644,-38.635
1.135,0.165,-0.316,-77.332,-18.311,-22.461
1.078,0.325,-0.348,-57.434,-24.353,-7.019
1.013,0.355,-0.340,-30.334,-27.283,7.751
1.006,0.275,-0.272,-4.272,-26.184,20.569
1.020,0.195,-0.177,14.160,-25.574,27.893
1.036,0.079,-0.074,23.376,-24.414,30.579
1.002,0.065,-0.023,22.278,-25.391,26.917
0.973,0.024,-0.032,16.846,-24.658,22.278
0.967,0.053,-0.037,7.629,-18.982,14.709
0.984,0.157,-0.038,-1.343,-14.221,4.822
1.000,0.256,-0.075,-5.310,-14.221,-1.648
0.961,0.308,-0.117,-4.150,-15.259,-3.784
0.959,0.285,-0.126,0.183,-15.747,-3.479
0.975,0.258,-0.104,3.601,-16.663,-2.441
0.975,0.236,-0.102,5.066,-20.447,-0.488
0.944,0.212,-0.107,5.432,-24.841,1.282
0.916,0.194,-0.104,4.639,-25.452,2.258
0.901,0.203,-0.102,3.296,-23.315,1.465
0.890,0.209,-0.092,2.319,-18.738,-0.549
0.891,0.223,-0.102,2.014,-12.634,-2.380
0.921,0.232,-0.115,2.197,-6.714,-3.235
0.956,0.244,-0.114,3.113,-1.404,-3.418
0.992,0.252,-0.088,4.822,1.221,-3.784
0.990,0.231,-0.072,7.202,-0.122,-4.578
0.977,0.197,-0.102,9.521,-2.319,-5.737
0.981,0.155,-0.058,10.193,-1.587,-6.592
1.000,0.125,-0.002,7.751,0.977,-6.897
1.014,0.147,0.005,2.563,1.831,-6.714
1.030,0.181,-0.006,-3.357,0.671,-6.104
1.023,0.200,-0.025,-6.226,-0.671,-5.005
1.017,0.215,-0.047,-6.775,-1.709,-3.479
1.016,0.227,-0.072,-6.104,-2.319,-1.953
1.007,0.227,-0.089,-4.028,-2.930,-0.061
0.986,0.218,-0.095,-0.549,-3.235,0.671
0.967,0.194,-0.130,3.418,-2.808,0.305
0.972,0.150,-0.121,6.958,-1.587,-1.038
0.981,0.110,-0.084,8.240,0.916,-2.502
0.978,0.105,-0.084,7.141,2.014,-3.357
0.980,0.132,-0.098,5.066,2.258,-3.784
0.980,0.163,-0.103,4.089,2.197,-4.089
0.973,0.189,-0.136,5.554,0.488,-3.967
0.977,0.175,-0.136,9.155,-1.709,-3.906
0.982,0.163,-0.090,11.414,-2.869,-3.601
0.969,0.178,-0.080,11.475,-4.639,-3.540
0.956,0.193,-0.080,11.047,-5.554,-3.845
0.950,0.204,-0.086,11.353,-4.456,-3.967
0.959,0.217,-0.080,11.902,-2.014,-4.150
0.979,0.213,-0.085,13.794,0.000,-4.211
0.997,0.184,-0.084,15.869,0.488,-4.150
0.997,0.169,-0.066,16.357,0.732,-4.211
0.999,0.172,-0.057,15.686,1.587,-4.822
1.008,0.174,-0.053,14.648,2.502,-5.676
1.005,0.181,-0.067,13.794,1.953,-6.226
0.999,0.196,-0.081,13.794,1.160,-6.470
0.985,0.210,-0.088,14.893,0.244,-6.653
0.969,0.210,-0.094,17.029,-0.061,-7.385
0.957,0.191,-0.076,19.958,0.671,-8.118
0.962,0.128,-0.070,21.545,2.869,-8.362
0.989,0.076,-0.060,19.836,4.700,-7.202
1.001,0.068,-0.038,14.771,5.798,-5.798
1.002,0.096,-0.038,8.911,5.310,-4.761
1.002,0.144,-0.053,4.395,4.517,-3.540
1.006,0.170,-0.085,3.174,3.479,-2.319
1.003,0.186,-0.105,4.089,2.136,-0.427
0.995,0.205,-0.115,6.348,1.282,1.160
0.985,0.219,-0.123,10.071,0.122,2.441
0.986,0.219,-0.122,14.771,-0.427,2.991
0.993,0.199,-0.093,19.897,-0.610,3.113
1.001,0.155,-0.072,24.109,-1.221,2.808
0.997,0.127,-0.060,24.597,-2.747,2.563
0.977,0.121,-0.045,22.583,-3.601,2.014
0.964,0.125,-0.035,19.653,-2.441,1.526
0.964,0.138,-0.041,17.029,-0.488,0.732
0.960,0.154,-0.051,14.404,1.343,0.244
0.949,0.166,-0.067,13.245,3.113,-0.122
0.950,0.177,-0.076,12.634,5.554,-0.916
0.955,0.192,-0.079,13.000,7.935,-1.953
0.967,0.183,-0.089,15.137,9.277,-2.686
0.980,0.162,-0.087,17.212,8.789,-2.625
0.983,0.157,-0.075,17.639,7.385,-2.380
0.976,0.150,-0.052,17.395,5.981,-1.892
0.985,0.136,-0.047,16.724,5.188,-1.404
0.984,0.133,-0.048,14.709,3.357,-0.427
0.982,0.137,-0.047,11.841,1.465,0.549
0.975,0.141,-0.055,9.460,-0.549,1.038
0.959,0.149,-0.071,7.935,-1.709,0.916
0.949,0.157,-0.080,7.446,-1.343,0.122
0.939,0.166,-0.085,7.629,0.305,-1.038
0.940,0.162,-0.093,8.667,2.808,-2.563
0.944,0.161,-0.096,10.010,5.859,-3.540
0.943,0.165,-0.096,11.169,8.972,-5.188
0.946,0.169,-0.103,12.817,11.536,-7.263
0.942,0.183,-0.131,14.832,14.282,-8.850
0.943,0.200,-0.148,18.066,18.188,-9.521
0.955,0.217,-0.150,22.888,22.217,-9.888

1.184,-1.107,1.103,-13.000,200.378,40.588
1.371,-1.282,1.444,-196.106,269.409,103.882
1.714,-1.810,1.649,-411.255,272.766,175.537
1.598,-1.994,1.159,-679.382,177.002,239.746
0.803,-2.321,-0.039,-947.693,62.134,286.804
0.326,-2.886,-0.992,-1131.470,-2.136,316.284
0.543,-3.486,-1.723,-1199.890,-22.156,301.086
1.145,-3.543,-1.767,-1187.866,-35.461,241.028
1.646,-3.101,-1.372,-1175.110,-66.406,190.125
1.817,-2.578,-1.401,-1162.476,-133.545,157.288
1.255,-2.186,-2.178,-1100.647,-187.561,89.050
0.465,-1.531,-2.564,-992.249,-154.968,-8.667
0.237,-1.060,-2.792,-884.338,-80.750,-56.580
0.396,-0.335,-3.057,-753.784,6.409,-67.688
0.771,0.391,-2.882,-611.084,92.163,-60.059
1.238,0.949,-2.378,-469.299,135.193,-24.048
1.619,1.011,-1.890,-301.392,116.821,31.555
1.707,0.212,-1.262,-129.944,65.674,86.182
1.562,-0.504,-0.862,-11.719,12.878,130.676
1.401,-0.970,-0.532,49.683,-36.743,161.621
1.423,-1.081,-0.322,69.885,-96.863,177.979
1.070,-1.186,-0.287,69.580,-134.460,197.021
0.988,-1.194,-0.084,49.133,-133.850,211.975
0.994,-0.832,-0.091,8.728,-140.625,207.336
0.821,-0.515,-0.096,-22.095,-138.672,192.139
0.672,-0.164,-0.142,-45.166,-122.681,165.771
0.673,0.154,-0.180,-53.955,-96.741,133.423
0.686,0.344,-0.231,-49.988,-68.909,100.952
0.639,0.375,-0.343,-35.095,-44.434,69.824
0.651,0.347,-0.350,-16.235,-19.409,40.161
0.718,0.283,-0.276,-0.549,0.366,11.963
0.793,0.302,-0.202,10.437,12.146,-13.306
0.835,0.279,-0.170,20.142,18.860,-28.931
0.897,0.085,-0.099,27.405,27.039,-35.889
0.953,-0.022,-0.077,25.391,28.076,-42.969
0.998,-0.124,-0.030,17.334,27.710,-47.119
1.031,-0.144,0.030,3.357,27.344,-49.927
1.059,-0.081,-0.014,-11.902,20.447,-52.246
1.010,-0.005,-0.114,-21.606,14.648,-50.659
0.986,0.050,-0.195,-24.414,14.160,-45.105
0.994,0.069,-0.244,-20.081,14.832,-38.757
1.003,0.085,-0.288,-11.108,12.085,-34.363
1.002,0.077,-0.331,1.404,7.690,-30.640
0.990,0.056,-0.337,14.709,4.150,-28.015
0.967,0.035,-0.329,27.222,3.540,-26.001
0.973,-0.024,-0.292,39.368,7.141,-23.804
1.024,-0.085,-0.224,48.035,11.414,-22.217
1.078,-0.150,-0.180,53.589,12.390,-21.057
1.103,-0.200,-0.147,54.749,10.010,-19.409
1.097,-0.208,-0.111,50.415,6.531,-17.273
1.082,-0.177,-0.091,43.335,3.357,-14.587
1.059,-0.130,-0.107,36.926,0.610,-11.536
1.023,-0.095,-0.144,32.837,-0.977,-9.277
1.022,-0.071,-0.172,31.738,-1.160,-8.606
1.020,-0.047,-0.206,33.447,-2.319,-8.301
0.997,-0.021,-0.231,37.781,-4.150,-8.301
0.975,-0.001,-0.248,43.945,-5.188,-9.094
0.958,-0.025,-0.308,52.673,-5.432,-9.949
0.946,-0.088,-0.332,60.303,-4.272,-8.911
0.950,-0.144,-0.293,63.049,0.061,-7.629
0.973,-0.180,-0.255,63.171,4.333,-7.751
1.012,-0.212,-0.259,62.744,6.226,-7.202
1.051,-0.245,-0.224,57.373,6.714,-4.272
1.086,-0.247,-0.154,46.997,4.395,-2.136
1.106,-0.211,-0.125,36.011,-2.075,-0.488
1.083,-0.162,-0.136,25.818,-9.827,1.526
1.047,-0.082,-0.171,18.066,-15.381,3.052
1.028,-0.017,-0.214,14.954,-18.311,4.150
1.005,0.023,-0.240,15.869,-17.639,5.615
0.983,0.049,-0.258,19.531,-14.038,6.714
0.977,0.059,-0.259,25.391,-7.874,7.751
0.990,0.049,-0.254,31.555,-0.732,8.118
0.999,0.025,-0.259,37.781,4.822,7.935
1.008,-0.004,-0.247,42.175,9.155,7.690
1.027,-0.028,-0.238,45.105,11.536,7.202
1.034,-0.054,-0.254,48.096,11.169,5.371
1.030,-0.085,-0.270,49.927,9.766,3.845
1.026,-0.087,-0.260,49.377,9.277,2.563
1.030,-0.080,-0.240,48.645,10.254,1.465
1.063,-0.114,-0.219,47.668,10.925,2.014
1.098,-0.118,-0.167,42.175,8.362,4.272
1.107,-0.092,-0.107,34.180,3.235,6.287
1.085,-0.035,-0.093,26.428,-3.418,8.057
1.022,0.017,-0.130,20.752,-8.728,10.193
0.981,0.054,-0.161,18.799,-9.338,12.146
0.970,0.087,-0.179,19.348,-5.127,13.245
0.973,0.111,-0.174,23.193,0.977,13.489
0.995,0.092,-0.162,28.320,6.287,12.573
1.018,0.072,-0.146,32.837,9.338,10.864
1.027,0.074,-0.132,36.438,9.705,9.399
1.023,0.039,-0.138,40.100,8.179,9.155
1.032,0.008,-0.111,40.344,6.897,11.047
1.038,-0.001,-0.074,36.865,6.470,13.916
1.048,-0.009,-0.045,32.166,4.944,16.541
1.055,0.001,-0.026,26.123,1.221,19.104
1.051,0.018,-0.034,20.447,-4.211,20.935
1.036,0.012,-0.043,16.113,-10.376,22.217
1.010,0.006,-0.047,11.047,-14.893,22.827
0.989,0.023,-0.061,6.409,-16.846,22.888
0.971,0.042,-0.075,3.540,-15.869,22.949
0.959,0.060,-0.094,2.197,-12.634,21.912
0.957,0.062,-0.111,2.686,-8.118,20.020
0.956,0.052,-0.125,4.333,-3.296,17.395
0.952,0.043,-0.141,5.676,1.526,14.282
0.962,0.027,-0.143,7.385,6.348,10.986
0.977,0.011,-0.142,8.362,10.986,8.240
0.992,0.015,-0.148,8.850,15.015,5.859
1.018,0.020,-0.154,9.399,17.090,4.883
1.044,0.020,-0.161,11.047,16.785,5.188
1.060,0.022,-0.173,13.123,14.893,6.409
1.055,0.023,-0.194,15.747,11.902,8.240
1.050,0.040,-0.213,19.104,9.766,10.681
1.040,0.064,-0.222,23.804,9.460,13.245
1.023,0.078,-0.230,29.663,10.681,15.991
1.003,0.094,-0.247,36.438,13.428,18.250
0.991,0.123,-0.261,44.312,17.578,19.470
0.974,0.151,-0.273,54.016,22.400,19.897
0.965,0.173,-0.289,65.186,27.161,19.226
0.958,0.178,-0.311,78.064,31.494,17.212

1.027,-0.690,1.071,87.769,87.280,1.770
1.052,-0.868,1.248,58.044,93.262,11.414
1.082,-1.038,1.429,8.362,94.910,25.391
1.098,-1.230,1.597,-65.430,89.539,42.297
1.097,-1.410,1.647,-164.734,77.148,61.157
1.033,-1.585,1.503,-288.635,60.364,81.177
0.804,-1.798,1.229,-430.603,46.692,98.145
0.597,-1.922,0.844,-570.679,39.978,103.821
0.613,-1.813,0.389,-681.763,42.847,94.604
0.778,-1.685,-0.020,-753.296,53.345,78.430
0.862,-1.709,-0.288,-793.579,66.895,64.453
0.857,-1.805,-0.429,-818.176,81.665,50.598
0.924,-1.862,-0.558,-831.177,91.003,30.579
1.031,-1.893,-0.751,-832.581,98.755,9.338
1.147,-1.748,-0.978,-825.745,103.516,-7.996
1.137,-1.447,-1.223,-803.223,105.835,-21.240
0.969,-1.142,-1.458,-758.057,114.685,-28.564
0.864,-0.803,-1.673,-693.665,131.226,-22.705
0.864,-0.409,-1.758,-615.479,148.682,-0.732
0.959,-0.019,-1.726,-522.583,156.250,31.677
1.074,0.132,-1.600,-411.926,147.644,65.735
1.129,0.031,-1.396,-297.302,119.690,93.994
1.062,-0.243,-1.245,-192.444,78.979,114.746
0.888,-0.537,-1.168,-105.713,39.368,127.625
0.746,-0.888,-1.140,-38.452,9.399,131.287
0.702,-1.128,-1.100,6.287,-8.057,124.268
0.672,-1.243,-1.062,31.433,-14.526,113.708
0.618,-1.269,-1.025,42.603,-13.000,102.783
0.667,-1.156,-0.939,42.358,-9.155,89.600
0.756,-0.996,-0.829,36.865,-9.583,75.317
0.771,-0.789,-0.781,30.579,-18.127,58.228
0.748,-0.692,-0.776,25.818,-29.236,44.556
0.718,-0.531,-0.739,20.630,-37.354,29.785
0.678,-0.292,-0.710,15.625,-41.626,15.137
0.649,-0.162,-0.649,18.799,-37.231,7.874
0.641,-0.100,-0.616,26.428,-29.541,0.854
0.663,-0.036,-0.595,33.630,-21.301,-5.798
0.699,-0.014,-0.565,43.701,-11.230,-10.742
0.745,-0.033,-0.532,52.795,-2.197,-15.625
0.812,-0.059,-0.500,59.692,5.371,-19.653
0.884,-0.103,-0.466,64.270,8.545,-22.522
0.942,-0.160,-0.412,65.125,8.118,-23.804
0.979,-0.185,-0.357,59.509,5.310,-23.621
0.983,-0.161,-0.325,50.720,0.488,-22.217
0.992,-0.142,-0.309,41.626,-4.333,-19.165
0.988,-0.123,-0.293,31.982,-8.240,-14.343
0.974,-0.094,-0.278,22.400,-9.583,-9.521
0.965,-0.071,-0.296,14.160,-8.911,-4.639
0.952,-0.070,-0.326,7.629,-6.592,0.183
0.947,-0.057,-0.336,2.625,-1.953,5.127
0.956,-0.032,-0.344,-0.916,3.052,7.935
0.961,-0.022,-0.347,-1.526,7.080,9.338
0.957,-0.025,-0.356,-0.427,9.766,9.399
0.958,-0.032,-0.364,1.282,11.414,8.667
0.950,-0.037,-0.371,3.723,11.902,7.690
0.943,-0.042,-0.371,5.981,12.634,6.348
0.945,-0.036,-0.356,8.789,13.245,3.296
0.967,-0.062,-0.370,13.184,12.512,-0.732
0.973,-0.145,-0.364,16.235,10.376,-2.991
0.979,-0.153,-0.323,13.000,9.644,-3.723
0.968,-0.167,-0.294,7.812,8.728,-3.662
0.927,-0.226,-0.282,1.404,8.301,-3.784
0.979,-0.101,-0.277,-6.104,7.690,-5.432
0.995,-0.104,-0.321,-8.423,3.967,-3.174
0.976,-0.087,-0.339,-9.460,-0.793,-0.549
0.983,-0.045,-0.336,-10.010,-4.761,1.343
0.981,-0.014,-0.348,-7.629,-10.010,2.380
0.924,0.000,-0.375,-2.808,-14.587,3.296
0.904,0.004,-0.377,3.601,-14.343,4.639
0.902,0.007,-0.372,9.949,-11.292,5.920
0.903,0.006,-0.364,17.212,-8.118,6.287
0.922,-0.005,-0.345,23.193,-6.287,5.249
0.949,-0.034,-0.323,28.198,-6.714,2.441
0.952,-0.065,-0.322,31.799,-8.606,-0.305
0.942,-0.092,-0.337,34.241,-10.498,-2.136
0.944,-0.104,-0.339,34.729,-11.292,-3.052
0.954,-0.100,-0.313,33.875,-11.108,-3.174
0.962,-0.090,-0.285,31.677,-10.986,-3.052
0.965,-0.066,-0.271,29.663,-11.292,-3.113
0.974,-0.064,-0.267,28.381,-11.780,-3.235
0.978,-0.076,-0.271,27.100,-12.390,-3.357
0.972,-0.082,-0.269,24.597,-12.024,-3.418
0.972,-0.086,-0.265,21.362,-10.742,-2.991
0.974,-0.088,-0.269,17.273,-9.460,-2.136
0.971,-0.083,-0.277,13.672,-7.996,-0.854
0.969,-0.076,-0.278,10.742,-6.470,0.671
0.967,-0.075,-0.289,8.484,-5.920,1.587
0.953,-0.077,-0.310,6.836,-5.554,2.075
0.941,-0.063,-0.338,6.409,-4.272,2.136
0.942,-0.062,-0.350,6.836,-2.258,2.258
0.948,-0.067,-0.352,8.240,-0.854,2.197
0.949,-0.075,-0.361,9.827,0.122,1.099
0.939,-0.078,-0.377,11.841,1.160,-1.160
0.932,-0.077,-0.391,14.282,2.808,-3.296
0.937,-0.074,-0.403,17.395,4.822,-5.127
0.943,-0.070,-0.394,20.752,6.897,-6.592
0.956,-0.069,-0.377,23.621,8.179,-7.385
0.974,-0.078,-0.364,26.367,7.629,-7.568
0.989,-0.089,-0.354,28.381,5.127,-7.019
1.000,-0.091,-0.331,29.175,1.892,-5.920
0.994,-0.087,-0.321,28.748,-1.587,-4.089
0.984,-0.078,-0.314,27.527,-4.700,-2.808
0.976,-0.073,-0.305,26.489,-6.714,-1.221
0.963,-0.066,-0.302,25.574,-7.874,0.549
0.957,-0.048,-0.296,24.292,-8.057,1.709
0.950,-0.035,-0.289,23.499,-7.507,2.258
0.938,-0.021,-0.289,23.193,-5.737,1.648
0.929,-0.019,-0.294,23.560,-3.418,0.244
0.935,-0.033,-0.296,23.987,-0.610,-1.770
0.940,-0.045,-0.299,23.560,2.136,-3.540
0.943,-0.060,-0.313,23.254,4.517,-5.371
0.944,-0.070,-0.315,22.461,7.019,-7.141
0.951,-0.075,-0.314,20.691,9.583,-8.423
0.961,-0.078,-0.315,19.287,11.353,-9.155
0.972,-0.082,-0.309,17.578,12.268,-9.460
0.970,-0.068,-0.319,15.930,12.146,-9.460
0.968,-0.052,-0.324,15.015,11.902,-9.338
0.981,-0.052,-0.324,15.442,11.353,-8.545
0.993,-0.056,-0.328,16.052,9.949,-7.385

0.707,-0.913,1.196,101.440,108.154,-17.639
0.694,-0.962,1.109,55.481,103.760,-17.212
0.732,-1.052,1.007,-3.845,103.699,-12.207
0.792,-1.140,0.785,-79.529,104.187,-1.526
0.913,-1.313,0.464,-175.781,109.192,13.123
1.056,-1.586,0.197,-296.204,122.253,26.550
1.070,-1.738,-0.147,-443.298,132.812,37.415
1.040,-1.797,-0.562,-597.839,136.536,49.683
0.965,-1.724,-0.842,-730.347,132.812,59.570
0.986,-1.824,-0.772,-824.524,117.249,62.927
1.078,-2.047,-0.678,-890.198,93.018,59.692
1.079,-2.134,-0.818,-926.208,58.289,48.584
0.873,-2.062,-1.160,-926.575,25.391,29.846
0.693,-1.825,-1.609,-894.287,15.564,4.272
0.705,-1.437,-1.979,-836.426,36.743,-16.296
0.735,-0.882,-2.269,-763.916,78.064,-26.367
0.683,-0.279,-2.347,-677.063,128.662,-24.780
0.741,0.265,-2.222,-572.754,175.110,-11.963
0.983,0.579,-1.933,-454.224,198.669,10.132
1.262,0.645,-1.634,-326.294,187.256,41.504
1.372,0.428,-1.378,-205.017,144.775,69.275
1.264,0.040,-1.228,-100.952,90.576,87.952
1.026,-0.299,-1.173,-19.409,41.077,99.060
0.868,-0.607,-1.102,38.025,5.798,102.905
0.841,-0.821,-0.984,73.242,-14.282,102.356
0.820,-0.982,-0.847,90.881,-23.926,99.854
0.762,-1.055,-0.741,92.468,-28.625,92.407
0.742,-0.949,-0.646,78.674,-33.020,80.566
0.735,-0.740,-0.571,59.326,-35.278,69.885
0.689,-0.569,-0.531,41.687,-33.752,62.012
0.687,-0.377,-0.502,24.902,-29.236,53.894
0.711,-0.162,-0.441,11.047,-23.315,43.884
0.727,-0.032,-0.427,4.883,-19.897,33.325
0.726,0.003,-0.429,3.723,-18.616,22.827
0.729,0.083,-0.422,3.784,-17.578,9.705
0.763,0.106,-0.411,7.446,-15.320,-0.122
0.782,0.038,-0.401,12.756,-11.719,-8.545
0.800,-0.035,-0.384,15.747,-7.935,-16.785
0.832,-0.089,-0.352,14.832,-4.272,-23.132
0.864,-0.102,-0.333,10.742,-2.563,-28.015
0.852,-0.112,-0.349,6.104,-2.808,-32.043
0.850,-0.128,-0.374,2.563,-1.160,-33.569
0.886,-0.121,-0.376,-0.977,2.808,-33.325
0.917,-0.104,-0.369,-3.052,6.714,-32.532
0.942,-0.078,-0.370,-3.235,9.338,-31.555
0.973,-0.060,-0.368,-1.770,10.437,-30.640
0.984,-0.077,-0.367,1.831,10.559,-29.724
0.994,-0.109,-0.375,6.348,10.803,-28.259
1.007,-0.131,-0.370,10.498,10.803,-26.062
1.027,-0.150,-0.342,13.489,10.620,-23.193
1.042,-0.160,-0.321,15.503,9.338,-20.264
1.052,-0.169,-0.315,17.517,5.981,-18.311
1.054,-0.175,-0.306,20.020,1.465,-16.968
1.038,-0.175,-0.303,21.790,-3.296,-15.442
1.015,-0.185,-0.321,24.536,-8.057,-14.343
1.001,-0.195,-0.332,28.015,-11.169,-14.099
1.001,-0.214,-0.316,31.067,-12.695,-14.526
1.021,-0.265,-0.276,33.386,-13.184,-14.893
1.045,-0.319,-0.266,33.142,-14.648,-13.794
1.044,-0.336,-0.276,28.625,-18.433,-10.742
1.022,-0.318,-0.258,21.606,-22.217,-5.676
1.018,-0.255,-0.227,14.038,-24.536,0.000
1.010,-0.204,-0.205,8.606,-26.001,5.981
0.974,-0.174,-0.212,5.859,-26.123,10.925
0.947,-0.154,-0.243,5.493,-23.376,14.648
0.948,-0.150,-0.258,6.775,-19.348,17.395
0.951,-0.138,-0.248,8.362,-15.320,19.043
0.945,-0.125,-0.241,10.315,-12.939,18.982
0.930,-0.121,-0.251,12.451,-12.451,17.395
0.911,-0.118,-0.260,15.198,-11.658,14.648
0.900,-0.136,-0.267,18.066,-9.399,11.047
0.889,-0.164,-0.282,20.142,-6.348,7.324
0.897,-0.172,-0.265,20.813,-2.075,3.601
0.907,-0.171,-0.250,20.142,1.770,0.000
0.913,-0.152,-0.253,19.348,4.089,-3.601
0.916,-0.128,-0.256,19.409,4.944,-7.324
0.913,-0.118,-0.262,20.508,4.700,-10.681
0.912,-0.125,-0.260,22.339,4.395,-13.611
0.915,-0.143,-0.254,24.109,4.761,-15.930
0.924,-0.165,-0.255,25.452,5.432,-16.968
0.944,-0.190,-0.253,26.123,5.615,-16.357
0.970,-0.198,-0.240,25.452,4.761,-14.465
0.985,-0.187,-0.232,23.499,2.441,-12.024
0.986,-0.170,-0.230,22.156,-0.977,-9.644
0.980,-0.166,-0.235,22.034,-4.639,-7.568
0.969,-0.167,-0.240,23.071,-7.263,-6.287
0.958,-0.168,-0.240,24.536,-7.751,-5.981
0.952,-0.171,-0.247,27.161,-6.836,-5.737
0.952,-0.183,-0.269,29.724,-5.676,-5.249
0.964,-0.195,-0.270,32.104,-3.906,-4.761
0.981,-0.198,-0.244,33.325,-2.136,-4.211
0.991,-0.201,-0.222,33.875,-1.953,-3.418
0.991,-0.203,-0.206,33.569,-3.662,-2.686
0.986,-0.201,-0.197,32.043,-6.287,-0.549
0.979,-0.190,-0.192,29.663,-8.606,2.075
0.974,-0.174,-0.189,26.978,-10.620,5.188
0.970,-0.164,-0.193,25.024,-13.184,8.484
0.959,-0.164,-0.195,23.804,-15.381,10.803
0.951,-0.173,-0.194,22.766,-16.418,12.146
0.952,-0.181,-0.194,22.095,-16.724,12.451
0.960,-0.199,-0.183,20.264,-16.052,12.085
0.966,-0.208,-0.182,17.639,-14.465,10.559
0.977,-0.208,-0.181,14.893,-12.634,7.996
0.985,-0.211,-0.188,11.719,-10.864,5.127
0.997,-0.216,-0.200,9.033,-9.277,1.953
1.001,-0.213,-0.208,6.836,-7.385,-1.282
1.002,-0.207,-0.220,4.822,-4.944,-3.601
1.001,-0.195,-0.229,3.723,-1.892,-6.042
1.002,-0.177,-0.229,3.113,1.831,-8.118
1.011,-0.155,-0.230,2.930,5.493,-9.338
1.015,-0.136,-0.235,3.723,7.751,-9.338
1.020,-0.123,-0.244,5.676,8.423,-8.545
1.023,-0.123,-0.248,8.240,7.751,-7.263
1.019,-0.124,-0.242,11.047,6.042,-5.920
1.016,-0.122,-0.234,13.245,3.906,-4.395
1.013,-0.127,-0.231,15.259,2.075,-3.174
1.008,-0.146,-0.234,17.212,0.122,-2.258
1.001,-0.160,-0.238,17.761,-0.366,-1.587
1.004,-0.172,-0.241,18.005,-0.610,-0.916

0.799,-1.039,1.550,-1.038,-0.977,56.458
0.514,-1.404,1.687,-109.070,11.536,74.158
0.185,-1.755,1.821,-265.320,39.063,86.792
0.106,-1.958,1.766,-444.336,71.533,90.210
0.434,-1.832,1.640,-604.858,86.670,90.942
0.873,-1.594,1.545,-722.107,73.425,94.604
1.189,-1.630,1.503,-796.692,28.625,100.281
1.199,-1.914,1.229,-854.126,-31.494,106.323
1.043,-1.998,0.681,-901.001,-85.632,93.140
0.944,-1.842,0.116,-925.659,-111.450,58.105
0.892,-1.583,-0.382,-921.814,-102.600,18.005
0.876,-1.260,-0.849,-895.935,-68.848,-22.278
0.872,-0.803,-1.244,-848.022,-20.874,-57.861
0.921,-0.363,-1.552,-777.588,26.611,-81.482
1.085,-0.078,-1.646,-685.913,61.157,-87.402
1.276,0.185,-1.595,-580.017,70.435,-82.947
1.318,0.071,-1.353,-450.623,64.453,-73.669
1.113,-0.377,-1.147,-317.444,47.607,-71.045
0.843,-0.884,-1.094,-207.458,35.522,-75.378
0.681,-1.202,-1.048,-131.165,41.931,-85.144
0.696,-1.421,-0.977,-86.487,57.434,-93.994
0.932,-1.447,-0.891,-64.514,72.571,-92.957
1.173,-1.249,-0.767,-53.040,71.533,-82.458
1.357,-0.999,-0.588,-41.626,48.584,-66.467
1.309,-0.732,-0.514,-28.198,11.597,-45.715
1.168,-0.496,-0.486,-12.146,-19.165,-22.522
1.132,-0.393,-0.414,5.005,-33.936,1.587
1.127,-0.353,-0.346,20.874,-39.551,21.912
1.139,-0.299,-0.286,32.776,-41.138,37.842
1.131,-0.338,-0.271,42.969,-41.870,49.805
1.097,-0.408,-0.265,50.415,-42.603,50.781
1.031,-0.445,-0.227,53.711,-41.504,41.260
0.948,-0.511,-0.199,53.040,-33.264,28.381
0.879,-0.554,-0.204,47.607,-20.874,12.634
0.840,-0.581,-0.202,38.757,-6.409,-4.089
0.845,-0.571,-0.220,28.442,7.507,-21.362
0.886,-0.512,-0.260,18.127,17.151,-37.292
0.916,-0.430,-0.296,10.254,20.752,-48.523
0.921,-0.334,-0.307,5.798,19.592,-54.993
0.911,-0.239,-0.307,5.371,15.320,-58.472
0.907,-0.169,-0.312,9.277,9.521,-59.692
0.887,-0.137,-0.325,16.357,3.357,-58.228
0.883,-0.144,-0.322,25.085,-0.793,-54.565
0.891,-0.190,-0.285,33.569,-2.136,-50.110
0.897,-0.262,-0.234,39.307,0.732,-45.166
0.915,-0.311,-0.214,40.588,5.615,-39.246
0.954,-0.325,-0.206,38.452,9.583,-32.715
0.999,-0.307,-0.193,35.156,11.597,-26.550
1.028,-0.285,-0.157,32.593,12.146,-22.766
1.052,-0.294,-0.133,31.494,12.024,-20.569
1.081,-0.318,-0.124,29.724,9.583,-18.433
1.095,-0.312,-0.093,25.208,5.737,-15.564
1.105,-0.270,-0.087,19.165,1.953,-12.268
1.094,-0.230,-0.111,15.015,-1.587,-8.972
1.070,-0.193,-0.131,13.977,-4.395,-6.226
1.052,-0.182,-0.140,15.503,-4.944,-4.211
1.058,-0.197,-0.138,18.250,-5.066,-2.808
1.056,-0.205,-0.112,19.226,-5.554,-0.916
1.052,-0.213,-0.106,19.226,-6.775,1.587
1.050,-0.198,-0.098,18.433,-8.362,3.784
1.023,-0.187,-0.097,17.944,-9.888,5.188
1.008,-0.182,-0.108,17.883,-10.986,6.104
1.005,-0.178,-0.105,17.212,-11.169,7.446
1.004,-0.169,-0.095,16.296,-10.864,8.789
0.996,-0.172,-0.088,15.320,-10.559,9.827
0.976,-0.169,-0.097,14.343,-9.766,9.827
0.953,-0.157,-0.112,13.367,-9.155,9.033
0.945,-0.144,-0.135,13.733,-8.057,7.751
0.954,-0.150,-0.132,15.381,-6.165,6.226
0.970,-0.174,-0.113,16.907,-3.967,4.822
0.973,-0.195,-0.108,17.456,-2.625,3.479
0.981,-0.191,-0.114,17.212,-2.625,2.014
0.985,-0.175,-0.130,17.395,-3.113,1.343
0.990,-0.157,-0.146,18.127,-4.028,1.282
0.997,-0.159,-0.135,20.630,-5.432,1.282
1.001,-0.186,-0.118,23.010,-6.775,1.343
1.014,-0.222,-0.109,24.475,-8.972,1.587
1.026,-0.262,-0.098,23.743,-11.292,2.380
1.014,-0.285,-0.087,21.545,-12.512,4.395
1.007,-0.271,-0.085,17.212,-12.268,7.202
1.015,-0.248,-0.079,12.756,-11.475,10.498
1.028,-0.217,-0.067,9.338,-10.681,13.977
1.035,-0.182,-0.067,6.958,-11.108,16.968
1.022,-0.164,-0.083,6.042,-12.390,19.592
1.011,-0.166,-0.093,6.775,-13.489,21.667
1.000,-0.170,-0.096,7.141,-13.733,23.437
0.990,-0.170,-0.092,6.958,-13.428,24.292
0.991,-0.173,-0.081,6.775,-12.695,24.109
0.984,-0.173,-0.081,6.470,-12.756,23.254
0.966,-0.173,-0.085,5.554,-13.428,21.484
0.959,-0.180,-0.074,4.639,-13.550,19.409
0.949,-0.181,-0.067,3.052,-13.855,17.090
0.928,-0.172,-0.068,1.343,-13.550,14.587
0.902,-0.163,-0.071,-0.427,-11.719,12.268
0.895,-0.153,-0.044,-1.953,-8.057,10.681
0.917,-0.160,-0.002,-4.578,-4.700,11.353
0.949,-0.183,0.025,-8.911,-4.456,15.259
0.964,-0.194,0.027,-14.771,-8.301,20.325
0.953,-0.183,-0.002,-21.057,-13.977,25.635
0.930,-0.164,-0.057,-25.269,-19.409,30.212
0.923,-0.138,-0.094,-25.452,-21.851,33.020
0.931,-0.112,-0.120,-22.034,-22.400,34.119
0.935,-0.099,-0.147,-15.076,-21.606,32.959
0.935,-0.090,-0.171,-6.226,-19.592,29.907
0.926,-0.101,-0.201,3.845,-15.869,25.208
0.926,-0.119,-0.222,15.137,-10.132,18.921
0.937,-0.139,-0.220,26.428,-3.296,11.902
0.952,-0.152,-0.208,37.170,2.930,5.005
0.948,-0.176,-0.208,46.204,8.179,-1.221
0.940,-0.195,-0.191,53.223,14.648,-5.859
0.957,-0.195,-0.162,57.983,22.644,-9.583
1.013,-0.217,-0.079,60.425,30.212,-11.230
1.115,-0.265,0.003,58.838,32.471,-9.338
1.144,-0.289,0.013,51.758,25.024,-6.165
1.129,-0.275,-0.005,41.321,15.137,-3.235
1.095,-0.212,-0.039,31.006,6.653,-0.305
1.075,-0.138,-0.069,24.292,1.770,3.296
1.057,-0.080,-0.104,21.729,-0.366,7.141
1.030,-0.051,-0.145,22.949,-0.183,10.498

0.794,-1.349,1.317,18.127,59.814,-7.568
0.939,-1.696,1.278,-93.933,65.186,6.897
1.057,-1.845,1.156,-252.441,71.411,25.452
1.046,-1.969,0.996,-436.218,72.449,46.814
1.100,-2.153,0.729,-617.187,62.256,64.270
1.221,-2.161,0.309,-766.846,45.654,70.923
1.263,-1.918,-0.089,-862.427,26.550,68.237
1.157,-1.691,-0.227,-898.926,5.066,57.556
1.046,-1.736,-0.375,-899.597,-4.028,37.476
1.113,-1.790,-0.710,-886.292,-5.127,11.536
1.207,-1.633,-1.070,-862.976,-1.953,-9.277
1.195,-1.421,-1.359,-828.003,6.531,-24.719
1.189,-1.268,-1.687,-778.259,18.860,-40.466
1.184,-0.947,-1.988,-715.637,30.273,-49.194
1.192,-0.419,-2.185,-635.437,37.231,-47.974
1.212,0.076,-2.140,-533.020,38.025,-35.828
1.193,0.302,-1.908,-405.579,33.936,-14.893
1.144,0.148,-1.575,-267.517,21.729,7.202
1.101,-0.234,-1.279,-143.860,5.005,25.330
0.957,-0.521,-1.151,-50.354,-5.127,42.236
0.840,-0.733,-1.047,12.329,-1.038,55.786
0.885,-0.876,-0.827,48.462,10.620,63.110
1.011,-0.913,-0.542,62.073,13.855,66.589
1.078,-0.831,-0.380,60.242,1.343,65.491
1.057,-0.640,-0.351,50.293,-21.301,61.096
1.008,-0.450,-0.319,40.283,-41.870,56.885
0.922,-0.337,-0.279,31.067,-53.284,52.856
0.821,-0.204,-0.235,21.545,-55.725,44.250
0.784,-0.042,-0.213,13.428,-50.537,33.081
0.788,0.046,-0.213,10.010,-39.917,22.583
0.782,0.067,-0.209,8.362,-27.405,10.559
0.813,0.042,-0.183,7.751,-14.893,-2.441
0.854,-0.022,-0.163,6.348,-4.333,-13.977
0.860,-0.097,-0.146,2.380,4.272,-24.536
0.879,-0.147,-0.132,-4.089,10.864,-34.241
0.936,-0.205,-0.117,-11.780,15.381,-41.199
0.966,-0.256,-0.129,-19.592,18.005,-45.044
0.981,-0.274,-0.177,-27.039,18.982,-44.800
1.001,-0.256,-0.214,-33.386,18.982,-41.138
1.026,-0.212,-0.223,-37.170,18.616,-35.400
1.054,-0.186,-0.222,-37.109,16.846,-28.625
1.055,-0.184,-0.236,-33.752,13.428,-20.569
1.051,-0.186,-0.260,-28.198,9.460,-12.268
1.054,-0.192,-0.260,-21.912,6.226,-4.333
1.038,-0.200,-0.245,-15.381,3.723,2.441
1.019,-0.201,-0.231,-9.338,1.343,7.690
1.000,-0.210,-0.220,-3.845,-0.610,10.071
0.985,-0.221,-0.196,0.732,-2.014,10.620
0.964,-0.220,-0.166,3.601,-3.540,9.521
0.938,-0.209,-0.158,4.883,-5.432,7.263
0.905,-0.199,-0.151,5.493,-5.432,3.662
0.891,-0.187,-0.133,5.981,-2.808,-0.854
0.898,-0.183,-0.147,7.202,-0.610,-5.188
0.912,-0.200,-0.161,9.094,-0.122,-9.216
0.912,-0.207,-0.136,8.911,0.122,-11.841
0.906,-0.163,-0.111,7.080,0.427,-13.428
0.907,-0.125,-0.105,5.920,0.183,-15.503
0.925,-0.136,-0.094,6.531,0.916,-17.334
0.947,-0.171,-0.086,6.958,2.197,-17.578
0.961,-0.197,-0.111,6.897,1.343,-15.991
0.974,-0.230,-0.144,6.531,-1.404,-12.451
0.986,-0.231,-0.135,4.639,-3.296,-7.751
1.000,-0.181,-0.117,2.686,-5.188,-3.723
1.012,-0.144,-0.108,2.380,-8.423,-0.854
1.001,-0.155,-0.101,3.906,-10.803,1.709
0.993,-0.185,-0.119,5.432,-11.230,2.502
1.001,-0.205,-0.126,5.798,-9.888,2.075
1.002,-0.209,-0.112,3.967,-7.874,1.770
1.001,-0.186,-0.110,0.977,-6.042,1.404
1.000,-0.148,-0.125,-1.282,-5.249,0.061
0.995,-0.109,-0.142,-1.465,-5.371,-2.441
0.987,-0.106,-0.159,0.854,-5.676,-4.822
0.975,-0.122,-0.167,4.272,-4.944,-7.996
0.956,-0.148,-0.160,6.897,-2.258,-10.986
0.964,-0.187,-0.159,8.728,1.648,-13.184
0.996,-0.210,-0.152,8.728,4.883,-13.428
1.027,-0.214,-0.150,7.690,5.737,-12.695
1.036,-0.200,-0.150,6.836,3.601,-10.925
1.029,-0.174,-0.159,6.409,-0.183,-8.667
1.015,-0.152,-0.164,6.836,-3.357,-6.287
1.007,-0.151,-0.159,8.789,-5.310,-4.150
1.003,-0.165,-0.164,11.597,-6.653,-2.441
1.003,-0.185,-0.160,14.038,-8.484,-0.610
1.000,-0.203,-0.149,15.503,-10.742,0.916
0.995,-0.210,-0.139,15.564,-12.390,2.319
0.984,-0.204,-0.132,15.320,-13.123,2.625
0.975,-0.210,-0.123,15.442,-12.512,2.197
0.972,-0.212,-0.108,14.465,-10.376,1.648
0.967,-0.211,-0.098,12.817,-7.080,1.038
0.977,-0.213,-0.095,11.536,-3.723,0.549
0.998,-0.209,-0.089,8.972,-1.038,0.305
1.003,-0.193,-0.079,6.714,0.183,0.061
1.000,-0.167,-0.081,5.127,0.000,-0.366
0.989,-0.154,-0.089,4.639,-0.793,-0.366
0.985,-0.161,-0.099,4.883,-0.977,-0.061
0.979,-0.167,-0.103,5.676,-0.488,0.488
0.979,-0.168,-0.101,6.042,0.305,1.221
0.981,-0.166,-0.096,6.287,0.671,2.014
0.979,-0.176,-0.090,7.019,0.671,2.319
0.974,-0.185,-0.093,7.629,0.671,2.441
0.976,-0.193,-0.104,8.362,0.854,2.075
0.978,-0.193,-0.093,8.728,1.343,1.953
0.983,-0.196,-0.077,7.690,1.892,2.197
0.989,-0.199,-0.065,6.836,2.319,2.197
0.992,-0.189,-0.062,5.249,1.770,2.319
0.989,-0.177,-0.066,3.906,0.732,2.563
0.981,-0.174,-0.070,3.235,0.000,3.174
0.980,-0.175,-0.071,2.930,-0.305,3.540
0.984,-0.178,-0.075,2.808,-0.183,4.395
0.991,-0.188,-0.079,2.747,-0.122,5.493
0.994,-0.190,-0.091,2.869,-0.183,6.409
0.996,-0.183,-0.100,3.845,-0.183,6.836
0.996,-0.191,-0.108,5.310,0.183,7.019
0.986,-0.200,-0.115,6.775,1.343,6.775
0.983,-0.199,-0.130,7.996,3.601,6.165
0.997,-0.192,-0.137,9.888,6.226,5.737
1.017,-0.185,-0.139,12.024,8.057,6.348
1.026,-0.189,-0.147,14.771,8.118,7.568
1.020,-0.179,-0.159,17.944,7.629,9.338

0.829,-1.157,1.170,-26.001,153.625,-13.794
1.045,-1.300,1.408,-141.052,173.828,23.987
1.259,-1.387,1.436,-292.542,172.302,64.331
1.204,-1.603,1.351,-457.092,146.423,111.694
1.011,-1.916,1.082,-612.000,98.511,157.227
0.826,-2.019,0.740,-744.629,42.236,186.157
0.773,-1.995,0.425,-825.806,-3.601,190.979
0.773,-1.942,0.197,-855.713,-36.682,177.368
0.754,-1.782,-0.006,-862.061,-57.434,151.306
0.868,-1.694,-0.207,-857.666,-65.063,116.455
0.955,-1.739,-0.475,-843.384,-63.782,82.214
0.927,-1.759,-0.777,-820.312,-54.932,50.415
0.839,-1.667,-1.047,-791.931,-37.781,20.569
0.867,-1.449,-1.296,-755.432,-12.085,-4.395
0.987,-1.240,-1.460,-708.374,15.076,-21.057
1.164,-0.962,-1.557,-651.123,35.095,-30.579
1.289,-0.631,-1.603,-581.482,41.138,-34.851
1.316,-0.404,-1.550,-498.962,37.903,-34.607
1.254,-0.337,-1.488,-402.344,30.518,-33.386
1.153,-0.381,-1.426,-301.514,21.667,-29.785
1.065,-0.570,-1.310,-204.224,20.264,-19.714
1.032,-0.831,-1.130,-122.620,23.315,-7.141
1.116,-0.926,-0.945,-61.340,23.132,3.479
1.157,-1.016,-0.826,-15.930,17.944,17.029
1.072,-1.045,-0.816,11.963,7.202,28.076
1.090,-0.878,-0.738,28.625,-0.427,32.471
1.261,-0.702,-0.551,42.297,-8.423,37.537
1.300,-0.658,-0.437,54.871,-27.466,41.992
1.201,-0.657,-0.330,58.533,-47.913,39.490
1.087,-0.510,-0.298,53.040,-59.998,33.997
0.984,-0.357,-0.313,47.180,-59.753,28.137
0.926,-0.277,-0.306,43.335,-46.509,23.926
0.913,-0.239,-0.294,40.894,-27.832,18.860
0.918,-0.215,-0.258,37.537,-10.681,12.024
0.939,-0.188,-0.239,33.569,2.258,5.188
0.913,-0.289,-0.232,29.358,11.658,-1.770
0.940,-0.134,-0.167,22.583,16.296,-12.817
0.942,-0.132,-0.196,19.714,15.137,-17.273
0.914,-0.151,-0.204,16.907,14.893,-20.996
0.919,-0.163,-0.225,12.817,16.479,-22.766
0.960,-0.187,-0.220,8.606,17.944,-21.912
0.997,-0.187,-0.178,2.197,17.578,-19.714
1.004,-0.170,-0.173,-4.395,14.587,-16.357
0.978,-0.125,-0.213,-9.521,10.010,-13.062
0.951,-0.097,-0.256,-11.047,6.775,-9.766
0.946,-0.088,-0.279,-9.033,4.944,-6.775
0.937,-0.121,-0.269,-5.371,5.737,-4.211
0.934,-0.141,-0.266,-2.380,7.812,-2.502
0.946,-0.148,-0.267,0.183,9.949,-2.014
0.959,-0.150,-0.248,2.991,12.146,-2.808
0.973,-0.149,-0.231,5.737,13.123,-4.272
0.993,-0.149,-0.228,9.216,11.719,-7.263
0.994,-0.156,-0.219,12.329,9.888,-10.193
1.004,-0.160,-0.184,14.343,8.728,-13.123
1.040,-0.186,-0.154,15.381,7.019,-15.503
1.060,-0.205,-0.147,14.954,3.479,-15.259
1.062,-0.206,-0.138,11.475,-0.427,-12.634
1.046,-0.176,-0.136,7.385,-3.540,-8.484
1.032,-0.115,-0.140,4.456,-5.981,-4.028
1.035,-0.086,-0.144,4.944,-8.484,0.000
1.015,-0.106,-0.164,7.812,-11.414,4.028
0.995,-0.129,-0.167,9.949,-13.306,6.897
0.994,-0.129,-0.154,10.193,-12.878,10.010
0.986,-0.117,-0.153,10.498,-12.329,12.817
0.975,-0.088,-0.165,11.169,-13.062,14.893
0.960,-0.057,-0.174,12.512,-14.343,15.442
0.939,-0.042,-0.183,15.381,-15.381,13.916
0.931,-0.068,-0.179,19.653,-14.526,10.681
0.935,-0.115,-0.174,23.437,-11.475,5.859
0.945,-0.164,-0.167,24.780,-8.667,0.916
0.952,-0.189,-0.136,22.827,-5.554,-3.174
0.956,-0.184,-0.122,17.822,-3.662,-6.897
0.974,-0.181,-0.128,12.634,-2.258,-10.132
0.977,-0.181,-0.146,8.423,-1.648,-11.536
0.987,-0.182,-0.163,5.066,-1.526,-11.719
0.999,-0.186,-0.172,2.869,-1.770,-10.376
1.000,-0.170,-0.183,1.709,-2.075,-8.118
1.001,-0.145,-0.202,2.258,-2.686,-5.737
1.002,-0.117,-0.211,4.700,-3.296,-3.357
1.004,-0.104,-0.216,8.362,-3.235,-0.732
1.002,-0.103,-0.214,12.817,-3.479,1.709
0.995,-0.118,-0.211,17.151,-4.150,3.540
0.979,-0.141,-0.208,20.752,-4.639,4.395
0.971,-0.161,-0.210,23.376,-4.639,4.333
0.966,-0.186,-0.215,25.818,-4.211,3.296
0.966,-0.181,-0.209,26.855,-2.991,1.953
0.963,-0.168,-0.201,27.527,-1.892,0.061
0.960,-0.170,-0.200,28.687,-1.282,-1.831
0.961,-0.183,-0.184,29.114,-0.061,-3.296
0.969,-0.189,-0.163,27.771,1.831,-4.639
0.979,-0.184,-0.150,25.269,2.991,-5.859
0.977,-0.183,-0.152,21.545,3.540,-6.104
0.979,-0.176,-0.151,18.311,4.272,-5.188
0.992,-0.159,-0.150,15.137,4.700,-3.784
1.002,-0.135,-0.152,12.939,4.578,-2.502
1.005,-0.110,-0.152,11.841,3.601,-0.610
1.001,-0.093,-0.161,12.146,1.770,1.282
0.996,-0.090,-0.174,13.245,0.061,3.235
0.991,-0.098,-0.168,15.198,-0.549,4.700
0.987,-0.102,-0.171,16.968,-0.549,5.615
0.987,-0.115,-0.167,18.616,-0.488,6.775
0.984,-0.118,-0.159,19.348,-0.610,7.507
0.983,-0.115,-0.148,19.714,-1.099,7.751
0.981,-0.121,-0.138,19.714,-2.075,7.812
0.971,-0.137,-0.138,19.531,-3.540,7.324
0.961,-0.142,-0.138,18.738,-4.150,6.592
0.954,-0.133,-0.134,17.334,-4.089,5.920
0.948,-0.112,-0.131,16.602,-3.967,5.188
0.945,-0.105,-0.130,16.541,-3.784,3.845
0.942,-0.108,-0.125,16.968,-2.808,2.075
0.946,-0.111,-0.117,17.029,-1.099,0.305
0.958,-0.110,-0.101,16.479,-0.061,-1.282
0.971,-0.103,-0.087,14.954,0.488,-2.625
0.972,-0.103,-0.090,13.611,0.061,-3.601
0.965,-0.103,-0.098,12.451,0.671,-5.066
0.976,-0.099,-0.104,11.475,2.563,-6.042
0.997,-0.100,-0.109,11.536,5.005,-6.104
1.018,-0.108,-0.115,11.841,6.348,-5.554
1.028,-0.111,-0.116,12.329,5.920,-4.211

0.834,-0.741,1.761,-38.269,21.851,4.639
0.766,-0.968,2.025,-95.764,24.109,18.921
0.648,-1.228,2.108,-173.218,22.644,39.185
0.508,-1.523,1.996,-266.663,20.081,57.922
0.511,-1.791,1.703,-369.873,23.437,67.749
0.528,-2.037,1.307,-478.882,36.133,70.862
0.543,-2.211,0.973,-583.008,59.082,69.397
0.625,-2.171,0.613,-678.223,83.496,63.171
0.803,-2.061,0.260,-749.634,105.957,50.964
1.020,-2.074,-0.001,-793.823,125.061,37.903
1.196,-2.193,-0.210,-821.960,133.789,32.227
1.373,-2.367,-0.522,-839.294,124.268,34.973
1.535,-2.443,-0.833,-849.915,89.722,42.358
1.590,-2.400,-1.142,-849.548,37.109,50.354
1.587,-2.223,-1.400,-833.923,-14.587,53.589
1.567,-2.001,-1.659,-801.392,-55.359,46.265
1.539,-1.608,-2.021,-744.263,-85.999,36.499
1.405,-1.010,-2.290,-662.903,-103.394,26.428
1.155,-0.457,-2.279,-554.077,-104.492,16.907
0.936,-0.237,-2.056,-417.175,-93.750,10.803
0.886,-0.328,-1.729,-270.264,-78.735,9.216
0.898,-0.659,-1.422,-137.390,-57.617,11.780
0.861,-0.965,-1.268,-32.471,-27.649,18.738
0.903,-1.277,-1.042,40.222,4.761,25.024
1.030,-1.463,-0.762,75.317,24.658,31.006
1.199,-1.567,-0.432,83.862,24.902,41.382
1.265,-1.380,-0.308,72.021,-0.732,44.250
1.180,-1.191,-0.331,54.077,-36.865,46.326
0.991,-0.969,-0.403,37.048,-67.261,45.959
0.864,-0.656,-0.392,22.156,-84.473,41.626
0.735,-0.460,-0.401,15.503,-86.853,40.283
0.632,-0.299,-0.397,12.878,-78.186,33.386
0.561,-0.184,-0.397,13.123,-60.303,24.841
0.542,-0.173,-0.416,17.090,-36.621,14.160
0.615,-0.128,-0.321,19.958,-13.245,-0.671
0.695,-0.130,-0.331,23.254,-0.793,-14.648
0.729,-0.210,-0.306,26.917,7.141,-28.320
0.743,-0.271,-0.284,25.146,13.062,-40.527
0.782,-0.315,-0.242,19.531,19.592,-50.415
0.830,-0.337,-0.224,10.620,26.367,-58.716
0.888,-0.318,-0.220,0.427,34.180,-64.270
0.958,-0.289,-0.234,-8.850,40.405,-66.101
1.032,-0.240,-0.235,-16.357,43.457,-64.392
1.076,-0.171,-0.244,-21.851,41.809,-59.448
1.098,-0.115,-0.250,-22.522,37.720,-50.903
1.117,-0.088,-0.261,-18.860,31.494,-39.673
1.118,-0.099,-0.272,-12.756,23.193,-27.222
1.102,-0.112,-0.291,-5.432,14.587,-15.564
1.090,-0.147,-0.303,3.052,8.179,-4.822
1.078,-0.203,-0.293,10.315,4.089,3.906
1.068,-0.248,-0.256,16.785,0.793,9.949
1.081,-0.303,-0.220,21.057,-4.517,12.085
1.044,-0.263,-0.275,22.888,-11.292,9.033
0.959,-0.274,-0.322,26.978,-8.118,6.836
0.959,-0.263,-0.274,30.701,2.686,2.502
1.028,-0.195,-0.192,32.654,9.644,-2.747
1.068,-0.200,-0.173,36.926,7.080,-4.395
1.049,-0.177,-0.195,39.368,0.488,-6.714
1.021,-0.215,-0.209,41.626,-2.991,-8.667
1.022,-0.245,-0.158,41.931,-3.662,-10.071
1.048,-0.229,-0.092,38.635,-3.723,-9.949
1.050,-0.200,-0.090,33.813,-5.859,-7.080
0.980,-0.178,-0.144,29.541,-8.240,-2.625
0.974,-0.132,-0.146,27.466,-7.385,1.709
0.965,-0.118,-0.168,28.625,-8.484,5.371
0.948,-0.122,-0.172,32.288,-11.353,6.531
0.954,-0.099,-0.198,35.767,-16.113,5.005
0.932,-0.124,-0.204,40.405,-17.517,4.639
0.909,-0.204,-0.179,44.434,-14.038,4.883
0.932,-0.240,-0.148,44.373,-10.376,1.343
0.960,-0.254,-0.135,41.687,-9.033,-3.601
0.959,-0.250,-0.151,38.879,-8.667,-8.240
0.951,-0.273,-0.164,36.072,-5.554,-11.047
0.992,-0.242,-0.124,32.654,-0.305,-12.756
1.058,-0.220,-0.087,28.503,3.906,-12.939
1.099,-0.208,-0.073,25.757,4.639,-11.841
1.097,-0.214,-0.105,23.315,2.441,-9.888
1.102,-0.222,-0.104,20.630,0.183,-7.812
1.107,-0.148,-0.100,17.151,-2.625,-5.310
1.086,-0.140,-0.119,16.785,-5.920,0.488
1.058,-0.166,-0.136,17.944,-7.996,7.446
1.033,-0.184,-0.149,19.226,-8.545,11.780
1.021,-0.190,-0.150,20.264,-7.996,14.709
1.009,-0.214,-0.151,20.935,-7.263,17.822
0.984,-0.257,-0.158,20.508,-5.737,19.958
0.972,-0.264,-0.158,18.738,-2.869,20.142
0.975,-0.257,-0.161,17.029,0.671,19.409
0.981,-0.254,-0.171,15.930,3.723,18.250
0.987,-0.255,-0.191,15.320,5.310,16.663
0.989,-0.258,-0.207,15.137,6.836,15.320
0.991,-0.251,-0.200,14.709,9.644,14.709
1.006,-0.238,-0.187,14.465,10.864,14.587
1.020,-0.230,-0.177,14.343,9.827,15.381
1.014,-0.209,-0.177,13.855,7.812,16.663
1.003,-0.186,-0.180,13.916,6.348,18.250
0.999,-0.171,-0.181,14.832,6.042,20.142
0.998,-0.149,-0.169,16.113,6.836,22.217
1.001,-0.136,-0.156,17.822,7.141,24.048
1.003,-0.136,-0.151,19.653,6.531,24.902
1.001,-0.148,-0.149,21.545,5.920,24.841
0.999,-0.151,-0.161,22.461,5.676,24.109
0.992,-0.148,-0.179,24.292,5.371,22.827
0.994,-0.162,-0.187,26.245,5.493,21.790
0.988,-0.178,-0.173,27.161,6.775,21.240
0.999,-0.168,-0.157,26.489,7.812,21.301
1.011,-0.152,-0.139,25.330,6.836,21.484
1.016,-0.125,-0.130,24.292,4.028,21.545
1.013,-0.123,-0.137,23.682,-0.488,21.667
1.004,-0.136,-0.131,22.522,-4.211,21.667
1.000,-0.137,-0.130,21.118,-5.554,21.973
1.001,-0.121,-0.134,19.165,-5.310,23.010
1.016,-0.115,-0.139,17.822,-4.395,24.719
1.025,-0.125,-0.154,17.761,-3.479,26.917
1.034,-0.115,-0.166,17.395,-2.869,28.564
1.034,-0.109,-0.179,17.639,-2.136,30.334
1.038,-0.094,-0.193,18.982,-1.343,31.738
1.044,-0.081,-0.197,21.301,-1.038,32.532
1.044,-0.085,-0.205,24.475,-0.916,32.471
1.034,-0.091,-0.213,27.588,-0.732,31.677

0.236,-1.503,1.924,-56.458,99.243,51.819
0.121,-1.844,1.852,-185.181,118.103,81.055
0.241,-2.015,1.514,-342.346,126.587,96.497
0.535,-2.151,1.116,-502.014,122.620,101.624
0.607,-2.084,0.654,-645.447,105.103,95.581
0.630,-1.828,0.163,-750.183,85.510,68.237
0.740,-1.483,-0.166,-811.707,75.562,27.100
0.875,-1.276,-0.307,-845.093,73.486,-13.794
1.177,-1.288,-0.441,-852.478,69.946,-59.204
1.525,-1.392,-0.543,-851.685,56.458,-99.426
1.657,-1.482,-0.657,-844.482,30.762,-130.981
1.610,-1.605,-0.741,-831.177,-5.310,-157.288
1.532,-1.733,-0.987,-810.730,-44.983,-181.702
1.417,-1.708,-1.387,-780.579,-73.730,-203.918
1.203,-1.355,-1.863,-740.356,-78.186,-223.877
0.940,-0.762,-2.281,-678.284,-53.040,-237.183
0.760,-0.068,-2.434,-586.365,-6.592,-238.403
0.759,0.444,-2.158,-460.083,50.232,-225.586
0.985,0.391,-1.599,-308.716,97.229,-193.909
1.187,-0.056,-1.144,-166.809,103.149,-150.208
1.165,-0.541,-0.899,-56.763,86.426,-103.577
1.103,-0.927,-0.798,13.977,67.261,-58.655
1.094,-1.226,-0.716,55.176,47.607,-20.447
1.161,-1.380,-0.587,75.439,31.921,13.000
1.324,-1.402,-0.394,79.529,11.658,40.771
1.473,-1.307,-0.233,71.655,-19.653,60.852
1.483,-1.136,-0.171,57.190,-58.960,73.425
1.330,-0.944,-0.204,42.786,-93.933,79.407
1.126,-0.742,-0.250,30.457,-114.014,79.285
0.972,-0.513,-0.297,22.217,-115.479,72.266
0.870,-0.311,-0.333,20.386,-101.685,59.631
0.823,-0.200,-0.323,24.353,-77.576,45.044
0.834,-0.170,-0.285,30.823,-50.171,30.212
0.872,-0.163,-0.240,36.560,-26.794,15.991
0.900,-0.194,-0.188,40.222,-10.620,3.235
0.885,-0.270,-0.124,40.527,0.977,-6.165
0.878,-0.338,-0.079,35.156,10.864,-12.756
0.891,-0.366,-0.061,24.475,18.127,-15.930
0.927,-0.366,-0.052,11.414,23.193,-16.907
0.976,-0.365,-0.050,-1.465,25.574,-15.442
1.005,-0.333,-0.065,-13.672,23.804,-12.146
1.017,-0.270,-0.101,-23.621,17.822,-7.996
1.015,-0.194,-0.148,-28.564,10.376,-3.662
0.999,-0.147,-0.189,-28.748,4.456,1.099
0.971,-0.123,-0.209,-25.391,2.014,6.348
0.952,-0.115,-0.216,-20.203,2.258,10.864
0.954,-0.127,-0.207,-13.977,3.662,13.855
0.957,-0.187,-0.180,-8.057,5.798,16.235
0.981,-0.218,-0.150,-5.005,7.141,17.639
1.001,-0.221,-0.128,-4.517,6.836,18.494
0.985,-0.231,-0.130,-3.784,4.761,18.738
0.955,-0.218,-0.146,-3.357,1.648,17.090
0.948,-0.196,-0.137,-1.892,0.061,14.404
0.973,-0.198,-0.113,0.061,0.305,11.780
0.980,-0.202,-0.106,1.343,-0.671,9.521
0.964,-0.190,-0.116,1.587,-2.441,7.141
0.950,-0.180,-0.133,2.686,-4.028,5.493
0.944,-0.180,-0.128,4.517,-5.188,4.517
0.935,-0.173,-0.119,6.470,-7.507,3.845
0.904,-0.173,-0.119,8.118,-9.827,3.296
0.884,-0.181,-0.117,9.399,-9.338,2.197
0.903,-0.203,-0.112,10.437,-5.066,1.343
0.932,-0.238,-0.106,11.230,0.000,0.366
0.966,-0.244,-0.102,9.705,3.052,-1.526
0.984,-0.219,-0.107,8.240,4.333,-3.296
0.978,-0.188,-0.122,8.545,4.211,-5.127
0.986,-0.172,-0.130,10.742,4.822,-6.958
1.008,-0.182,-0.127,13.611,5.493,-7.874
1.032,-0.198,-0.108,15.137,6.165,-6.958
1.054,-0.197,-0.095,15.076,5.859,-5.066
1.063,-0.186,-0.097,14.771,2.808,-3.418
1.060,-0.150,-0.106,15.503,-1.343,-2.502
1.044,-0.139,-0.116,17.578,-5.493,-0.366
1.009,-0.153,-0.133,20.569,-8.301,1.526
0.992,-0.185,-0.151,24.048,-8.362,3.418
0.998,-0.207,-0.128,25.818,-6.653,5.127
1.010,-0.212,-0.103,25.574,-5.615,6.897
1.004,-0.201,-0.106,24.353,-7.080,7.446
0.986,-0.186,-0.117,23.560,-9.338,6.714
0.967,-0.170,-0.130,23.804,-11.597,4.944
0.953,-0.163,-0.137,25.269,-12.451,2.319
0.927,-0.181,-0.139,27.344,-9.827,-0.183
0.931,-0.205,-0.146,28.931,-5.066,-2.319
0.962,-0.219,-0.134,29.419,-0.305,-3.174
0.992,-0.213,-0.118,28.076,2.686,-3.296
1.001,-0.201,-0.109,26.611,2.380,-3.235
1.014,-0.192,-0.103,25.635,-0.122,-3.052
1.039,-0.190,-0.110,25.879,-4.028,-2.319
1.048,-0.198,-0.121,27.222,-9.277,0.305
1.060,-0.205,-0.119,28.625,-15.808,4.944
1.084,-0.217,-0.114,29.358,-23.254,11.292
1.087,-0.220,-0.113,29.968,-30.945,18.982
1.077,-0.204,-0.116,31.067,-36.377,26.367
1.070,-0.179,-0.125,32.715,-39.612,32.593
1.065,-0.165,-0.125,35.522,-40.527,37.720
1.075,-0.162,-0.107,38.513,-40.161,42.114
1.070,-0.157,-0.094,40.649,-39.612,45.532
1.051,-0.147,-0.090,42.480,-39.673,47.363
1.033,-0.136,-0.084,44.189,-39.063,47.791
1.024,-0.126,-0.071,46.021,-37.537,47.302
1.013,-0.117,-0.046,46.753,-35.706,46.387
1.003,-0.111,-0.022,46.204,-33.569,45.227
0.989,-0.104,-0.010,44.800,-31.250,44.250
0.975,-0.088,-0.008,43.457,-28.076,43.152
0.945,-0.071,-0.024,42.542,-24.048,42.358
0.899,-0.041,-0.059,42.480,-17.517,41.443
0.901,0.002,-0.087,45.044,-7.935,40.161
0.931,0.033,-0.102,50.720,2.563,39.063
0.935,0.049,-0.116,58.594,12.878,38.879
0.943,0.038,-0.117,67.627,23.560,40.039
0.961,0.014,-0.111,75.256,34.424,41.931
1.004,-0.017,-0.084,81.909,42.725,43.091
1.085,-0.072,-0.041,85.999,46.570,44.128
1.144,-0.127,0.003,86.121,43.030,44.861
1.175,-0.175,0.024,82.581,33.081,44.373
1.190,-0.220,0.050,75.439,18.982,43.823
1.161,-0.220,0.067,63.843,3.540,42.969
1.098,-0.191,0.068,50.781,-9.338,41.321
1.019,-0.145,0.065,37.476,-16.724,38.818

0.304,-1.747,1.814,236.755,99.731,-41.077
0.139,-2.168,1.981,92.529,122.375,15.625
-0.102,-2.336,1.759,-115.601,151.245,56.335
-0.232,-2.534,1.426,-345.093,185.852,54.321
0.206,-2.815,1.024,-565.735,207.581,33.203
0.764,-2.698,0.543,-758.728,200.623,16.846
1.225,-2.365,0.240,-889.893,168.457,-11.292
1.675,-2.041,0.035,-948.608,97.168,-37.903
1.793,-1.970,-0.104,-952.881,12.085,-67.749
1.606,-2.154,-0.556,-929.077,-46.814,-116.272
1.300,-2.159,-1.032,-895.264,-67.261,-173.767
1.109,-1.921,-1.402,-858.765,-41.138,-221.802
1.069,-1.533,-1.804,-808.044,13.184,-250.671
1.048,-1.118,-2.056,-732.727,83.618,-263.123
1.049,-0.627,-2.075,-641.174,154.480,-258.728
1.144,-0.019,-1.870,-537.598,206.726,-237.305
1.309,0.309,-1.609,-417.236,231.689,-197.144
1.401,0.095,-1.279,-278.503,227.661,-154.602
1.375,-0.406,-0.986,-154.236,193.298,-121.338
1.318,-0.846,-0.776,-67.871,143.738,-87.585
1.301,-1.185,-0.583,-19.409,97.717,-52.917
1.264,-1.475,-0.430,-1.831,63.354,-15.503
1.222,-1.518,-0.340,-7.996,37.720,19.531
1.226,-1.220,-0.356,-25.879,10.864,46.692
1.237,-0.934,-0.418,-37.048,-10.742,72.144
1.211,-0.659,-0.459,-39.673,-25.146,92.102
1.174,-0.432,-0.411,-34.546,-31.860,104.309
1.139,-0.239,-0.365,-23.376,-36.499,108.032
1.081,-0.152,-0.348,-8.728,-39.124,105.774
1.000,-0.125,-0.317,5.188,-36.865,98.328
0.928,-0.143,-0.301,16.785,-29.541,88.379
0.907,-0.201,-0.264,24.353,-18.921,77.515
0.902,-0.251,-0.187,26.245,-7.568,66.223
0.888,-0.291,-0.139,24.414,0.000,54.077
0.857,-0.334,-0.115,19.470,4.395,41.870
0.815,-0.376,-0.108,12.939,10.681,29.541
0.812,-0.380,-0.113,4.150,19.165,18.250
0.818,-0.337,-0.125,-4.761,26.001,7.507
0.825,-0.257,-0.148,-11.353,29.602,-2.747
0.813,-0.180,-0.176,-13.550,30.273,-12.756
0.798,-0.142,-0.187,-11.597,31.128,-21.667
0.794,-0.127,-0.187,-7.019,33.020,-29.175
0.802,-0.126,-0.170,-1.709,36.194,-35.645
0.823,-0.127,-0.143,4.028,38.452,-41.138
0.855,-0.129,-0.112,9.521,37.476,-45.959
0.891,-0.197,-0.089,15.625,34.607,-49.500
0.926,-0.279,-0.055,18.188,33.081,-48.889
0.968,-0.312,-0.021,16.296,30.945,-45.288
1.007,-0.322,-0.010,12.634,26.123,-39.917
1.033,-0.318,-0.002,8.789,20.874,-33.691
1.062,-0.297,-0.005,5.493,16.907,-26.917
1.104,-0.269,-0.022,3.296,12.024,-19.348
1.115,-0.234,-0.040,2.869,5.798,-10.376
1.110,-0.217,-0.053,4.578,-0.793,-2.014
1.105,-0.221,-0.072,8.118,-7.141,6.226
1.092,-0.223,-0.076,11.841,-12.085,13.794
1.076,-0.219,-0.075,15.198,-15.808,20.203
1.041,-0.217,-0.086,18.494,-18.982,25.391
1.012,-0.227,-0.099,22.156,-21.179,28.870
0.998,-0.240,-0.098,25.391,-20.996,30.518
0.990,-0.263,-0.082,27.527,-19.043,30.579
0.978,-0.264,-0.062,27.527,-16.418,28.870
0.959,-0.246,-0.058,26.245,-14.893,25.696
0.933,-0.231,-0.071,25.085,-13.733,21.667
0.916,-0.225,-0.069,23.743,-12.207,17.700
0.917,-0.222,-0.052,21.973,-8.850,14.099
0.931,-0.207,-0.045,20.020,-6.409,10.681
0.938,-0.194,-0.042,18.799,-4.761,7.324
0.927,-0.194,-0.055,18.066,-3.784,4.150
0.928,-0.190,-0.072,17.517,-1.892,1.587
0.940,-0.180,-0.061,17.090,-0.061,-0.488
0.950,-0.169,-0.048,17.029,1.465,-1.831
0.966,-0.160,-0.052,16.846,1.648,-2.747
0.987,-0.165,-0.062,17.090,0.427,-2.930
0.996,-0.169,-0.068,18.066,-2.014,-2.869
0.998,-0.160,-0.079,18.921,-4.761,-2.869
0.985,-0.151,-0.087,20.874,-7.751,-2.441
0.968,-0.156,-0.102,23.499,-9.888,-1.709
0.965,-0.175,-0.109,26.367,-9.888,-1.099
0.965,-0.204,-0.099,28.381,-7.996,-0.854
0.968,-0.230,-0.097,29.358,-4.822,-1.770
0.987,-0.248,-0.097,29.541,-1.587,-3.113
1.003,-0.264,-0.089,28.198,1.221,-4.578
1.019,-0.280,-0.087,26.001,4.272,-6.226
1.038,-0.288,-0.098,23.376,6.958,-7.385
1.049,-0.281,-0.105,21.057,8.606,-8.484
1.055,-0.258,-0.115,19.592,8.911,-9.460
1.058,-0.217,-0.123,19.592,9.338,-10.254
1.053,-0.183,-0.131,21.240,9.399,-10.071
1.050,-0.162,-0.133,24.414,10.132,-8.606
1.051,-0.151,-0.123,28.320,10.742,-6.592
1.053,-0.154,-0.113,32.776,10.559,-4.150
1.051,-0.170,-0.102,36.194,9.827,-1.648
1.052,-0.191,-0.078,37.964,8.789,1.465
1.051,-0.208,-0.055,38.208,6.775,4.333
1.044,-0.214,-0.043,37.231,3.540,7.019
1.030,-0.216,-0.043,35.583,-0.061,9.460
1.009,-0.223,-0.048,33.936,-3.052,11.780
0.991,-0.229,-0.051,32.654,-4.272,13.550
0.967,-0.233,-0.056,31.006,-3.723,14.954
0.955,-0.232,-0.061,29.846,-1.404,15.503
0.953,-0.227,-0.063,29.297,1.160,15.442
0.958,-0.222,-0.077,29.724,3.662,14.343
0.968,-0.237,-0.091,30.701,5.066,13.611
0.982,-0.238,-0.071,30.945,6.348,13.672
0.991,-0.223,-0.055,30.579,5.981,14.160
0.992,-0.202,-0.057,30.640,3.357,14.648
0.984,-0.181,-0.066,31.555,0.732,15.198
0.974,-0.164,-0.079,33.875,-0.793,15.747
0.966,-0.153,-0.084,37.109,-1.221,16.479
0.973,-0.156,-0.079,40.405,-0.977,17.212
0.988,-0.186,-0.063,43.579,-1.160,17.456
1.000,-0.227,-0.046,46.082,-2.197,17.456
1.013,-0.267,-0.021,45.532,-4.028,17.578
1.024,-0.298,0.004,42.175,-6.348,17.883
1.023,-0.308,0.012,37.354,-8.362,17.883
1.023,-0.303,0.002,30.762,-9.338,18.372
1.019,-0.277,-0.003,24.109,-9.521,18.555
1.008,-0.240,-0.021,19.043,-8.789,18.494

0.860,-1.358,0.871,227.356,145.996,-46.204
0.784,-1.458,0.928,188.293,147.766,-38.086
0.749,-1.457,0.905,131.042,147.705,-27.893
0.821,-1.395,0.831,58.655,147.644,-10.803
0.880,-1.313,0.712,-28.137,146.729,16.479
0.857,-1.252,0.582,-124.207,143.982,50.354
0.814,-1.229,0.489,-223.389,138.672,84.167
0.790,-1.229,0.411,-323.730,130.188,118.042
0.815,-1.269,0.303,-421.509,116.699,153.748
0.836,-1.386,0.111,-510.925,97.778,187.500
0.805,-1.571,-0.092,-589.111,78.186,215.942
0.708,-1.754,-0.314,-656.799,62.622,236.389
0.547,-1.901,-0.541,-708.252,57.556,246.033
0.369,-2.023,-0.796,-739.563,68.176,247.375
0.207,-2.007,-1.127,-754.272,95.337,241.089
0.276,-2.000,-1.357,-758.972,132.874,231.262
0.572,-2.007,-1.499,-756.287,170.959,219.910
0.942,-2.039,-1.600,-747.681,188.049,210.083
1.285,-2.099,-1.644,-739.075,169.861,208.801
1.462,-2.152,-1.669,-731.079,118.896,208.130
1.450,-2.103,-1.734,-715.881,51.880,198.425
1.311,-1.918,-1.739,-692.810,-10.071,181.213
1.165,-1.629,-1.736,-662.170,-59.814,161.133
1.029,-1.312,-1.776,-614.441,-98.389,141.907
0.815,-0.951,-1.885,-545.654,-119.202,125.305
0.518,-0.690,-1.909,-461.426,-111.816,112.305
0.310,-0.464,-1.788,-369.385,-78.552,103.943
0.317,-0.340,-1.669,-277.344,-46.631,96.802
0.451,-0.039,-1.532,-183.472,-20.386,90.027
0.698,-0.109,-1.389,-81.604,9.277,93.018
0.712,-0.547,-1.204,13.672,29.236,98.633
0.659,-0.738,-1.057,67.444,21.362,89.722
0.696,-0.727,-1.026,99.304,7.568,75.989
0.822,-0.846,-0.821,127.380,8.118,69.824
0.877,-0.923,-0.523,135.864,-0.854,59.082
0.932,-0.857,-0.289,125.183,-25.208,44.617
0.938,-0.733,-0.162,108.643,-49.316,34.241
