aX,aY,aZ,gX,gY,gZ
0.648,-0.226,2.256,31.067,78.979,41.077
0.536,-0.432,2.638,3.357,63.293,55.420
0.418,-0.619,2.914,-37.720,39.673,60.486
0.211,-0.782,3.053,-89.966,10.132,53.223
-0.054,-0.945,3.005,-148.010,-16.663,30.457
-0.247,-1.105,2.878,-207.520,-29.236,-5.676
-0.341,-1.264,2.731,-263.245,-24.170,-47.058
-0.304,-1.419,2.559,-314.148,-7.751,-89.355
-0.179,-1.579,2.379,-359.375,16.113,-128.601
-0.062,-1.755,2.149,-401.855,43.945,-163.757
0.186,-1.946,1.888,-445.374,74.646,-195.129
0.419,-2.100,1.588,-492.065,108.398,-212.708
0.512,-2.207,1.257,-539.001,140.381,-218.811
0.556,-2.265,0.879,-581.421,169.861,-221.008
0.644,-2.296,0.502,-615.723,200.317,-218.018
0.794,-2.293,0.193,-646.729,228.638,-206.909
0.912,-2.150,0.016,-674.988,250.122,-190.613
0.934,-2.002,-0.071,-694.946,260.010,-170.959
0.823,-1.899,-0.115,-707.397,256.104,-148.804
0.668,-1.788,-0.199,-711.609,243.286,-126.465
0.569,-1.668,-0.316,-706.543,225.220,-103.577
0.587,-1.704,-0.373,-696.411,202.271,-79.529
0.783,-1.847,-0.381,-686.096,166.321,-50.598
0.834,-1.884,-0.470,-675.476,107.605,-17.517
0.702,-1.804,-0.661,-657.410,42.786,10.986
0.595,-1.644,-0.862,-626.831,-9.033,37.048
0.580,-1.448,-1.037,-579.956,-45.288,59.814
0.625,-1.348,-1.175,-517.578,-64.819,75.623
0.671,-1.354,-1.259,-446.167,-69.458,80.750
0.685,-1.386,-1.279,-373.047,-61.157,70.129
0.884,-1.374,-1.225,-305.054,-42.603,50.049
1.141,-1.385,-1.153,-244.263,-26.550,28.442
1.222,-1.382,-1.138,-190.247,-22.583,11.536
1.267,-1.292,-1.100,-143.555,-23.437,-0.732
1.346,-1.192,-1.027,-103.577,-25.085,-6.409
1.397,-1.136,-0.955,-68.298,-29.480,-6.348
1.393,-1.036,-0.873,-40.527,-32.837,-2.869
1.399,-0.897,-0.799,-20.508,-34.119,3.052
1.388,-0.757,-0.737,-4.517,-33.691,11.902
1.354,-0.611,-0.688,7.507,-32.776,21.912
1.317,-0.497,-0.651,15.991,-31.494,31.311
1.267,-0.446,-0.614,22.034,-30.457,39.978
1.206,-0.416,-0.578,23.804,-29.663,47.791
1.119,-0.376,-0.555,22.461,-29.480,53.223
1.037,-0.346,-0.554,19.592,-26.794,55.176
0.970,-0.339,-0.557,16.113,-20.691,54.260
0.922,-0.293,-0.559,11.902,-13.672,49.438
0.874,-0.262,-0.567,8.606,-5.310,42.297
0.846,-0.230,-0.579,6.836,3.479,33.325
0.819,-0.200,-0.581,6.714,11.475,22.888
0.819,-0.142,-0.582,8.057,18.372,12.329
0.852,-0.106,-0.564,11.353,24.048,4.456
0.879,-0.098,-0.529,15.442,26.489,-1.404
0.916,-0.090,-0.501,18.250,25.574,-4.578
0.954,-0.073,-0.482,20.508,23.193,-5.615
0.970,-0.050,-0.465,23.254,20.325,-5.127
0.994,-0.053,-0.444,26.794,17.456,-3.479
1.017,-0.037,-0.419,30.457,14.771,-1.038
1.016,-0.027,-0.400,34.241,13.000,2.380
1.035,-0.006,-0.368,37.537,12.024,6.226
1.084,-0.000,-0.329,40.100,10.742,10.010
1.096,0.003,-0.311,42.542,7.874,13.184
1.061,-0.003,-0.317,44.373,5.005,15.991
1.033,-0.019,-0.322,45.532,5.127,17.700
1.032,-0.021,-0.311,45.715,8.545,18.921
1.024,-0.003,-0.296,46.265,12.817,19.470
0.996,-0.010,-0.292,47.668,15.442,19.409
1.035,0.000,-0.290,48.462,17.212,18.738
1.082,0.036,-0.267,49.744,18.311,19.226
1.033,0.002,-0.276,51.819,15.381,19.775
1.050,0.020,-0.259,52.368,13.000,18.677
1.036,0.027,-0.258,52.063,11.108,20.020
0.984,0.013,-0.266,51.819,9.094,21.667
0.944,0.032,-0.289,51.086,8.972,22.034
0.947,0.089,-0.277,50.537,12.878,21.912
0.957,0.076,-0.274,52.368,15.686,22.034
0.971,0.079,-0.272,55.176,15.320,20.203
0.984,0.089,-0.274,57.983,14.526,18.066
0.973,0.095,-0.282,60.791,13.062,17.151
0.959,0.105,-0.281,63.843,11.536,17.212
0.956,0.114,-0.278,66.650,11.047,17.639
0.963,0.133,-0.262,69.641,11.658,18.066
0.952,0.133,-0.255,72.327,11.902,18.677
0.949,0.126,-0.255,74.219,11.475,18.555
0.953,0.128,-0.239,74.402,10.803,17.456
0.948,0.156,-0.222,73.730,10.254,15.930
0.949,0.180,-0.193,72.693,9.094,14.709
0.968,0.225,-0.166,71.106,5.005,14.832
0.959,0.256,-0.166,68.909,-0.244,18.677
0.921,0.228,-0.180,67.139,-2.991,23.682
0.882,0.198,-0.200,65.186,-2.441,26.245
0.859,0.181,-0.230,62.256,1.282,26.733
0.859,0.162,-0.258,59.814,6.592,25.818
0.861,0.162,-0.274,57.495,11.780,23.682
0.863,0.172,-0.298,56.946,16.418,20.447
0.867,0.199,-0.319,58.655,20.386,15.991
0.867,0.220,-0.338,62.012,23.865,11.353
0.877,0.229,-0.348,66.833,26.794,7.080
0.904,0.255,-0.336,72.998,28.870,2.747
0.930,0.249,-0.335,80.139,28.381,-0.305
0.936,0.202,-0.338,86.609,25.757,-1.648
0.930,0.161,-0.343,90.454,23.987,-1.648
0.928,0.168,-0.337,92.651,23.499,-2.014
0.943,0.147,-0.338,94.116,23.499,-1.953
0.946,0.115,-0.369,95.337,23.254,-2.136
0.935,0.116,-0.387,96.863,24.231,-3.479
0.930,0.141,-0.385,99.060,26.794,-5.859
0.925,0.145,-0.400,102.356,28.748,-8.179
0.911,0.161,-0.429,107.544,29.358,-10.498
0.887,0.196,-0.429,114.136,30.640,-12.329
0.876,0.218,-0.430,122.131,33.630,-14.221
0.887,0.225,-0.437,131.287,37.415,-16.724
0.891,0.209,-0.460,140.625,40.894,-20.630
0.888,0.198,-0.464,150.330,45.532,-25.024
0.914,0.169,-0.461,159.729,50.354,-29.114
0.962,0.102,-0.471,166.992,51.758,-30.579
0.998,0.045,-0.460,170.898,49.255,-29.602
1.002,0.034,-0.433,171.021,44.067,-26.733
0.990,0.015,-0.410,168.884,36.011,-22.217

1.363,-0.138,2.280,43.762,62.073,42.969
1.386,-0.502,2.817,6.226,41.931,65.918
1.281,-0.932,3.096,-60.486,8.545,84.595
0.962,-1.210,3.114,-153.503,-27.588,85.938
0.613,-1.245,2.964,-256.836,-46.448,70.679
0.408,-1.244,2.699,-352.661,-35.217,48.828
0.146,-1.355,2.280,-438.293,3.540,28.442
-0.028,-1.515,1.843,-512.512,71.777,10.986
-0.041,-1.576,1.466,-573.669,160.339,-0.488
0.160,-1.615,1.099,-620.789,251.770,-1.648
0.426,-1.642,0.765,-657.104,330.627,10.803
0.489,-1.682,0.466,-683.167,389.709,35.645
0.258,-1.696,0.108,-697.815,439.575,67.749
0.116,-1.776,-0.211,-701.355,494.629,101.379
0.102,-1.891,-0.428,-703.064,546.021,135.742
-0.010,-1.892,-0.611,-703.979,580.505,170.044
-0.180,-1.730,-0.698,-693.970,590.698,197.021
-0.165,-1.559,-0.653,-667.236,572.998,217.468
-0.087,-1.505,-0.689,-627.258,521.667,233.154
-0.119,-1.497,-0.739,-574.158,448.547,233.459
-0.333,-1.525,-0.772,-514.282,366.699,213.318
-0.611,-1.509,-0.798,-454.895,284.851,176.636
-0.829,-1.524,-0.852,-396.667,217.224,141.907
-0.926,-1.481,-0.938,-337.708,160.461,115.845
-0.924,-1.576,-1.009,-276.428,113.953,94.971
-0.913,-1.925,-1.198,-217.407,76.050,71.167
-0.805,-2.182,-1.384,-170.654,54.077,41.077
-0.582,-2.209,-1.512,-138.550,44.128,11.108
-0.286,-2.149,-1.524,-115.601,37.231,-15.381
0.016,-2.029,-1.505,-95.520,24.536,-36.133
0.258,-1.928,-1.455,-76.355,5.432,-47.607
0.423,-1.892,-1.435,-61.340,-14.038,-48.035
0.505,-1.818,-1.423,-50.903,-32.593,-36.621
0.476,-1.687,-1.447,-42.236,-51.636,-17.761
0.358,-1.545,-1.510,-30.457,-66.650,2.502
0.242,-1.375,-1.520,-14.160,-70.496,22.156
0.217,-1.172,-1.446,6.165,-64.697,38.330
0.205,-0.979,-1.350,28.809,-57.312,48.645
0.154,-0.813,-1.287,52.307,-52.979,50.598
0.080,-0.710,-1.223,75.562,-48.950,46.143
0.026,-0.670,-1.157,96.436,-44.312,36.926
-0.003,-0.706,-1.107,111.938,-39.063,25.696
-0.019,-0.770,-1.083,119.507,-33.508,13.184
-0.019,-0.765,-1.053,118.347,-25.940,0.061
0.026,-0.758,-1.000,111.572,-17.334,-10.681
0.104,-0.764,-0.964,101.013,-11.047,-17.456
0.178,-0.712,-0.965,87.769,-9.521,-21.606
0.231,-0.628,-0.953,76.050,-11.536,-23.682
0.282,-0.540,-0.943,67.566,-16.052,-24.292
0.325,-0.463,-0.944,62.622,-19.836,-25.330
0.357,-0.384,-0.947,60.974,-21.118,-27.588
0.383,-0.349,-0.969,62.988,-20.630,-29.419
0.393,-0.366,-1.002,68.359,-18.066,-31.067
0.446,-0.423,-0.980,74.158,-12.939,-32.166
0.509,-0.422,-0.949,76.904,-10.315,-30.151
0.552,-0.426,-0.956,79.285,-15.442,-26.672
0.586,-0.417,-1.003,82.336,-25.696,-22.644
0.601,-0.336,-1.045,86.792,-32.959,-16.663
0.564,-0.293,-1.037,95.276,-36.804,-7.996
0.547,-0.312,-1.033,106.201,-43.579,-1.770
0.538,-0.343,-1.042,114.990,-51.819,2.197
0.476,-0.368,-1.044,121.216,-57.739,4.272
0.452,-0.344,-1.052,124.817,-59.937,3.784
0.464,-0.339,-1.030,127.441,-58.044,2.258
0.472,-0.390,-1.025,127.808,-55.420,1.404
0.462,-0.373,-1.005,125.366,-53.406,0.549
0.451,-0.314,-0.974,123.535,-52.673,-0.366
0.447,-0.312,-0.950,123.779,-53.162,-1.465
0.420,-0.338,-0.924,124.573,-54.443,-2.075
0.398,-0.414,-0.922,124.756,-58.411,-1.953
0.394,-0.432,-0.948,122.070,-64.148,-1.770
0.436,-0.315,-0.955,119.690,-69.275,-4.211
0.490,-0.221,-0.939,121.338,-73.914,-8.423
0.507,-0.172,-0.928,125.793,-78.247,-12.390
0.496,-0.064,-0.906,131.592,-79.712,-16.602
0.479,-0.026,-0.875,140.442,-77.271,-19.226
0.493,-0.077,-0.849,148.926,-71.045,-17.822
0.501,-0.107,-0.820,153.381,-64.758,-14.221
0.526,-0.146,-0.796,153.809,-59.875,-10.620
0.596,-0.162,-0.771,149.353,-56.519,-6.592
0.611,-0.109,-0.765,143.372,-57.190,-3.052
0.630,-0.077,-0.763,139.404,-62.927,-1.404
0.692,-0.052,-0.766,137.573,-72.876,0.000
0.717,0.032,-0.729,137.817,-85.938,-0.793
0.683,0.093,-0.721,140.015,-98.755,-2.319
0.622,0.078,-0.736,144.287,-107.910,-3.113
0.553,0.079,-0.729,148.621,-111.267,-3.235
0.482,0.059,-0.720,152.039,-109.131,-1.892
0.466,0.002,-0.727,153.503,-103.394,-0.061
0.493,-0.017,-0.715,151.306,-96.436,-0.061
0.502,0.007,-0.707,147.278,-90.027,-2.258
0.535,0.037,-0.688,144.592,-86.365,-5.798
0.601,0.127,-0.643,143.982,-85.327,-11.658
0.649,0.195,-0.599,147.461,-87.280,-18.066
0.664,0.214,-0.585,153.809,-92.041,-23.437
0.653,0.202,-0.583,160.645,-96.252,-27.039
0.624,0.178,-0.578,166.565,-96.619,-26.550
0.615,0.142,-0.575,170.532,-94.421,-23.132
0.614,0.091,-0.588,171.265,-92.285,-18.616
0.581,0.051,-0.620,169.006,-89.722,-14.893
0.538,0.049,-0.653,165.222,-84.106,-13.611
0.536,0.095,-0.639,163.452,-74.219,-14.954
0.605,0.178,-0.576,166.199,-64.819,-17.334
0.685,0.239,-0.507,175.232,-62.073,-20.996
0.753,0.255,-0.424,188.293,-64.880,-26.367
0.821,0.261,-0.350,202.515,-72.449,-31.006
0.876,0.249,-0.299,216.492,-84.778,-33.203
0.909,0.224,-0.276,228.088,-100.891,-31.799
0.897,0.177,-0.281,237.305,-117.188,-28.320
0.868,0.134,-0.283,242.798,-129.700,-23.437
0.848,0.102,-0.279,244.629,-137.573,-17.029
0.847,0.088,-0.258,243.835,-142.029,-9.827
0.849,0.108,-0.215,242.432,-144.958,-2.930
0.849,0.145,-0.163,242.493,-148.560,3.601
0.826,0.152,-0.124,245.178,-152.527,9.277
0.802,0.145,-0.070,249.634,-154.297,13.550
0.767,0.179,0.010,255.432,-154.175,16.113
0.650,0.177,0.032,264.526,-151.489,15.991
0.544,0.109,0.051,273.865,-140.747,12.756

1.042,-0.073,1.734,45.715,-19.043,44.250
0.890,-0.338,2.251,22.217,-0.610,73.120
0.536,-0.657,2.742,-23.132,14.526,102.417
0.285,-1.068,3.220,-91.675,31.006,115.723
0.276,-1.500,3.480,-190.247,48.340,112.915
0.218,-1.648,3.436,-312.744,54.810,96.497
0.135,-1.646,3.287,-430.237,62.012,62.622
0.305,-1.785,2.962,-531.189,81.116,27.710
0.496,-2.003,2.489,-615.601,104.431,4.333
0.505,-2.190,1.874,-680.847,134.338,-13.062
0.505,-2.282,1.321,-730.347,178.162,-31.860
0.440,-2.393,0.827,-768.921,235.779,-40.833
0.309,-2.424,0.417,-798.401,301.147,-30.823
0.195,-2.271,0.205,-811.646,363.281,-3.540
0.016,-2.116,0.105,-805.054,409.668,38.452
-0.102,-2.022,-0.035,-780.212,437.988,88.135
-0.157,-1.993,-0.131,-746.155,441.589,142.090
-0.232,-1.970,-0.229,-711.853,414.001,195.251
-0.265,-1.867,-0.292,-680.664,357.544,241.760
-0.177,-1.893,-0.352,-655.090,269.165,277.771
-0.023,-2.062,-0.496,-633.484,152.710,301.758
-0.064,-2.351,-0.879,-609.619,21.912,299.683
-0.393,-2.425,-1.632,-577.332,-97.168,252.991
-0.721,-1.971,-2.258,-531.616,-173.096,173.889
-0.865,-1.548,-2.398,-467.834,-187.744,89.783
-0.886,-1.589,-2.389,-372.925,-154.968,1.160
-0.559,-1.690,-2.115,-279.724,-88.562,-79.102
-0.078,-1.626,-1.726,-206.482,-16.052,-135.315
0.242,-1.683,-1.532,-145.386,33.508,-169.983
0.521,-1.799,-1.467,-97.290,69.153,-187.317
0.834,-1.873,-1.400,-64.392,94.055,-187.622
1.105,-1.929,-1.400,-44.617,98.999,-179.871
1.328,-1.975,-1.431,-35.889,87.463,-169.250
1.493,-2.010,-1.427,-39.307,70.984,-146.912
1.443,-1.875,-1.499,-52.307,49.500,-110.596
1.326,-1.523,-1.590,-62.317,17.639,-75.012
1.225,-1.127,-1.644,-56.763,-6.409,-36.133
1.100,-0.831,-1.643,-33.875,-19.775,2.563
0.925,-0.613,-1.550,-1.770,-28.992,32.349
0.762,-0.503,-1.492,33.997,-36.255,53.162
0.599,-0.460,-1.402,69.214,-35.767,65.796
0.471,-0.513,-1.361,100.891,-32.104,70.923
0.385,-0.656,-1.325,122.498,-25.635,69.397
0.321,-0.723,-1.215,129.211,-15.930,62.988
0.322,-0.758,-1.180,127.625,-11.169,56.702
0.358,-0.779,-1.153,119.263,-10.254,50.415
0.396,-0.775,-1.127,105.042,-11.536,43.579
0.423,-0.714,-1.118,89.478,-14.099,37.354
0.415,-0.564,-1.089,75.867,-19.043,30.212
0.425,-0.426,-1.057,68.665,-23.254,22.705
0.422,-0.333,-1.052,68.176,-23.682,15.564
0.432,-0.278,-1.017,72.815,-18.127,7.568
0.457,-0.228,-0.973,80.872,-9.827,1.343
0.495,-0.255,-0.953,91.980,-3.479,-2.258
0.591,-0.353,-0.974,101.379,2.380,-5.310
0.688,-0.348,-0.936,106.262,6.836,-10.925
0.750,-0.382,-0.886,110.413,2.808,-14.709
0.846,-0.397,-0.899,112.122,-7.385,-15.930
0.859,-0.366,-0.925,112.915,-17.822,-12.634
0.787,-0.334,-0.952,115.967,-28.320,-4.517
0.768,-0.290,-0.971,122.559,-38.452,6.897
0.751,-0.270,-0.986,131.836,-46.875,18.066
0.715,-0.256,-0.948,140.747,-54.016,25.391
0.646,-0.311,-0.960,150.452,-63.293,30.884
0.691,-0.246,-0.973,158.997,-71.777,30.945
0.740,-0.222,-0.967,168.274,-74.829,27.344
0.641,-0.251,-0.913,176.453,-74.768,23.010
0.604,-0.199,-0.881,182.495,-76.233,19.653
0.664,-0.118,-0.823,188.232,-76.782,18.799
0.609,-0.143,-0.749,194.824,-77.271,20.325
0.590,-0.171,-0.729,197.876,-81.726,20.691
0.665,-0.019,-0.719,200.073,-86.304,22.827
0.618,-0.073,-0.694,206.543,-88.562,29.480
0.607,-0.167,-0.697,208.008,-94.849,29.602
0.667,-0.055,-0.660,203.430,-98.511,27.039
0.653,0.063,-0.569,200.867,-99.976,25.146
0.655,0.116,-0.515,200.867,-104.004,22.888
0.680,0.130,-0.510,201.599,-108.032,20.447
0.680,0.136,-0.530,202.087,-107.971,17.761
0.571,0.136,-0.540,202.820,-101.624,17.090
0.500,0.091,-0.557,203.613,-91.248,19.226
0.522,0.091,-0.536,203.125,-80.444,20.081
0.580,0.078,-0.514,201.904,-71.533,19.409
0.692,0.192,-0.446,200.562,-64.575,15.442
0.799,0.292,-0.359,203.918,-64.453,11.719
0.851,0.309,-0.306,211.304,-74.524,10.559
0.849,0.309,-0.255,217.896,-88.318,12.390
0.838,0.313,-0.210,223.694,-103.394,16.541
0.810,0.274,-0.216,227.295,-119.324,21.851
0.750,0.234,-0.219,228.027,-130.981,28.137
0.650,0.201,-0.238,225.464,-138.000,36.133
0.552,0.142,-0.278,221.008,-138.977,44.434
0.519,0.124,-0.272,213.379,-132.324,50.354
0.586,0.211,-0.210,206.482,-123.291,52.185
0.633,0.283,-0.172,205.444,-120.422,50.537
0.624,0.307,-0.157,209.045,-120.117,45.959
0.618,0.340,-0.118,216.553,-118.103,40.344
0.621,0.354,-0.083,227.112,-116.455,34.119
0.614,0.319,-0.074,239.014,-115.417,27.344
0.572,0.251,-0.075,248.840,-111.938,22.034
0.515,0.183,-0.067,254.639,-104.797,18.494
0.497,0.152,-0.026,255.981,-94.849,16.602
0.517,0.124,0.011,255.615,-84.534,15.442
0.567,0.133,0.090,254.150,-76.233,15.076
0.654,0.182,0.228,255.920,-72.144,15.015
0.682,0.184,0.316,261.963,-77.209,15.564
0.649,0.125,0.361,268.433,-85.449,15.869
0.603,0.061,0.405,270.386,-91.736,16.113
0.537,0.008,0.413,266.357,-95.520,16.174
0.414,-0.054,0.387,257.019,-93.384,17.090
0.265,-0.116,0.358,241.699,-79.102,18.005
0.209,-0.129,0.395,221.252,-50.415,17.395
0.281,-0.100,0.496,201.233,-13.672,15.686
0.358,-0.084,0.593,184.326,20.691,13.550
0.379,-0.085,0.658,170.776,47.424,9.705
0.432,-0.078,0.720,160.217,68.970,4.211
0.589,-0.051,0.795,152.832,85.571,-2.625
0.788,-0.043,0.871,148.499,92.407,-9.216
0.867,-0.057,0.888,143.860,85.022,-15.564

1.052,-0.643,1.767,285.278,71.594,55.725
0.840,-1.327,2.167,293.640,62.561,99.976
0.347,-2.272,2.604,248.169,58.716,147.949
-0.253,-3.203,3.183,134.521,86.304,174.561
-0.219,-3.431,3.199,-47.363,140.015,164.307
0.661,-3.153,2.753,-254.700,187.744,146.118
0.998,-3.076,2.299,-442.444,192.505,155.945
0.758,-3.165,1.782,-598.816,167.114,179.382
0.526,-3.182,1.176,-718.994,129.395,196.472
0.299,-3.184,0.628,-804.443,92.957,208.496
0.037,-3.157,0.166,-859.863,70.374,207.336
-0.117,-3.000,-0.230,-891.296,67.444,197.998
-0.110,-2.745,-0.412,-902.527,81.787,195.557
0.003,-2.518,-0.408,-897.522,98.511,198.425
0.131,-2.375,-0.445,-879.822,103.577,201.416
0.217,-2.301,-0.526,-857.178,89.355,203.918
0.257,-2.260,-0.605,-833.740,55.542,201.355
0.324,-2.373,-0.777,-814.758,11.963,194.824
0.407,-2.766,-1.158,-805.786,-20.081,176.208
0.467,-3.118,-1.739,-810.608,-21.973,137.024
0.559,-3.041,-2.107,-828.857,-2.258,97.046
0.803,-2.661,-2.060,-844.727,13.123,75.134
1.153,-2.357,-1.943,-833.984,4.639,65.979
1.378,-2.133,-1.948,-794.739,-28.870,63.416
1.429,-1.834,-2.023,-735.962,-77.026,64.331
1.235,-1.500,-2.167,-652.222,-124.084,66.101
0.813,-1.075,-2.294,-538.025,-147.095,67.139
0.595,-0.696,-2.131,-407.410,-136.047,69.397
0.659,-0.777,-1.651,-271.362,-106.934,80.872
0.863,-1.280,-1.200,-142.700,-82.092,95.154
0.990,-1.645,-1.072,-48.218,-69.214,102.722
1.083,-1.863,-1.061,7.080,-57.312,101.746
1.240,-1.913,-1.030,33.630,-48.828,92.651
1.348,-1.833,-0.906,43.335,-51.147,75.989
1.399,-1.711,-0.730,43.457,-63.538,55.298
1.311,-1.473,-0.689,35.950,-80.811,36.560
1.118,-1.182,-0.744,26.611,-93.750,19.470
0.990,-0.913,-0.773,21.423,-90.393,3.662
0.929,-0.642,-0.780,22.400,-72.083,-9.583
0.901,-0.433,-0.750,29.541,-47.302,-18.066
0.907,-0.303,-0.681,39.490,-23.376,-20.447
0.952,-0.230,-0.596,50.293,-6.287,-18.005
1.002,-0.192,-0.512,59.082,0.610,-12.695
1.017,-0.200,-0.472,65.796,-0.427,-5.432
1.030,-0.199,-0.451,69.458,-4.944,1.282
1.038,-0.215,-0.422,69.519,-9.094,9.338
1.047,-0.243,-0.398,65.979,-11.658,16.663
1.057,-0.242,-0.394,61.157,-12.024,22.644
1.063,-0.187,-0.405,57.007,-11.292,28.076
1.036,-0.146,-0.422,55.054,-11.414,32.959
1.016,-0.124,-0.416,54.504,-11.475,37.292
1.005,-0.104,-0.407,55.725,-11.292,40.344
0.991,-0.075,-0.400,57.617,-12.024,42.542
0.953,-0.075,-0.389,61.157,-13.428,44.495
0.941,-0.089,-0.362,64.514,-13.000,45.532
0.949,-0.108,-0.337,66.711,-10.986,46.143
0.987,-0.109,-0.285,66.711,-9.033,45.410
1.031,-0.076,-0.298,66.345,-8.606,44.617
0.973,-0.160,-0.270,66.650,-7.629,44.800
0.999,-0.133,-0.279,61.523,-8.667,39.246
0.999,-0.091,-0.233,57.190,-6.287,33.630
0.939,-0.087,-0.282,53.833,-6.104,30.396
0.911,-0.117,-0.313,52.307,-4.395,27.283
0.867,-0.107,-0.344,49.561,-0.671,20.508
0.920,-0.023,-0.362,47.119,5.920,11.963
0.989,0.045,-0.300,49.011,13.245,7.996
1.009,-0.002,-0.288,54.749,11.047,7.446
0.976,-0.060,-0.324,60.486,2.380,5.188
0.968,-0.077,-0.333,64.636,-4.517,2.258
1.039,-0.045,-0.323,68.787,-10.254,2.136
0.992,-0.127,-0.401,76.355,-16.785,6.226
0.951,-0.167,-0.430,82.031,-18.799,6.836
0.976,-0.138,-0.423,86.487,-15.564,4.395
1.020,-0.080,-0.385,93.811,-9.766,4.883
1.052,-0.071,-0.359,102.112,-7.019,8.301
1.048,-0.130,-0.330,108.521,-6.958,10.376
1.090,-0.098,-0.282,111.145,-5.798,11.047
1.112,-0.076,-0.284,113.220,-7.385,14.526
1.048,-0.097,-0.316,115.967,-11.108,19.653
0.997,-0.102,-0.357,118.164,-13.672,23.743
0.985,-0.057,-0.394,122.681,-14.648,26.123
0.985,0.003,-0.395,129.822,-13.672,26.611
0.958,0.031,-0.398,138.916,-12.268,24.536
0.911,0.037,-0.413,149.475,-10.132,20.630
0.890,0.065,-0.417,159.485,-5.737,15.259
0.906,0.098,-0.411,170.044,1.160,9.094
0.919,0.107,-0.431,182.129,7.996,2.441
0.895,0.077,-0.454,193.726,14.771,-3.784
0.862,0.029,-0.466,204.285,22.949,-9.644
0.859,-0.033,-0.476,212.463,31.921,-15.991
0.884,-0.086,-0.479,217.712,40.833,-20.996
0.917,-0.135,-0.486,221.313,47.058,-24.414
0.958,-0.106,-0.462,223.633,50.171,-28.076
0.999,-0.027,-0.435,224.976,49.316,-29.846
1.029,0.004,-0.425,229.004,43.274,-27.283
1.056,0.004,-0.407,234.436,35.278,-22.522
1.069,0.022,-0.385,238.281,26.672,-17.822
1.067,0.026,-0.395,242.249,17.029,-13.184
1.047,0.004,-0.424,247.070,8.423,-9.949
1.008,-0.039,-0.445,250.305,3.235,-7.874
0.953,-0.083,-0.473,250.916,0.793,-6.775
0.894,-0.113,-0.499,249.207,2.625,-6.958
0.852,-0.132,-0.509,246.277,7.080,-8.057
0.843,-0.138,-0.510,242.126,12.695,-10.559
0.827,-0.113,-0.492,238.220,18.372,-14.526
0.819,-0.069,-0.462,236.328,23.132,-18.005
0.837,-0.055,-0.432,237.671,25.269,-21.240
0.853,-0.059,-0.395,241.028,24.475,-23.621
0.864,-0.056,-0.344,245.178,20.996,-25.146
0.865,-0.061,-0.304,249.878,15.442,-27.100
0.853,-0.083,-0.278,254.272,8.423,-28.870
0.860,-0.108,-0.265,256.958,1.587,-31.006
0.856,-0.128,-0.265,258.179,-3.967,-34.058
0.793,-0.137,-0.266,258.179,-7.812,-36.865
0.762,-0.130,-0.258,257.935,-10.254,-37.048
0.813,-0.146,-0.257,258.301,-11.780,-34.729
0.814,-0.203,-0.256,258.179,-11.230,-33.325
0.747,-0.207,-0.231,255.493,-9.277,-35.156
0.729,-0.177,-0.188,254.028,-5.798,-37.292

1.295,-0.540,1.378,-6.714,-30.212,56.152
1.239,-0.738,1.685,-18.799,-30.396,70.984
1.203,-0.962,1.951,-43.335,-30.151,84.290
1.125,-1.249,2.098,-84.229,-32.227,94.177
1.046,-1.494,2.184,-142.700,-28.809,97.473
0.949,-1.671,2.124,-219.177,-16.907,97.961
0.871,-1.784,1.989,-304.321,1.770,97.717
0.837,-1.856,1.796,-386.047,23.437,94.055
0.853,-1.872,1.576,-460.449,43.335,89.783
0.896,-1.819,1.311,-522.949,58.716,86.792
0.859,-1.748,1.019,-567.810,67.810,85.938
0.786,-1.677,0.795,-594.604,75.623,89.600
0.690,-1.643,0.591,-605.896,82.214,98.572
0.619,-1.611,0.400,-607.544,84.290,112.061
0.541,-1.602,0.230,-601.013,82.520,128.113
0.411,-1.630,0.047,-594.666,77.637,144.470
0.316,-1.667,-0.127,-591.003,71.777,159.180
0.294,-1.701,-0.272,-590.820,63.721,171.997
0.286,-1.738,-0.451,-593.445,47.729,182.312
0.330,-1.842,-0.614,-599.487,24.109,189.026
0.412,-1.986,-0.852,-608.459,-9.338,192.993
0.377,-1.969,-1.276,-609.924,-49.805,187.927
0.292,-1.744,-1.708,-604.736,-81.604,167.664
0.278,-1.535,-1.972,-589.661,-87.463,135.071
0.254,-1.498,-2.084,-562.256,-66.040,97.839
0.197,-1.495,-2.085,-530.640,-26.855,58.655
0.253,-1.408,-1.975,-500.916,15.442,26.978
0.569,-1.377,-1.803,-473.572,45.959,9.338
0.893,-1.367,-1.733,-443.298,55.481,6.592
0.990,-1.270,-1.689,-408.691,46.143,5.676
1.033,-1.152,-1.601,-370.605,28.076,1.099
1.196,-1.105,-1.507,-323.975,6.897,-5.493
1.360,-1.077,-1.430,-271.423,-17.151,-14.832
1.338,-1.003,-1.369,-215.637,-40.466,-27.771
1.226,-0.907,-1.307,-158.875,-51.697,-45.532
1.147,-0.843,-1.232,-105.103,-46.387,-59.387
1.161,-0.805,-1.140,-58.350,-30.396,-63.965
1.214,-0.758,-1.046,-19.592,-15.015,-61.462
1.266,-0.718,-0.959,10.681,-4.272,-53.345
1.305,-0.695,-0.875,32.227,1.282,-38.879
1.327,-0.663,-0.778,45.776,1.587,-19.958
1.319,-0.594,-0.687,53.223,-4.395,-0.610
1.284,-0.502,-0.634,57.251,-15.930,18.066
1.219,-0.430,-0.608,61.096,-29.175,33.325
1.119,-0.363,-0.627,66.040,-40.527,44.434
1.013,-0.293,-0.659,71.960,-46.631,50.232
0.928,-0.242,-0.654,77.087,-44.922,52.124
0.873,-0.209,-0.628,81.238,-37.170,51.575
0.845,-0.195,-0.614,84.045,-28.748,49.377
0.832,-0.186,-0.603,86.060,-21.545,44.800
0.818,-0.166,-0.595,87.341,-15.442,39.001
0.818,-0.148,-0.603,89.111,-10.742,33.569
0.816,-0.150,-0.624,91.614,-7.080,28.870
0.835,-0.137,-0.619,93.994,-3.296,24.597
0.855,-0.114,-0.596,95.581,-1.282,20.935
0.903,-0.092,-0.580,96.558,-2.075,18.555
0.915,-0.100,-0.572,96.619,-2.502,16.785
0.897,-0.077,-0.546,95.520,-2.808,13.916
0.891,-0.037,-0.553,95.337,-3.662,11.536
0.926,0.005,-0.551,97.290,-2.686,10.132
0.889,-0.005,-0.553,100.830,-1.343,12.146
0.864,0.004,-0.536,103.210,0.000,10.742
0.980,0.113,-0.551,107.178,0.488,9.460
0.909,0.040,-0.603,117.981,1.465,12.268
0.858,0.064,-0.588,125.427,3.784,8.789
0.844,0.043,-0.607,133.301,6.592,6.226
0.863,0.016,-0.605,141.724,11.292,1.648
0.856,-0.056,-0.614,147.278,15.686,-2.380
0.944,-0.090,-0.546,148.987,21.301,-4.272
0.999,-0.098,-0.493,148.254,21.729,-7.141
1.012,-0.071,-0.455,145.203,15.625,-10.254
0.995,-0.057,-0.438,139.648,6.165,-7.935
1.003,-0.032,-0.434,134.338,-4.272,-3.540
1.001,0.078,-0.403,130.066,-14.099,-1.404
0.959,0.100,-0.406,130.432,-22.156,1.831
0.930,0.108,-0.433,132.935,-27.588,4.395
0.885,0.107,-0.460,137.756,-28.625,7.202
0.857,0.114,-0.450,142.517,-24.963,8.240
0.835,0.078,-0.473,147.339,-20.325,7.568
0.800,0.042,-0.509,151.062,-14.954,5.310
0.763,0.012,-0.541,154.175,-8.484,2.686
0.750,0.002,-0.564,156.311,-1.221,-1.343
0.774,0.026,-0.574,157.532,7.202,-6.470
0.815,0.110,-0.544,159.668,16.296,-13.000
0.886,0.162,-0.491,165.283,22.034,-18.066
0.913,0.155,-0.445,171.814,20.935,-18.494
0.972,0.208,-0.364,177.734,14.954,-17.273
0.983,0.165,-0.334,182.861,3.418,-13.428
0.979,0.171,-0.347,185.913,-10.681,-10.742
0.904,0.084,-0.371,188.049,-20.996,-5.615
0.801,0.059,-0.422,186.035,-27.710,-5.493
0.716,0.024,-0.474,181.641,-25.208,-5.310
0.683,0.063,-0.483,175.842,-14.465,-6.470
0.688,0.098,-0.447,172.058,0.183,-7.996
0.700,0.115,-0.433,170.776,12.207,-12.695
0.715,0.173,-0.402,170.654,23.254,-18.616
0.816,0.176,-0.338,173.889,31.738,-21.667
0.876,0.181,-0.288,177.612,31.372,-25.452
0.831,0.146,-0.294,180.359,24.414,-27.100
0.787,0.109,-0.315,180.847,17.761,-28.015
0.769,0.096,-0.326,180.237,13.916,-28.564
0.763,0.051,-0.327,179.687,12.756,-29.175
0.778,0.068,-0.325,178.406,12.024,-32.776
0.848,0.106,-0.291,180.176,13.550,-36.011
0.857,0.112,-0.269,184.692,12.878,-36.621
0.850,0.093,-0.242,189.514,10.071,-35.095
0.847,0.084,-0.226,192.627,5.920,-33.630
0.830,0.059,-0.227,193.909,1.404,-32.715
0.804,0.030,-0.251,192.932,-1.404,-33.142
0.773,0.008,-0.275,190.247,-1.587,-34.973
0.779,0.010,-0.270,187.561,1.160,-37.476
0.846,0.044,-0.207,187.195,5.615,-41.138
0.910,0.069,-0.145,190.979,7.141,-44.861
0.931,0.064,-0.107,198.059,3.357,-48.218
0.933,0.067,-0.069,206.238,-2.563,-50.781
0.932,0.059,-0.056,214.844,-9.033,-52.185
0.925,0.035,-0.065,223.999,-14.587,-53.223
0.905,0.000,-0.060,231.323,-16.479,-54.626
0.886,-0.031,-0.038,235.535,-14.771,-54.932

1.095,-0.533,1.335,-9.888,-3.174,38.757
1.075,-0.779,1.636,-33.264,2.686,49.377
1.061,-1.060,1.989,-69.824,5.066,61.401
1.034,-1.353,2.256,-120.239,0.793,71.472
0.953,-1.627,2.366,-186.218,-10.864,73.486
0.815,-1.867,2.340,-265.930,-20.203,68.604
0.693,-2.041,2.298,-349.670,-17.578,61.279
0.635,-2.157,2.182,-431.763,-7.385,53.223
0.613,-2.282,2.008,-511.536,2.563,48.279
0.596,-2.404,1.799,-591.248,9.705,48.157
0.627,-2.437,1.518,-665.955,11.780,50.110
0.646,-2.480,1.120,-725.830,8.850,53.223
0.581,-2.580,0.735,-771.606,7.385,56.213
0.589,-2.683,0.414,-808.289,16.541,57.129
0.633,-2.750,0.079,-836.304,29.907,59.143
0.694,-2.907,-0.198,-855.530,43.518,64.758
0.866,-3.151,-0.475,-874.207,51.941,69.885
1.091,-3.262,-0.738,-890.259,49.438,71.777
1.156,-3.119,-0.943,-896.545,33.997,74.524
1.106,-2.870,-1.070,-888.306,9.949,78.369
1.074,-2.668,-1.183,-863.464,-16.479,82.275
0.966,-2.490,-1.298,-823.364,-37.903,79.590
0.786,-2.282,-1.486,-773.743,-48.645,67.017
0.606,-2.045,-1.718,-714.478,-46.692,45.349
0.408,-1.746,-1.953,-644.897,-28.687,14.771
0.280,-1.490,-2.074,-560.913,6.165,-17.639
0.522,-1.345,-1.973,-467.468,41.870,-40.222
0.814,-1.469,-1.777,-367.004,56.763,-46.936
0.848,-1.683,-1.582,-269.043,49.072,-48.584
0.886,-1.834,-1.441,-190.125,30.762,-53.955
0.995,-1.826,-1.392,-123.169,10.498,-59.631
1.046,-1.726,-1.340,-65.186,-6.653,-63.721
1.077,-1.624,-1.222,-15.930,-17.639,-63.965
1.162,-1.498,-1.062,21.179,-22.339,-60.791
1.274,-1.342,-0.902,47.180,-24.231,-54.810
1.373,-1.151,-0.779,64.270,-29.236,-46.143
1.395,-0.946,-0.687,74.585,-38.513,-34.851
1.362,-0.750,-0.618,79.834,-47.913,-22.095
1.316,-0.562,-0.566,81.238,-52.917,-8.789
1.258,-0.396,-0.536,80.627,-52.734,3.601
1.203,-0.313,-0.502,79.590,-48.157,15.869
1.139,-0.272,-0.474,76.721,-40.588,25.818
1.071,-0.236,-0.459,72.021,-30.151,32.104
1.032,-0.221,-0.453,66.956,-17.700,35.889
1.001,-0.213,-0.445,61.707,-7.019,35.767
0.987,-0.225,-0.457,57.007,0.610,32.410
1.002,-0.257,-0.492,54.260,6.470,27.649
0.982,-0.287,-0.535,52.979,9.033,23.560
0.941,-0.288,-0.578,52.307,10.437,19.531
0.922,-0.264,-0.593,52.795,12.695,16.357
0.903,-0.242,-0.593,55.481,15.442,13.977
0.870,-0.225,-0.612,60.669,17.273,10.559
0.852,-0.201,-0.630,68.298,19.226,6.042
0.846,-0.181,-0.644,78.918,22.400,1.465
0.841,-0.202,-0.673,92.712,26.428,-3.540
0.843,-0.228,-0.699,107.727,30.212,-8.240
0.870,-0.266,-0.670,120.789,35.156,-11.230
0.901,-0.360,-0.632,131.226,40.161,-12.512
0.921,-0.341,-0.586,138.672,43.213,-15.808
0.924,-0.316,-0.542,143.921,43.030,-18.494
0.947,-0.289,-0.524,147.827,42.236,-19.836
0.967,-0.258,-0.535,152.893,39.551,-20.142
0.964,-0.218,-0.515,159.363,35.339,-18.005
0.953,-0.216,-0.498,166.382,29.785,-15.442
0.953,-0.255,-0.520,174.377,21.790,-13.916
0.968,-0.280,-0.550,182.678,15.381,-13.428
0.960,-0.178,-0.559,189.697,13.306,-13.550
0.958,-0.158,-0.552,199.585,13.306,-9.827
0.944,-0.251,-0.571,208.008,9.399,-6.287
0.935,-0.257,-0.579,212.219,6.409,-6.958
0.946,-0.136,-0.515,212.463,7.568,-8.545
0.964,-0.065,-0.459,214.355,7.751,-8.789
0.968,-0.061,-0.454,217.529,3.784,-7.141
0.945,-0.061,-0.450,220.642,-1.404,-5.737
0.915,-0.052,-0.427,222.717,-5.188,-5.249
0.902,-0.086,-0.436,224.609,-7.263,-6.226
0.880,-0.176,-0.484,225.952,-7.080,-9.888
0.840,-0.183,-0.488,223.694,-3.540,-15.808
0.812,-0.103,-0.449,219.299,2.075,-19.897
0.811,-0.069,-0.451,217.163,5.798,-20.935
0.827,-0.059,-0.443,216.736,7.446,-20.081
0.872,0.005,-0.381,215.820,7.751,-19.287
0.922,0.067,-0.334,216.858,5.188,-19.958
0.947,0.081,-0.315,220.886,-0.183,-20.630
0.949,0.121,-0.274,225.586,-5.859,-20.386
0.928,0.159,-0.254,230.713,-11.902,-19.531
0.906,0.150,-0.276,237.427,-18.066,-18.250
0.880,0.123,-0.284,244.324,-21.423,-17.151
0.854,0.081,-0.284,249.146,-22.278,-15.991
0.849,0.029,-0.290,250.122,-22.217,-15.442
0.893,0.046,-0.248,247.742,-20.752,-16.357
0.948,0.085,-0.203,245.117,-21.667,-17.944
0.972,0.081,-0.175,243.103,-26.672,-19.165
0.955,0.073,-0.161,240.112,-34.546,-18.982
0.910,0.080,-0.162,236.084,-43.274,-17.517
0.849,0.073,-0.186,231.323,-51.514,-15.320
0.783,0.077,-0.203,226.807,-56.763,-13.489
0.742,0.082,-0.219,223.083,-57.983,-13.245
0.746,0.112,-0.199,221.741,-57.312,-14.526
0.804,0.182,-0.094,226.685,-54.749,-17.578
0.853,0.181,-0.002,237.305,-54.443,-21.973
0.885,0.140,0.042,246.948,-59.265,-26.489
0.892,0.097,0.077,253.052,-66.772,-31.372
0.870,0.064,0.094,255.127,-75.500,-36.560
0.839,0.033,0.071,253.662,-83.496,-40.649
0.831,-0.003,0.057,248.657,-89.539,-43.762
0.796,-0.024,0.019,240.112,-93.323,-44.006
0.739,-0.026,-0.024,228.516,-92.957,-40.833
0.695,-0.028,-0.039,215.210,-88.074,-36.194
0.675,-0.015,-0.039,202.576,-77.209,-32.471
0.668,-0.009,-0.031,191.956,-62.195,-28.931
0.692,-0.014,0.003,184.204,-46.082,-26.184
0.729,-0.020,0.040,181.335,-30.823,-25.757
0.749,-0.038,0.078,182.129,-17.761,-26.428
0.774,-0.058,0.127,184.998,-6.470,-28.442
0.809,-0.078,0.168,187.744,1.953,-32.410
0.850,-0.106,0.199,189.392,7.141,-36.987
0.877,-0.124,0.216,187.561,10.193,-39.551
0.893,-0.132,0.209,181.580,11.169,-39.246

1.062,-0.949,1.852,46.997,-7.874,33.081
0.958,-1.331,2.238,6.104,-16.113,43.457
0.730,-1.690,2.422,-66.895,-25.330,52.673
0.446,-1.931,2.368,-165.894,-19.531,56.213
0.289,-2.012,2.143,-280.273,7.446,55.237
0.203,-1.999,1.910,-393.982,49.988,55.298
0.190,-1.980,1.693,-497.253,93.262,58.350
0.292,-1.964,1.504,-583.984,128.723,62.012
0.482,-1.965,1.310,-650.879,148.682,60.913
0.638,-2.059,1.177,-702.148,154.297,61.768
0.649,-2.109,0.947,-742.249,149.719,66.284
0.654,-2.138,0.704,-770.264,138.123,73.486
0.685,-2.186,0.485,-787.476,123.047,80.444
0.712,-2.245,0.341,-797.119,106.812,85.815
0.740,-2.340,0.306,-804.199,87.708,92.529
0.761,-2.488,0.237,-813.904,63.721,103.577
0.749,-2.510,0.116,-825.195,37.292,115.784
0.637,-2.391,0.019,-834.229,11.902,122.498
0.498,-2.307,-0.101,-832.703,-5.493,124.451
0.449,-2.339,-0.237,-820.435,-9.888,124.329
0.439,-2.360,-0.368,-805.359,-5.554,118.530
0.447,-2.374,-0.539,-786.377,0.793,106.506
0.500,-2.397,-0.831,-762.451,6.042,92.834
0.595,-2.386,-1.208,-729.248,9.827,70.740
0.810,-2.204,-1.628,-681.091,11.292,36.194
0.955,-1.841,-1.922,-618.042,12.390,-6.836
0.950,-1.397,-1.964,-542.053,9.216,-47.791
0.888,-1.083,-1.763,-445.984,4.822,-80.872
0.899,-1.054,-1.353,-337.646,3.113,-102.417
1.010,-1.270,-0.981,-236.511,-4.883,-107.544
1.083,-1.541,-0.825,-153.198,-18.372,-100.342
1.183,-1.641,-0.722,-95.764,-27.222,-85.815
1.303,-1.669,-0.607,-57.983,-29.419,-63.599
1.488,-1.669,-0.514,-32.043,-34.668,-37.476
1.656,-1.610,-0.446,-14.709,-48.584,-12.451
1.700,-1.487,-0.407,-5.310,-70.984,9.094
1.604,-1.274,-0.436,-1.648,-92.590,27.588
1.462,-1.059,-0.492,0.610,-104.248,41.260
1.303,-0.906,-0.528,3.174,-100.342,49.438
1.185,-0.799,-0.549,5.920,-82.947,53.894
1.117,-0.733,-0.556,7.690,-59.387,55.603
1.079,-0.699,-0.545,8.179,-37.415,55.237
1.027,-0.664,-0.542,8.057,-22.522,53.284
0.974,-0.617,-0.554,6.958,-14.893,51.270
0.907,-0.584,-0.585,6.409,-12.878,49.377
0.841,-0.569,-0.624,7.629,-12.756,46.875
0.807,-0.549,-0.654,10.620,-11.902,43.335
0.797,-0.544,-0.668,14.893,-10.559,38.574
0.770,-0.544,-0.672,18.982,-8.362,32.166
0.762,-0.504,-0.679,21.790,-3.723,24.109
0.790,-0.468,-0.669,24.597,2.686,15.320
0.831,-0.451,-0.651,27.771,9.766,6.226
0.869,-0.422,-0.635,31.616,16.663,-3.052
0.905,-0.395,-0.617,36.255,23.254,-11.230
0.938,-0.352,-0.606,41.382,28.137,-18.799
0.988,-0.321,-0.572,47.729,32.593,-24.170
1.017,-0.332,-0.526,54.443,36.255,-26.855
1.039,-0.321,-0.489,58.472,38.757,-27.527
1.068,-0.300,-0.454,60.120,40.649,-25.269
1.100,-0.290,-0.427,61.279,40.100,-20.203
1.117,-0.309,-0.423,63.538,37.537,-13.794
1.120,-0.329,-0.415,65.613,34.241,-6.836
1.116,-0.338,-0.421,68.420,28.809,-0.427
1.095,-0.365,-0.431,72.571,22.461,5.493
1.078,-0.399,-0.445,77.148,17.029,8.423
1.045,-0.410,-0.464,82.397,14.648,7.446
1.000,-0.380,-0.471,87.708,15.930,3.113
0.989,-0.352,-0.460,92.346,21.057,-1.404
1.003,-0.347,-0.432,97.412,26.367,-3.174
0.988,-0.370,-0.418,102.295,28.564,-3.113
0.982,-0.356,-0.413,106.018,26.794,-2.258
0.969,-0.366,-0.425,111.206,20.569,1.038
0.939,-0.406,-0.441,117.920,10.925,6.287
0.922,-0.395,-0.475,125.916,0.366,10.498
0.904,-0.348,-0.494,135.498,-7.874,10.986
0.899,-0.344,-0.507,146.606,-13.184,8.972
0.897,-0.279,-0.495,158.203,-13.306,4.578
0.887,-0.179,-0.452,169.434,-8.118,-0.183
0.905,-0.139,-0.418,180.603,-2.747,-2.136
0.919,-0.133,-0.407,191.284,0.427,-0.427
0.926,-0.153,-0.384,200.684,1.831,3.723
0.926,-0.203,-0.381,207.947,0.977,9.033
0.910,-0.261,-0.416,214.355,-1.953,13.916
0.893,-0.333,-0.442,220.032,-5.615,17.639
0.873,-0.298,-0.463,223.694,-9.521,17.273
0.861,-0.235,-0.475,227.661,-12.085,14.832
0.853,-0.164,-0.491,235.596,-12.634,8.667
0.833,-0.038,-0.499,246.460,-11.414,-1.770
0.829,0.075,-0.488,261.536,-8.362,-12.573
0.824,0.135,-0.489,282.227,-5.371,-21.851
0.812,0.108,-0.496,305.847,-2.380,-28.748
0.797,0.038,-0.493,327.759,0.671,-34.607
0.796,-0.072,-0.499,345.154,3.601,-39.795
0.805,-0.194,-0.502,357.361,6.165,-44.250
0.828,-0.271,-0.487,363.220,8.301,-46.936
0.852,-0.303,-0.458,363.647,8.728,-47.607
0.877,-0.322,-0.442,361.328,6.653,-47.180
0.909,-0.298,-0.414,358.704,2.014,-46.265
0.956,-0.259,-0.374,355.652,-4.761,-44.556
0.984,-0.252,-0.325,354.370,-12.634,-41.992
0.995,-0.237,-0.274,353.271,-22.705,-38.452
0.966,-0.241,-0.241,351.685,-35.767,-34.607
0.933,-0.264,-0.236,348.328,-48.523,-29.907
0.894,-0.293,-0.239,343.201,-58.594,-26.184
0.832,-0.311,-0.250,335.327,-65.125,-23.987
0.769,-0.312,-0.251,325.867,-67.078,-23.071
0.762,-0.275,-0.217,317.627,-64.880,-22.949
0.775,-0.211,-0.161,314.026,-61.523,-23.621
0.782,-0.191,-0.110,315.430,-59.387,-24.597
0.801,-0.181,-0.046,319.397,-58.716,-26.306
0.820,-0.169,0.025,325.256,-60.486,-28.564
0.822,-0.173,0.080,331.055,-65.430,-30.640
0.802,-0.200,0.097,334.412,-73.364,-32.715
0.756,-0.246,0.084,333.313,-80.872,-34.546
0.694,-0.283,0.093,326.599,-84.045,-34.729
0.645,-0.308,0.097,316.406,-82.214,-31.982
0.624,-0.331,0.090,303.528,-77.393,-27.649
0.626,-0.354,0.151,290.100,-68.604,-23.254
0.644,-0.358,0.205,278.992,-56.885,-20.691

1.184,-0.925,1.352,62.378,-26.550,37.231
1.045,-1.348,1.836,38.635,-14.221,59.021
0.849,-1.862,2.304,-18.188,0.061,79.224
0.668,-2.372,2.544,-108.521,16.235,93.445
0.554,-2.733,2.628,-221.558,38.818,103.882
0.546,-2.995,2.514,-337.463,65.918,111.206
0.617,-3.177,2.327,-457.520,88.440,116.882
0.731,-3.449,2.079,-580.017,101.563,123.230
0.782,-3.854,1.665,-710.144,102.539,140.625
0.694,-4.000,1.136,-848.938,93.567,163.757
0.486,-4.000,0.569,-980.164,87.402,182.068
0.259,-4.000,0.075,-1081.665,85.449,194.641
0.172,-3.681,-0.316,-1125.061,85.449,199.890
0.168,-3.403,-0.383,-1126.160,92.712,202.271
0.257,-3.288,-0.360,-1108.887,102.051,200.745
0.422,-3.302,-0.451,-1087.585,99.487,195.007
0.523,-3.292,-0.692,-1071.289,78.369,189.270
0.560,-3.226,-1.049,-1054.077,38.513,177.429
0.634,-3.082,-1.484,-1027.039,-9.460,156.799
0.638,-2.721,-1.956,-982.178,-61.462,136.963
0.569,-2.203,-2.364,-907.288,-111.511,114.807
0.630,-1.431,-2.760,-787.781,-141.785,87.463
0.603,-0.834,-2.737,-629.578,-139.343,45.471
0.645,-0.727,-2.000,-454.895,-104.553,11.230
0.892,-1.206,-1.375,-285.645,-88.318,-11.658
1.029,-1.983,-1.080,-141.663,-77.026,-13.428
1.279,-2.371,-0.812,-60.791,-63.416,-9.583
1.610,-2.622,-0.496,-27.222,-59.692,-0.244
1.821,-2.520,-0.372,-21.973,-72.754,14.099
1.785,-2.073,-0.430,-26.733,-101.807,25.330
1.613,-1.650,-0.448,-27.527,-127.197,35.522
1.475,-1.285,-0.447,-23.315,-139.771,44.922
1.328,-0.999,-0.446,-15.198,-139.587,51.270
1.196,-0.821,-0.459,-3.723,-129.211,54.077
1.106,-0.735,-0.474,7.507,-108.643,53.955
1.052,-0.722,-0.437,15.259,-82.275,50.171
1.020,-0.730,-0.376,16.785,-58.533,42.908
0.996,-0.707,-0.387,11.963,-43.152,33.752
0.939,-0.682,-0.427,5.066,-34.119,25.269
0.862,-0.646,-0.445,-2.747,-27.222,16.724
0.786,-0.575,-0.475,-10.254,-19.836,8.240
0.731,-0.503,-0.521,-14.771,-11.475,-0.305
0.698,-0.441,-0.557,-15.625,-2.686,-8.789
0.664,-0.379,-0.583,-12.756,6.409,-17.761
0.678,-0.339,-0.582,-6.897,15.259,-26.489
0.692,-0.329,-0.583,0.671,22.705,-34.180
0.711,-0.328,-0.559,8.240,27.527,-41.016
0.743,-0.330,-0.534,14.282,31.067,-47.241
0.766,-0.307,-0.514,18.555,34.424,-52.673
0.798,-0.288,-0.493,22.827,37.964,-57.068
0.872,-0.261,-0.440,27.222,42.114,-61.340
0.966,-0.268,-0.366,31.555,46.387,-65.186
1.043,-0.283,-0.314,34.668,46.997,-68.665
1.099,-0.289,-0.283,35.461,43.884,-71.106
1.152,-0.278,-0.262,35.095,40.283,-71.167
1.160,-0.248,-0.253,34.851,36.133,-68.481
1.165,-0.236,-0.249,36.255,32.715,-62.805
1.176,-0.243,-0.247,40.527,29.358,-54.443
1.185,-0.246,-0.250,45.593,25.940,-44.983
1.211,-0.245,-0.258,50.598,24.414,-35.950
1.227,-0.222,-0.258,55.969,23.071,-27.283
1.216,-0.216,-0.261,61.707,21.301,-18.921
1.206,-0.213,-0.260,68.054,18.616,-10.742
1.166,-0.258,-0.283,75.256,15.442,-3.296
1.132,-0.295,-0.310,83.130,12.268,2.991
0.996,-0.391,-0.375,90.698,9.705,8.850
0.956,-0.475,-0.390,96.680,11.230,12.207
1.083,-0.454,-0.326,102.600,14.343,13.855
1.121,-0.380,-0.296,110.046,7.263,16.357
1.140,-0.361,-0.297,117.310,-6.409,18.188
1.125,-0.328,-0.313,122.925,-17.639,16.724
1.103,-0.195,-0.293,127.380,-21.667,13.367
1.085,-0.150,-0.280,133.667,-20.386,12.634
1.059,-0.180,-0.268,139.832,-16.113,13.062
1.037,-0.205,-0.239,142.944,-9.827,13.062
1.027,-0.250,-0.220,143.494,-4.333,13.184
0.972,-0.324,-0.247,143.066,-0.061,15.198
0.958,-0.368,-0.280,142.639,3.540,16.663
0.981,-0.368,-0.321,143.982,5.432,16.724
1.019,-0.273,-0.344,147.339,4.578,15.930
1.037,-0.081,-0.332,153.442,4.150,12.939
1.040,0.078,-0.299,164.612,3.967,10.620
1.031,0.157,-0.272,179.199,3.723,10.803
1.012,0.171,-0.255,194.702,2.441,11.414
0.995,0.190,-0.235,208.679,1.038,12.024
0.986,0.193,-0.259,221.863,-0.854,15.320
0.968,0.118,-0.327,236.206,-4.578,22.217
0.935,-0.017,-0.362,247.986,-8.423,28.625
0.893,-0.149,-0.380,254.517,-10.803,31.433
0.869,-0.195,-0.392,256.592,-12.146,29.297
0.869,-0.166,-0.414,256.958,-13.550,25.391
0.888,-0.068,-0.385,257.812,-14.099,22.034
0.904,-0.003,-0.327,260.437,-15.076,19.165
0.887,0.007,-0.307,264.954,-17.517,17.578
0.867,-0.012,-0.294,268.311,-18.738,17.212
0.861,-0.014,-0.258,268.188,-16.235,17.029
0.875,-0.027,-0.261,267.639,-12.451,17.761
0.888,-0.095,-0.276,264.832,-10.376,21.118
0.891,-0.185,-0.267,256.470,-8.545,25.513
0.903,-0.219,-0.238,243.591,-6.714,27.283
0.924,-0.210,-0.223,228.699,-5.188,26.001
0.948,-0.158,-0.218,214.233,-6.531,22.888
0.950,-0.061,-0.192,202.881,-9.583,18.921
0.935,0.006,-0.157,196.777,-12.695,14.893
0.921,0.056,-0.117,194.763,-14.832,11.719
0.931,0.098,-0.078,195.679,-16.357,9.094
0.947,0.084,-0.053,197.571,-18.616,8.667
0.958,0.041,-0.036,197.937,-21.667,8.850
0.957,0.003,-0.018,195.068,-24.231,9.155
0.939,-0.032,-0.020,189.270,-25.085,10.376
0.926,-0.083,-0.035,179.565,-26.123,13.245
0.917,-0.109,-0.026,164.856,-26.184,17.395
0.894,-0.087,-0.020,147.949,-25.757,20.874
0.859,-0.057,-0.031,132.629,-23.743,22.156
0.822,-0.007,-0.045,119.690,-19.531,21.729
0.789,0.054,-0.043,112.000,-12.756,18.616
0.778,0.117,-0.032,109.985,-4.395,13.733
0.792,0.163,-0.015,112.732,4.578,8.545
0.821,0.188,0.006,118.469,12.756,3.906

1.819,-0.838,2.981,15.442,113.403,71.655
1.618,-1.612,3.784,-58.716,83.618,130.249
0.880,-2.123,3.973,-193.115,29.480,155.640
0.110,-2.266,3.796,-354.919,12.634,154.602
-0.143,-2.253,3.603,-514.771,58.777,143.066
-0.077,-2.206,3.310,-649.719,139.221,121.826
0.045,-2.337,2.718,-746.704,216.553,95.886
0.063,-2.582,2.030,-809.082,283.020,73.792
0.040,-2.764,1.476,-850.525,350.891,60.120
-0.023,-2.742,0.935,-877.502,411.987,62.744
-0.130,-2.626,0.490,-885.803,453.064,77.881
-0.154,-2.473,0.298,-878.601,469.482,99.609
-0.145,-2.332,0.354,-860.107,459.473,133.972
0.006,-2.306,0.552,-833.618,410.706,176.208
0.203,-2.493,0.643,-803.589,307.800,215.210
0.063,-2.841,0.357,-767.639,173.218,229.126
-0.125,-3.419,-0.255,-724.060,52.429,200.317
-0.214,-3.873,-1.065,-676.514,-13.977,139.404
-0.456,-3.728,-1.662,-628.235,-21.790,58.838
-0.494,-3.321,-1.686,-569.092,8.240,-16.541
-0.117,-3.353,-1.548,-491.943,56.824,-75.562
0.258,-3.371,-1.506,-409.546,99.670,-114.563
0.552,-3.182,-1.406,-331.543,120.300,-128.479
0.737,-2.894,-1.313,-253.235,112.549,-110.962
0.807,-2.605,-1.312,-173.462,80.566,-74.158
0.795,-2.399,-1.295,-95.215,38.269,-31.738
0.689,-2.265,-1.279,-22.705,-5.188,7.507
0.497,-2.215,-1.309,38.269,-41.809,39.246
0.287,-2.119,-1.351,83.801,-64.636,60.608
0.107,-1.936,-1.349,111.633,-68.726,71.777
-0.074,-1.710,-1.317,127.869,-58.289,72.693
-0.253,-1.502,-1.256,135.742,-37.354,63.904
-0.377,-1.355,-1.173,137.024,-8.789,47.485
-0.413,-1.224,-1.051,132.996,20.752,24.414
-0.376,-1.122,-0.945,124.207,44.556,-2.075
-0.282,-1.049,-0.829,109.192,62.195,-27.893
-0.178,-0.988,-0.754,87.891,73.792,-48.584
-0.072,-0.896,-0.714,61.401,78.247,-61.707
0.021,-0.768,-0.709,33.875,76.904,-67.627
0.112,-0.629,-0.722,10.376,74.768,-68.970
0.215,-0.505,-0.716,-6.287,72.083,-68.176
0.325,-0.408,-0.726,-14.893,67.078,-67.261
0.421,-0.352,-0.743,-16.479,61.707,-66.711
0.498,-0.374,-0.769,-12.939,56.519,-66.345
0.566,-0.442,-0.810,-7.263,51.941,-66.589
0.624,-0.514,-0.839,-1.587,49.561,-65.308
0.687,-0.613,-0.842,3.357,48.462,-61.157
0.760,-0.733,-0.823,5.249,45.410,-53.467
0.814,-0.784,-0.850,4.822,36.804,-42.725
0.836,-0.757,-0.880,6.104,21.606,-31.189
0.854,-0.702,-0.895,10.986,3.357,-21.423
0.845,-0.660,-0.927,20.020,-13.794,-11.963
0.764,-0.611,-0.963,32.166,-28.564,-4.822
0.681,-0.588,-0.976,46.448,-39.368,-1.648
0.668,-0.639,-0.957,62.378,-44.922,1.465
0.693,-0.742,-0.926,76.111,-47.119,4.272
0.691,-0.798,-0.929,84.961,-49.255,8.240
0.646,-0.794,-0.946,92.834,-54.199,13.123
0.659,-0.795,-0.924,102.173,-61.523,17.029
0.682,-0.748,-0.911,112.305,-72.266,19.043
0.699,-0.680,-0.916,122.131,-84.595,17.700
0.727,-0.646,-0.913,132.019,-95.398,15.076
0.734,-0.606,-0.906,141.357,-103.638,14.160
0.722,-0.576,-0.898,150.085,-110.229,14.587
0.751,-0.580,-0.897,158.508,-115.051,17.090
0.751,-0.578,-0.897,166.626,-120.178,21.362
0.697,-0.578,-0.895,173.706,-122.803,26.062
0.664,-0.585,-0.881,179.810,-123.779,30.151
0.644,-0.582,-0.855,185.974,-125.854,34.363
0.596,-0.543,-0.832,192.139,-129.883,36.926
0.630,-0.586,-0.805,197.754,-134.583,37.415
0.670,-0.589,-0.805,200.439,-140.320,38.452
0.682,-0.500,-0.805,201.050,-148.071,37.231
0.721,-0.462,-0.766,202.698,-156.250,36.804
0.722,-0.396,-0.757,205.444,-164.673,40.283
0.668,-0.333,-0.789,210.571,-171.631,44.434
0.611,-0.280,-0.752,216.187,-169.739,45.471
0.681,-0.321,-0.730,222.656,-160.828,44.678
0.636,-0.340,-0.671,226.379,-150.574,43.518
0.546,-0.377,-0.675,227.722,-145.752,40.955
0.563,-0.404,-0.690,226.318,-138.062,35.278
0.642,-0.355,-0.669,222.534,-124.817,31.250
0.657,-0.285,-0.638,219.849,-112.488,31.128
0.615,-0.253,-0.599,219.482,-104.980,31.067
0.649,-0.223,-0.560,219.849,-99.731,28.198
0.713,-0.196,-0.515,220.276,-93.689,23.437
0.747,-0.131,-0.442,221.008,-88.074,19.043
0.775,-0.105,-0.375,222.534,-86.365,17.456
0.782,-0.113,-0.346,223.389,-89.233,17.639
0.769,-0.141,-0.339,222.595,-92.102,18.616
0.769,-0.133,-0.328,220.581,-93.018,20.020
0.754,-0.131,-0.323,218.384,-92.957,21.851
0.712,-0.144,-0.331,216.797,-90.393,22.949
0.706,-0.123,-0.313,214.783,-83.923,22.583
0.766,-0.036,-0.247,214.417,-76.843,20.813
0.823,0.033,-0.168,218.140,-73.425,17.700
0.869,0.068,-0.107,224.792,-77.271,13.855
0.903,0.082,-0.063,233.093,-88.379,11.169
0.915,0.049,-0.044,240.356,-103.088,9.155
0.914,0.011,-0.051,244.141,-116.943,8.362
0.878,-0.022,-0.063,245.056,-130.310,10.071
0.830,-0.057,-0.077,243.652,-141.113,12.634
0.803,-0.095,-0.090,239.441,-146.912,16.296
0.793,-0.095,-0.083,232.483,-148.743,21.118
0.794,-0.059,-0.053,225.159,-150.452,25.879
0.791,-0.030,-0.019,220.154,-154.175,29.846
0.760,-0.018,0.009,218.018,-159.729,32.654
0.710,0.002,0.054,217.651,-164.917,32.837
0.642,0.010,0.091,220.764,-169.128,30.518
0.574,-0.003,0.114,226.196,-171.814,26.489
0.528,-0.042,0.140,231.140,-171.875,20.996
0.465,-0.126,0.147,233.459,-167.114,15.076
0.383,-0.209,0.165,229.370,-153.687,11.475
0.397,-0.259,0.220,217.712,-132.874,9.338
0.487,-0.268,0.290,201.721,-111.023,7.263
0.576,-0.288,0.357,184.875,-91.125,4.395
0.658,-0.298,0.442,167.847,-73.242,1.892
0.724,-0.290,0.522,150.879,-58.716,0.854
0.775,-0.249,0.582,135.620,-48.523,0.122

0.840,-1.153,3.500,166.321,36.438,72.876
0.560,-2.745,4.000,123.962,42.358,125.488
0.221,-3.507,4.000,-53.101,26.245,140.137
0.022,-3.282,3.984,-295.715,36.682,115.967
-0.206,-3.292,3.528,-512.939,77.271,92.163
-0.393,-3.309,3.110,-692.688,130.676,82.520
-0.223,-2.861,2.575,-828.918,187.012,52.734
0.075,-2.360,2.081,-898.499,251.648,22.095
0.547,-2.455,1.570,-927.612,321.716,6.409
0.970,-2.768,1.034,-951.172,389.099,2.686
1.033,-2.953,0.489,-974.121,448.120,10.193
0.888,-3.093,-0.048,-992.432,508.179,31.555
0.946,-3.164,-0.484,-993.774,572.693,75.134
1.279,-3.093,-0.727,-972.351,600.647,155.518
1.203,-3.115,-1.160,-924.133,558.472,260.498
0.807,-3.000,-1.377,-862.000,482.056,347.595
0.677,-3.049,-1.432,-797.729,381.287,418.518
0.594,-3.127,-1.729,-725.159,235.352,476.074
0.324,-3.118,-1.929,-655.334,71.167,495.605
0.041,-2.979,-2.172,-585.144,-90.515,491.028
-0.517,-2.646,-2.811,-495.605,-241.150,460.144
-1.268,-2.285,-3.421,-388.123,-327.332,390.137
-1.731,-1.754,-3.743,-268.250,-317.322,296.753
-1.661,-1.264,-3.328,-142.395,-224.365,193.176
-0.982,-1.221,-2.466,-11.414,-101.074,97.839
-0.278,-1.606,-1.913,102.295,-3.418,28.015
0.102,-1.666,-1.617,168.274,51.636,-23.865
0.482,-1.575,-1.341,198.364,75.439,-58.716
0.775,-1.437,-1.067,212.341,70.190,-77.454
0.897,-1.267,-0.814,214.294,44.861,-82.947
0.903,-1.019,-0.555,204.712,13.062,-77.026
0.831,-0.734,-0.424,186.829,-19.104,-61.584
0.783,-0.492,-0.327,166.504,-44.800,-41.077
0.747,-0.285,-0.271,144.409,-61.340,-19.897
0.691,-0.105,-0.287,126.038,-70.313,-1.343
0.627,0.013,-0.363,110.535,-72.937,13.855
0.535,0.067,-0.487,99.854,-69.336,25.574
0.503,0.086,-0.551,93.567,-57.556,33.325
0.542,0.119,-0.536,88.806,-42.664,36.804
0.567,0.159,-0.524,85.693,-32.288,36.804
0.580,0.202,-0.529,83.313,-25.513,33.752
0.607,0.224,-0.525,79.590,-20.569,29.297
0.638,0.237,-0.495,74.890,-18.555,26.245
0.655,0.220,-0.471,69.397,-20.935,23.560
0.663,0.215,-0.467,61.523,-26.794,19.958
0.638,0.226,-0.501,51.880,-32.837,17.334
0.603,0.213,-0.559,43.152,-35.461,15.808
0.598,0.256,-0.581,35.583,-30.945,16.663
0.598,0.324,-0.581,31.128,-22.461,17.822
0.615,0.354,-0.583,31.555,-12.817,16.357
0.648,0.382,-0.582,34.424,-4.456,12.695
0.663,0.375,-0.580,39.307,1.221,8.301
0.677,0.386,-0.571,44.922,2.991,2.502
0.714,0.402,-0.557,50.781,0.244,-2.136
0.724,0.389,-0.558,57.800,-5.859,-4.639
0.725,0.361,-0.559,64.819,-14.099,-6.775
0.645,0.319,-0.573,70.190,-23.071,-8.362
0.534,0.270,-0.612,72.937,-27.832,-10.986
0.501,0.242,-0.580,71.899,-19.470,-14.404
0.694,0.586,-0.489,68.176,-4.700,-16.479
0.746,0.505,-0.454,76.599,10.681,-3.601
0.716,0.415,-0.421,81.116,14.526,1.099
0.746,0.507,-0.423,79.529,6.958,-1.465
0.803,0.536,-0.438,82.214,-0.549,-2.808
0.763,0.508,-0.475,85.266,-6.714,-3.601
0.633,0.417,-0.538,88.928,-9.888,-7.263
0.600,0.422,-0.540,91.736,-5.920,-16.479
0.650,0.520,-0.563,95.581,2.319,-24.414
0.649,0.510,-0.569,105.957,13.306,-28.198
0.693,0.479,-0.523,116.394,20.691,-34.546
0.687,0.489,-0.525,127.380,21.362,-42.297
0.701,0.475,-0.510,138.123,21.973,-46.875
0.739,0.485,-0.481,146.118,22.888,-49.683
0.754,0.471,-0.463,153.320,23.437,-50.293
0.730,0.365,-0.438,158.997,25.513,-49.683
0.720,0.351,-0.416,159.546,28.198,-52.795
0.736,0.360,-0.366,156.067,35.034,-54.932
0.787,0.345,-0.292,149.475,42.236,-55.664
0.822,0.338,-0.239,140.259,45.593,-55.237
0.785,0.307,-0.220,129.883,46.204,-54.871
0.735,0.286,-0.263,117.859,44.495,-56.763
0.691,0.274,-0.322,105.774,43.579,-58.289
0.683,0.315,-0.345,93.811,45.837,-59.265
0.705,0.419,-0.328,85.327,48.523,-61.401
0.729,0.495,-0.323,83.679,50.293,-63.416
0.751,0.576,-0.308,88.196,50.354,-65.247
0.771,0.665,-0.259,97.168,49.072,-66.223
0.757,0.649,-0.258,110.413,45.776,-64.453
0.763,0.624,-0.230,121.826,41.382,-59.387
0.749,0.546,-0.225,129.944,36.011,-51.086
0.719,0.443,-0.226,134.460,31.250,-43.457
0.691,0.349,-0.255,133.118,26.062,-37.842
0.674,0.287,-0.276,126.526,23.376,-34.912
0.653,0.284,-0.280,116.638,23.621,-33.569
0.647,0.276,-0.276,106.262,23.865,-32.654
0.633,0.249,-0.298,97.107,22.034,-35.034
0.651,0.297,-0.293,88.623,21.179,-41.992
0.705,0.367,-0.282,83.679,19.836,-47.424
0.708,0.349,-0.303,83.923,14.893,-51.392
0.703,0.351,-0.318,86.548,9.888,-57.800
0.691,0.371,-0.339,90.942,7.324,-63.965
0.677,0.397,-0.348,98.022,7.507,-68.787
0.659,0.392,-0.354,108.032,9.094,-71.167
0.659,0.354,-0.357,119.690,10.925,-72.754
0.692,0.318,-0.351,130.920,13.184,-75.378
0.724,0.304,-0.334,141.113,15.198,-78.735
0.769,0.308,-0.306,150.513,15.686,-80.994
0.835,0.297,-0.268,160.522,12.634,-82.336
0.896,0.278,-0.241,170.166,5.249,-84.534
0.922,0.288,-0.215,180.298,-3.601,-86.670
0.911,0.302,-0.178,191.162,-11.475,-87.830
0.903,0.311,-0.141,201.843,-18.982,-85.999
0.935,0.286,-0.114,212.280,-26.978,-82.092
0.962,0.236,-0.083,221.436,-33.997,-77.454
0.962,0.206,-0.044,228.027,-39.490,-72.571
0.994,0.207,0.008,233.154,-46.448,-67.566
1.034,0.201,0.055,237.915,-55.359,-62.073
1.068,0.161,0.091,240.906,-64.087,-56.580
1.076,0.096,0.121,242.187,-71.411,-52.795

1.615,-0.012,1.755,81.726,3.174,20.630
1.717,-0.303,2.425,62.439,-11.230,52.429
1.742,-0.568,3.008,13.916,-36.743,86.548
1.764,-0.811,3.557,-51.636,-75.623,109.314
1.648,-1.069,3.912,-134.277,-113.220,122.375
1.405,-1.280,3.986,-238.464,-135.620,132.629
1.039,-1.442,3.876,-351.013,-139.221,138.062
0.791,-1.620,3.806,-451.538,-121.826,131.226
0.711,-1.833,3.534,-541.260,-83.557,116.394
0.773,-1.871,3.091,-629.395,-31.006,100.891
1.035,-1.896,2.586,-702.820,25.452,80.933
1.313,-2.123,2.032,-757.935,85.144,62.256
1.407,-2.408,1.419,-802.612,141.113,49.805
1.376,-2.639,0.855,-840.210,194.702,44.617
1.208,-2.890,0.197,-871.033,252.869,52.063
0.819,-2.951,-0.499,-894.714,324.280,69.092
0.411,-2.851,-1.001,-904.297,401.978,80.383
0.215,-2.760,-1.105,-895.325,472.229,85.205
0.263,-2.794,-1.076,-870.117,508.911,100.952
0.537,-2.626,-1.075,-832.397,482.117,131.104
0.667,-2.315,-1.164,-771.606,392.334,165.100
0.143,-2.099,-1.136,-685.608,263.916,177.368
-0.622,-1.915,-1.228,-576.843,135.742,165.344
-1.046,-1.996,-1.382,-450.012,49.744,157.898
-1.014,-2.266,-1.424,-325.256,3.723,160.339
-0.849,-2.580,-1.395,-220.581,-26.062,161.194
-0.665,-2.752,-1.414,-139.771,-46.265,153.748
-0.457,-2.784,-1.397,-79.468,-55.786,129.822
-0.240,-2.725,-1.363,-33.081,-58.716,88.989
-0.149,-2.572,-1.284,0.732,-58.594,38.452
-0.107,-2.360,-1.170,21.606,-52.246,-11.475
0.001,-2.085,-1.087,32.837,-35.156,-52.246
0.140,-1.723,-1.008,39.063,-14.404,-79.590
0.277,-1.382,-0.909,46.326,-0.793,-92.896
0.410,-1.107,-0.814,55.298,4.211,-93.628
0.530,-0.882,-0.769,63.965,0.122,-84.534
0.583,-0.687,-0.778,73.181,-13.977,-69.824
0.580,-0.550,-0.797,83.435,-30.579,-53.650
0.566,-0.475,-0.800,93.384,-41.992,-36.255
0.575,-0.429,-0.790,101.929,-50.110,-18.005
0.579,-0.420,-0.786,106.934,-55.908,-0.366
0.560,-0.415,-0.787,108.582,-59.082,16.113
0.547,-0.410,-0.811,108.215,-61.340,27.222
0.536,-0.427,-0.882,107.666,-62.134,31.555
0.528,-0.420,-0.910,107.849,-56.458,30.762
0.538,-0.435,-0.947,109.070,-48.279,26.794
0.548,-0.426,-0.966,109.497,-39.124,19.165
0.576,-0.343,-0.965,108.643,-29.114,8.972
0.625,-0.255,-0.970,110.779,-19.226,0.488
0.676,-0.174,-0.928,114.563,-11.292,-3.540
0.745,-0.128,-0.879,119.812,-7.812,-3.906
0.805,-0.072,-0.837,125.854,-9.277,-2.319
0.854,-0.056,-0.805,130.798,-14.709,0.671
0.907,-0.143,-0.809,135.498,-21.484,2.930
0.944,-0.217,-0.851,139.404,-26.245,2.502
0.977,-0.183,-0.861,139.343,-28.625,1.221
1.000,-0.144,-0.863,138.123,-30.029,-0.488
0.982,-0.127,-0.851,138.611,-31.372,-4.456
0.917,-0.032,-0.842,138.062,-33.813,-10.315
0.784,0.109,-0.820,139.343,-34.729,-15.015
0.470,0.049,-0.772,144.409,-33.508,-18.921
0.683,0.231,-0.931,145.264,-29.724,-30.090
0.897,0.559,-0.842,155.457,-4.883,-28.015
0.858,0.384,-0.596,180.969,17.883,-5.676
0.624,0.254,-0.539,194.641,4.517,5.798
0.717,0.207,-0.544,199.097,-19.714,8.972
0.823,0.166,-0.603,200.256,-37.659,9.766
0.937,0.300,-0.571,200.500,-50.354,9.827
0.770,0.369,-0.615,205.078,-60.425,13.367
0.647,0.321,-0.592,211.731,-62.439,14.832
0.680,0.376,-0.614,217.712,-61.584,10.376
0.639,0.469,-0.612,223.633,-55.420,6.714
0.598,0.415,-0.561,235.352,-42.053,8.423
0.588,0.234,-0.569,244.080,-32.104,2.991
0.639,0.156,-0.556,244.080,-25.635,-10.010
0.694,0.205,-0.525,238.464,-16.602,-19.653
0.687,0.292,-0.430,233.521,-6.348,-24.353
0.643,0.326,-0.366,230.713,-2.319,-26.550
0.618,0.349,-0.338,229.248,-3.723,-27.771
0.653,0.369,-0.290,227.478,-3.296,-26.306
0.706,0.391,-0.226,226.685,-1.648,-24.231
0.761,0.372,-0.155,226.318,-2.319,-21.729
0.781,0.316,-0.103,222.229,-9.583,-17.151
0.732,0.197,-0.122,211.975,-19.897,-11.230
0.733,0.286,-0.048,195.374,-26.855,-7.141
0.664,0.262,-0.060,178.589,-36.194,1.465
0.630,0.274,-0.162,161.865,-43.884,5.554
0.665,0.319,-0.096,147.949,-40.039,6.592
0.601,0.286,-0.059,137.512,-41.504,4.761
0.567,0.456,-0.178,128.052,-49.377,-3.662
0.572,0.580,-0.079,129.028,-39.734,-0.916
0.592,0.489,-0.114,133.667,-36.926,6.409
0.551,0.409,-0.121,137.024,-36.865,6.470
0.504,0.390,-0.112,137.146,-35.400,2.441
0.492,0.403,-0.115,136.963,-30.762,-2.197
0.488,0.421,-0.093,137.573,-22.034,-7.751
0.514,0.507,-0.043,139.160,-12.451,-13.855
0.524,0.472,-0.046,143.127,-6.714,-15.198
0.490,0.415,-0.043,146.667,-2.258,-20.081
0.512,0.416,-0.005,147.766,4.211,-28.198
0.553,0.382,-0.004,148.315,9.705,-34.790
0.601,0.379,0.001,146.179,12.878,-42.725
0.630,0.340,-0.002,143.433,12.817,-49.255
0.644,0.281,-0.035,139.282,11.475,-58.716
0.660,0.287,-0.043,134.277,11.108,-69.885
0.638,0.284,-0.081,130.188,10.925,-77.454
0.622,0.286,-0.078,127.197,13.672,-79.773
0.650,0.311,-0.051,126.892,17.700,-78.247
0.719,0.338,0.004,130.310,20.020,-75.317
0.777,0.319,0.045,137.268,18.555,-73.364
0.835,0.295,0.069,144.592,14.648,-74.158
0.847,0.287,0.088,151.917,9.583,-77.271
0.836,0.269,0.098,159.424,3.967,-81.482
0.872,0.220,0.101,166.138,-1.770,-86.121
0.900,0.177,0.090,169.312,-6.165,-91.003
0.898,0.147,0.090,169.434,-8.179,-93.933
0.869,0.131,0.102,165.588,-8.362,-91.248
0.854,0.106,0.103,158.630,-8.057,-85.205
0.858,0.091,0.101,150.208,-6.958,-79.712

1.565,0.088,1.066,213.867,-77.087,-1.831
1.660,-0.193,1.341,248.535,-88.440,13.672
1.713,-0.588,1.805,261.597,-94.604,42.236
1.513,-1.262,2.609,236.938,-92.163,92.834
0.818,-2.206,3.252,150.146,-84.656,154.175
-0.144,-3.091,3.773,-6.653,-35.095,199.158
-0.253,-3.369,3.911,-226.135,70.374,214.783
0.708,-2.973,3.464,-473.389,170.837,217.957
1.372,-2.831,3.041,-690.613,216.980,222.107
1.453,-2.942,2.389,-859.558,215.332,225.830
1.384,-2.993,1.664,-969.299,196.899,229.553
1.135,-2.936,1.011,-1015.076,175.415,224.792
1.018,-2.983,0.480,-1032.166,171.692,219.116
0.876,-3.143,0.035,-1038.635,193.909,222.473
0.684,-3.222,-0.240,-1040.710,226.990,224.976
0.495,-3.230,-0.490,-1032.776,255.371,226.257
0.496,-3.237,-0.667,-1009.033,258.423,237.122
0.529,-3.353,-0.911,-971.741,223.999,255.981
0.514,-3.328,-1.208,-929.199,157.837,282.532
0.350,-3.116,-1.580,-881.653,62.927,316.101
0.092,-2.909,-2.195,-807.312,-41.382,332.397
-0.094,-2.411,-2.878,-700.745,-120.300,329.956
-0.305,-1.537,-3.232,-568.787,-162.170,302.673
-0.380,-0.993,-2.995,-400.818,-176.392,257.202
-0.279,-1.392,-2.398,-210.388,-163.330,201.843
0.011,-2.087,-1.998,-51.208,-137.329,151.672
0.192,-2.339,-1.748,47.363,-93.933,109.802
0.504,-2.403,-1.451,99.426,-51.575,70.251
0.868,-2.622,-1.214,125.305,-23.743,37.476
1.170,-2.463,-0.753,117.981,-12.268,2.197
1.215,-1.893,-0.580,92.346,-29.358,-28.198
1.027,-1.414,-0.604,77.576,-55.359,-46.143
0.893,-0.958,-0.556,66.589,-69.214,-53.223
0.824,-0.549,-0.486,63.660,-70.190,-50.903
0.779,-0.281,-0.442,68.176,-66.101,-42.114
0.728,-0.185,-0.441,76.782,-59.509,-29.785
0.732,-0.161,-0.448,82.764,-49.316,-17.090
0.797,-0.142,-0.401,85.632,-38.452,-4.639
0.818,-0.153,-0.391,84.167,-30.640,6.531
0.794,-0.187,-0.422,78.308,-26.123,14.832
0.781,-0.255,-0.430,69.397,-21.484,19.531
0.799,-0.292,-0.454,58.716,-17.944,20.630
0.812,-0.275,-0.480,48.462,-15.625,20.203
0.784,-0.283,-0.548,41.687,-15.198,19.409
0.760,-0.214,-0.632,37.659,-16.724,15.564
0.717,-0.164,-0.707,38.086,-13.550,10.315
0.687,-0.115,-0.767,43.640,-6.226,3.235
0.678,-0.056,-0.791,53.589,4.456,-2.930
0.674,-0.030,-0.807,66.528,15.137,-9.338
0.691,-0.041,-0.810,81.665,24.109,-16.602
0.719,-0.055,-0.798,96.252,31.006,-22.827
0.738,-0.076,-0.777,109.192,36.194,-26.733
0.741,-0.114,-0.774,120.789,39.917,-27.893
0.765,-0.148,-0.753,129.578,41.443,-28.748
0.819,-0.090,-0.723,135.376,38.635,-29.175
0.841,-0.111,-0.724,142.761,33.142,-25.696
0.840,-0.103,-0.666,147.766,26.978,-22.034
0.831,-0.064,-0.653,152.100,17.090,-19.531
0.905,0.035,-0.675,157.288,9.766,-17.090
0.935,0.001,-0.696,165.222,7.141,-10.559
0.904,-0.104,-0.715,170.288,5.371,-9.949
0.823,-0.109,-0.706,169.861,4.578,-17.334
0.726,-0.021,-0.731,168.945,5.981,-25.208
0.690,-0.058,-0.725,171.997,12.573,-31.311
0.699,-0.097,-0.738,174.500,19.043,-41.443
0.786,-0.063,-0.678,179.077,24.048,-56.213
0.786,0.018,-0.668,181.763,23.682,-66.711
0.753,-0.048,-0.722,189.270,21.851,-70.679
0.887,0.007,-0.669,193.237,21.179,-77.148
0.860,0.043,-0.649,198.547,15.564,-80.505
0.965,0.123,-0.599,206.238,8.423,-82.581
0.975,0.100,-0.615,218.628,0.122,-78.735
1.019,0.066,-0.539,229.431,-4.639,-75.012
1.031,0.051,-0.490,235.840,-11.780,-72.021
1.012,0.062,-0.473,240.051,-19.836,-66.956
0.971,0.009,-0.472,244.812,-25.696,-57.373
0.923,-0.021,-0.489,244.934,-30.579,-49.866
0.824,-0.081,-0.506,242.432,-30.212,-43.274
0.839,-0.093,-0.502,237.183,-23.499,-38.757
0.841,-0.105,-0.488,230.530,-15.015,-38.452
0.865,-0.045,-0.408,222.351,-7.935,-45.105
0.952,-0.008,-0.364,217.896,-4.089,-51.819
1.031,0.052,-0.329,215.576,-4.761,-57.556
1.033,0.086,-0.280,216.492,-9.399,-58.899
1.032,0.092,-0.252,217.651,-18.616,-58.105
1.046,0.046,-0.246,218.201,-28.015,-54.871
1.027,-0.003,-0.242,214.905,-35.095,-51.392
1.002,-0.017,-0.233,208.618,-39.734,-47.913
1.000,-0.012,-0.220,200.989,-42.114,-42.786
0.998,-0.022,-0.212,193.176,-43.762,-35.278
1.006,0.001,-0.180,185.608,-45.227,-27.283
1.001,0.062,-0.118,180.542,-45.898,-20.935
1.001,0.128,-0.051,180.420,-45.776,-16.907
1.013,0.162,0.008,184.570,-43.579,-14.771
0.988,0.160,0.073,189.758,-41.016,-14.832
0.943,0.146,0.108,193.604,-39.490,-16.541
0.912,0.114,0.122,195.129,-38.757,-18.188
0.890,0.049,0.134,191.711,-36.743,-18.433
0.829,0.000,0.158,180.603,-31.860,-18.677
0.780,0.003,0.169,163.940,-23.621,-18.860
0.760,0.028,0.164,146.545,-12.878,-18.921
0.735,0.044,0.162,130.432,-0.732,-19.348
0.766,0.068,0.181,117.188,12.268,-21.118
0.818,0.146,0.214,106.750,23.743,-23.254
0.779,0.163,0.236,100.586,31.921,-21.423
0.784,0.128,0.232,94.421,37.903,-19.348
0.818,0.134,0.232,86.731,43.152,-20.874
0.845,0.146,0.226,79.285,47.241,-23.865
0.856,0.151,0.212,72.388,48.645,-26.794
0.890,0.152,0.215,65.735,48.035,-29.053
0.966,0.140,0.223,61.096,44.739,-30.945
1.032,0.129,0.247,56.702,37.476,-32.104
1.101,0.142,0.284,50.781,25.513,-31.982
1.169,0.144,0.320,44.617,9.338,-30.457
1.205,0.138,0.328,38.391,-9.521,-28.198
1.191,0.146,0.316,31.433,-29.785,-24.780
1.152,0.153,0.288,25.452,-48.096,-20.752
1.089,0.158,0.244,20.569,-60.669,-16.357
1.010,0.157,0.198,16.174,-64.392,-13.062

1.853,-0.543,2.068,109.497,62.683,21.118
1.812,-0.964,2.514,47.607,47.668,64.087
1.443,-1.339,3.001,-42.175,26.062,98.022
1.267,-1.600,3.327,-145.691,13.428,116.760
1.335,-1.714,3.559,-258.362,11.841,140.259
1.260,-1.953,3.664,-372.742,12.634,163.147
0.971,-2.317,3.390,-488.647,13.245,174.500
0.727,-2.522,2.835,-608.398,26.978,183.350
0.534,-2.499,2.174,-716.248,54.138,188.416
0.515,-2.456,1.637,-789.612,93.140,187.866
0.526,-2.533,1.202,-833.740,133.789,191.956
0.576,-2.684,0.850,-860.107,166.565,204.956
0.668,-2.877,0.586,-873.291,186.401,223.633
0.711,-3.164,0.344,-881.836,183.838,252.502
0.550,-3.509,-0.005,-893.066,151.794,282.104
0.475,-3.904,-0.393,-903.687,106.445,294.189
0.529,-4.000,-0.903,-910.095,59.753,283.264
0.520,-4.000,-1.367,-910.278,12.146,252.441
0.538,-3.613,-1.740,-890.930,-27.405,204.773
0.430,-3.160,-2.219,-834.045,-50.903,136.353
0.003,-2.583,-2.667,-740.173,-42.664,54.688
-0.235,-1.954,-2.634,-622.803,-1.831,-25.085
-0.089,-1.804,-2.194,-480.835,52.124,-82.153
0.373,-2.086,-1.481,-336.426,95.825,-108.093
0.696,-2.411,-1.208,-212.952,93.750,-98.083
0.849,-2.513,-1.104,-115.662,57.922,-72.510
1.034,-2.600,-1.107,-40.955,11.963,-41.565
1.217,-2.538,-1.138,16.785,-32.959,-13.489
1.280,-2.403,-1.134,58.899,-75.073,10.803
1.264,-2.277,-1.112,86.731,-105.408,33.081
1.183,-1.964,-1.078,101.868,-124.878,50.354
1.040,-1.584,-1.065,113.037,-134.766,66.345
0.880,-1.252,-1.100,125.122,-135.071,77.454
0.748,-0.964,-1.097,137.329,-124.878,83.252
0.687,-0.832,-1.091,154.968,-106.628,86.121
0.673,-0.757,-1.078,173.401,-86.731,84.167
0.716,-0.777,-1.047,189.270,-65.247,81.238
0.730,-0.792,-1.047,199.646,-48.218,77.820
0.725,-0.779,-1.046,205.200,-37.903,73.486
0.719,-0.711,-1.005,206.177,-30.090,69.153
0.716,-0.656,-0.964,206.177,-24.475,67.383
0.714,-0.583,-0.928,205.811,-21.057,67.139
0.711,-0.521,-0.902,205.566,-20.325,67.200
0.716,-0.428,-0.876,205.139,-21.912,66.345
0.714,-0.283,-0.862,206.055,-25.513,64.331
0.718,-0.185,-0.839,210.205,-26.367,61.584
0.762,-0.130,-0.787,215.576,-24.719,58.899
0.796,-0.141,-0.724,221.191,-24.780,59.387
0.788,-0.222,-0.661,225.342,-27.039,61.401
0.783,-0.251,-0.623,224.426,-29.236,62.561
0.770,-0.215,-0.614,221.191,-32.043,63.293
0.745,-0.217,-0.622,219.971,-33.386,63.110
0.686,-0.211,-0.641,218.994,-30.457,60.242
0.603,-0.104,-0.611,218.018,-21.729,51.575
0.517,-0.065,-0.606,221.619,-9.827,40.955
0.570,-0.070,-0.602,227.051,7.507,31.006
0.687,-0.098,-0.566,233.215,27.588,21.912
0.637,-0.094,-0.557,239.807,37.292,8.789
0.525,-0.236,-0.613,243.774,38.879,-3.784
0.731,-0.223,-0.474,242.249,43.640,-16.602
0.871,-0.128,-0.344,241.577,38.574,-26.733
0.861,-0.058,-0.318,241.028,22.400,-35.583
0.974,-0.012,-0.223,241.943,4.395,-39.185
0.961,-0.012,-0.217,243.164,-17.578,-39.612
0.899,-0.001,-0.196,243.713,-36.133,-38.086
0.841,-0.019,-0.190,244.751,-49.316,-32.715
0.782,-0.064,-0.211,245.422,-56.641,-26.062
0.736,-0.118,-0.250,244.995,-56.946,-19.958
0.754,-0.103,-0.249,242.920,-49.561,-16.479
0.802,0.003,-0.189,242.981,-38.208,-14.954
0.828,0.039,-0.149,247.864,-30.334,-13.550
0.860,0.046,-0.107,254.639,-27.161,-12.085
0.887,0.090,-0.031,260.254,-26.245,-10.986
0.899,0.108,0.015,266.846,-29.053,-10.681
0.928,0.072,0.037,273.437,-34.241,-11.658
0.946,0.041,0.070,277.832,-39.185,-14.465
0.915,0.015,0.094,279.297,-43.823,-18.616
0.859,-0.000,0.106,278.809,-48.462,-23.315
0.833,-0.055,0.104,276.672,-49.866,-25.574
0.783,-0.078,0.121,271.118,-46.814,-27.466
0.841,-0.076,0.145,264.465,-41.199,-25.940
0.966,-0.015,0.224,257.080,-36.865,-21.973
1.020,-0.032,0.300,250.122,-38.330,-14.832
1.011,-0.051,0.345,241.943,-47.607,-9.583
1.005,0.009,0.405,232.849,-57.495,-4.395
1.002,0.042,0.432,226.868,-68.604,2.380
0.971,0.044,0.456,223.450,-79.041,6.409
0.881,0.000,0.444,219.421,-88.440,6.958
0.765,-0.051,0.417,212.280,-92.041,4.456
0.750,-0.051,0.424,200.378,-85.632,1.160
0.749,-0.070,0.403,185.242,-74.158,2.502
0.697,-0.126,0.380,168.335,-58.838,3.052
0.724,-0.109,0.445,149.780,-38.818,0.061
0.774,-0.026,0.496,130.859,-21.118,1.404
0.762,-0.057,0.508,115.540,-9.888,8.301
0.847,-0.038,0.573,100.952,1.587,8.972
0.891,0.011,0.589,88.318,5.676,7.935
0.903,0.032,0.605,78.125,5.798,7.812
0.945,0.043,0.617,70.984,3.296,8.301
0.927,0.020,0.593,64.514,-1.465,7.935
0.892,0.021,0.563,56.702,-4.272,5.188
0.889,0.049,0.547,48.584,-3.113,3.052
0.845,0.064,0.514,41.260,-0.732,2.258
0.835,0.067,0.485,34.546,4.639,1.892
0.851,0.074,0.467,28.809,13.550,1.282
0.873,0.096,0.465,23.621,22.278,0.366
0.908,0.098,0.452,20.447,28.076,0.122
0.954,0.091,0.457,17.273,30.945,-0.244
0.961,0.108,0.442,13.733,30.518,-1.465
0.948,0.120,0.429,10.864,28.625,-2.380
0.948,0.097,0.396,9.155,26.001,-2.686
0.933,0.114,0.388,6.714,24.353,-3.906
0.938,0.123,0.365,4.150,22.949,-5.981
0.944,0.130,0.342,1.099,22.583,-8.118
0.937,0.136,0.317,-1.160,22.705,-9.277
0.929,0.146,0.291,-2.136,22.522,-9.644
0.934,0.147,0.270,-2.014,22.583,-9.460
0.937,0.151,0.251,-2.197,24.414,-9.644
0.919,0.154,0.231,-1.709,27.344,-10.132

1.454,-0.083,1.911,75.928,107.178,31.616
1.584,-0.518,2.703,49.194,96.436,71.289
1.524,-1.075,3.543,-11.780,61.829,110.046
1.266,-1.497,4.000,-112.427,4.395,127.991
0.897,-1.773,4.000,-242.371,-47.424,123.962
0.579,-1.960,4.000,-388.123,-63.904,109.924
0.258,-2.097,3.590,-525.757,-39.673,96.863
0.167,-2.173,2.956,-640.808,18.372,79.468
0.350,-2.151,2.412,-729.309,94.177,58.655
0.584,-2.247,1.947,-795.654,165.283,48.645
0.850,-2.485,1.579,-846.802,223.999,51.025
1.069,-2.672,1.244,-886.841,262.695,71.106
1.116,-2.825,0.928,-914.001,272.949,103.333
0.895,-2.976,0.628,-931.763,263.428,139.282
0.722,-3.102,0.298,-939.514,247.314,169.556
0.620,-3.371,-0.024,-938.782,226.013,194.153
0.619,-3.676,-0.480,-930.603,197.937,202.881
0.867,-3.721,-0.956,-912.354,156.677,201.599
1.118,-3.449,-1.340,-877.686,92.468,197.144
1.011,-2.986,-1.734,-812.561,11.230,179.016
0.585,-2.476,-2.067,-709.412,-49.377,143.494
0.347,-2.086,-2.132,-577.087,-74.097,102.356
0.368,-2.075,-1.919,-421.509,-68.176,71.106
0.564,-2.374,-1.460,-274.841,-53.284,49.988
0.784,-2.562,-1.145,-155.579,-45.227,41.382
0.908,-2.625,-1.103,-68.848,-47.119,47.852
1.157,-2.545,-1.003,-9.827,-53.284,60.974
1.313,-2.400,-0.874,28.687,-70.313,76.721
1.343,-2.149,-0.710,49.988,-98.511,90.027
1.235,-1.925,-0.622,59.814,-130.798,102.844
1.015,-1.602,-0.664,60.669,-156.433,114.319
0.822,-1.267,-0.711,59.448,-164.917,122.375
0.704,-0.977,-0.742,61.279,-155.640,126.343
0.619,-0.752,-0.764,67.078,-134.888,127.136
0.564,-0.651,-0.763,75.195,-110.413,123.413
0.535,-0.665,-0.747,82.214,-86.609,115.112
0.545,-0.671,-0.719,83.435,-63.354,102.173
0.582,-0.674,-0.724,80.750,-43.213,88.440
0.578,-0.690,-0.750,74.646,-28.442,76.050
0.604,-0.698,-0.752,65.674,-16.907,64.087
0.623,-0.664,-0.753,55.725,-9.399,51.575
0.629,-0.566,-0.765,46.448,-4.028,39.551
0.630,-0.466,-0.806,41.016,0.305,29.358
0.628,-0.379,-0.848,40.649,5.066,19.470
0.648,-0.336,-0.878,44.922,13.733,10.254
0.695,-0.271,-0.879,51.819,23.376,1.831
0.734,-0.196,-0.852,61.340,31.372,-4.944
0.775,-0.167,-0.825,72.571,37.720,-10.376
0.813,-0.175,-0.798,84.839,42.725,-15.503
0.839,-0.177,-0.767,96.252,48.157,-20.203
0.865,-0.175,-0.739,106.567,53.833,-23.804
0.872,-0.192,-0.706,115.662,59.753,-26.672
0.879,-0.193,-0.705,124.634,64.453,-30.273
0.856,-0.170,-0.715,132.568,70.007,-34.058
0.777,-0.171,-0.700,139.893,78.125,-36.377
1.128,0.013,-0.671,146.729,87.769,-36.987
1.136,-0.095,-0.551,158.752,92.651,-31.128
1.003,-0.143,-0.547,165.100,79.102,-32.654
0.987,-0.249,-0.595,168.640,65.796,-35.339
0.981,-0.278,-0.481,168.579,59.814,-42.175
0.974,-0.175,-0.522,169.250,45.288,-43.884
0.865,-0.301,-0.602,177.307,32.410,-43.457
0.837,-0.173,-0.640,178.345,25.818,-51.636
0.894,-0.007,-0.609,186.951,27.100,-57.312
0.859,-0.016,-0.655,203.796,28.015,-58.411
0.835,-0.055,-0.635,219.727,30.579,-61.523
0.875,-0.015,-0.580,230.042,36.072,-63.721
0.928,-0.048,-0.524,239.563,42.969,-60.669
0.918,-0.136,-0.509,246.704,45.776,-58.167
0.881,-0.178,-0.498,249.878,44.434,-57.678
0.858,-0.178,-0.499,250.122,40.283,-59.143
0.852,-0.166,-0.522,251.343,34.180,-62.195
0.861,-0.104,-0.522,253.540,29.297,-65.979
0.856,-0.057,-0.502,256.348,25.269,-71.350
0.740,-0.083,-0.494,260.315,19.897,-79.102
0.745,-0.093,-0.540,263.062,15.564,-87.952
0.863,-0.053,-0.518,264.404,19.104,-93.506
0.852,-0.121,-0.446,265.625,21.912,-97.473
0.782,-0.244,-0.471,262.573,13.611,-107.666
0.707,-0.248,-0.451,254.150,3.662,-119.507
0.631,-0.221,-0.465,244.629,-1.953,-122.314
0.715,-0.258,-0.456,236.633,-2.197,-120.789
0.731,-0.307,-0.457,225.159,-2.319,-123.962
0.732,-0.288,-0.411,211.182,-3.540,-127.380
0.736,-0.276,-0.380,197.021,-4.578,-123.596
0.742,-0.246,-0.350,182.861,-7.446,-116.089
0.742,-0.234,-0.323,171.387,-13.672,-104.736
0.730,-0.190,-0.310,162.537,-23.193,-94.604
0.744,-0.145,-0.326,157.837,-30.457,-84.167
0.795,-0.168,-0.360,158.020,-31.372,-72.937
0.796,-0.146,-0.326,160.828,-30.273,-66.223
0.805,-0.131,-0.299,166.687,-32.593,-61.218
0.851,-0.127,-0.267,174.561,-34.668,-57.373
0.895,-0.107,-0.199,183.960,-37.170,-56.274
0.908,-0.088,-0.153,192.749,-43.518,-57.556
0.953,-0.078,-0.126,203.125,-52.368,-58.960
0.997,-0.037,-0.083,213.989,-61.829,-60.974
1.046,-0.041,-0.051,227.478,-73.425,-61.462
1.091,-0.075,-0.024,239.868,-85.999,-60.669
1.115,-0.104,0.008,249.756,-98.877,-58.411
1.120,-0.127,0.026,255.493,-111.511,-53.101
1.121,-0.142,0.053,258.606,-122.864,-44.678
1.110,-0.183,0.074,258.789,-133.301,-35.522
1.091,-0.219,0.093,255.493,-141.602,-28.992
1.043,-0.250,0.114,247.681,-146.179,-22.034
0.974,-0.288,0.143,233.521,-145.752,-14.160
0.925,-0.327,0.205,212.646,-138.672,-8.545
0.912,-0.318,0.312,186.584,-125.366,-8.545
0.897,-0.259,0.404,157.776,-108.398,-12.085
0.894,-0.201,0.459,129.150,-92.224,-14.832
0.910,-0.171,0.468,102.661,-77.637,-16.418
0.922,-0.164,0.451,78.064,-65.613,-16.174
0.919,-0.150,0.420,53.528,-54.138,-13.611
0.909,-0.134,0.377,31.921,-41.565,-10.559
0.920,-0.126,0.339,13.916,-26.794,-8.484
0.974,-0.093,0.330,-0.610,-12.207,-7.080
1.025,-0.056,0.347,-10.254,-0.183,-4.944
1.071,-0.048,0.375,-16.785,8.850,-3.479
1.114,-0.041,0.388,-23.743,13.184,-2.319

1.413,-0.265,1.596,150.269,-14.832,29.785
1.327,-0.716,2.185,116.028,-9.277,50.537
1.253,-1.014,2.669,46.997,-11.597,60.181
1.313,-1.177,2.869,-44.006,-20.813,68.115
1.155,-1.388,3.006,-142.944,-24.170,81.543
0.868,-1.692,3.129,-246.582,-18.005,87.158
0.665,-2.104,3.057,-354.797,0.671,90.820
0.599,-2.335,2.797,-468.567,29.724,95.764
0.604,-2.416,2.512,-578.125,63.477,98.572
0.583,-2.463,2.212,-673.096,101.196,106.018
0.509,-2.504,1.774,-745.422,134.827,118.713
0.537,-2.623,1.351,-800.293,165.039,134.766
0.729,-2.869,1.054,-845.764,191.833,154.907
0.933,-2.995,0.827,-888.550,206.238,177.307
1.015,-3.036,0.521,-924.316,196.472,197.998
1.074,-3.131,0.131,-943.420,167.847,203.674
1.119,-3.276,-0.262,-946.228,135.803,192.444
0.970,-3.397,-0.637,-939.209,116.699,173.340
0.786,-3.446,-1.025,-925.171,108.643,149.414
0.865,-3.345,-1.399,-899.353,97.229,121.216
0.908,-3.079,-1.811,-851.440,88.867,91.980
0.928,-2.536,-2.218,-780.518,78.064,61.157
0.797,-1.852,-2.507,-675.293,55.420,28.564
0.555,-1.349,-2.332,-530.884,38.818,2.441
0.442,-1.583,-1.664,-362.305,36.255,-1.709
0.565,-2.177,-1.286,-201.904,21.301,20.935
0.684,-2.573,-1.194,-83.618,-7.568,59.692
0.797,-2.844,-1.118,-9.460,-36.804,101.501
0.995,-2.839,-1.005,29.907,-68.787,138.428
1.173,-2.470,-0.853,45.715,-107.544,166.992
1.099,-2.009,-0.804,54.565,-153.198,188.721
0.830,-1.570,-0.868,63.721,-190.369,203.735
0.568,-1.160,-0.896,74.158,-202.087,210.266
0.429,-0.827,-0.871,85.938,-190.063,209.717
0.394,-0.644,-0.807,99.731,-165.039,205.444
0.427,-0.593,-0.720,109.619,-137.573,197.571
0.464,-0.545,-0.625,111.084,-115.295,184.631
0.468,-0.490,-0.582,103.943,-98.389,167.725
0.450,-0.435,-0.628,92.712,-85.022,150.146
0.408,-0.385,-0.699,80.505,-70.557,131.897
0.401,-0.341,-0.735,67.627,-52.612,113.159
0.427,-0.287,-0.726,54.626,-33.691,93.750
0.436,-0.218,-0.722,42.847,-16.846,73.364
0.442,-0.144,-0.752,33.203,-1.770,52.063
0.462,-0.088,-0.786,27.100,13.977,30.518
0.481,-0.037,-0.826,25.513,31.311,9.583
0.501,0.002,-0.857,27.710,47.852,-9.705
0.543,0.030,-0.866,32.043,63.660,-27.649
0.579,0.040,-0.859,38.025,78.918,-43.030
0.623,0.034,-0.835,43.945,93.567,-55.847
0.688,0.010,-0.805,49.744,106.079,-66.711
0.767,-0.021,-0.787,56.091,115.173,-76.294
0.842,-0.061,-0.794,63.171,119.812,-84.778
0.913,-0.144,-0.801,70.374,121.582,-91.980
0.963,-0.235,-0.785,76.111,122.192,-98.755
1.006,-0.270,-0.737,78.369,121.704,-104.492
1.044,-0.246,-0.661,79.590,118.530,-109.009
1.069,-0.218,-0.616,82.581,111.511,-110.901
1.068,-0.198,-0.611,88.318,100.769,-110.962
1.065,-0.175,-0.621,95.947,88.928,-109.558
1.038,-0.150,-0.616,104.065,79.468,-106.934
1.005,-0.135,-0.612,111.755,72.021,-102.539
0.953,-0.161,-0.627,120.728,67.444,-97.534
0.936,-0.107,-0.621,127.747,66.895,-95.215
0.969,-0.015,-0.595,135.681,68.787,-93.933
1.001,-0.008,-0.550,146.484,69.275,-92.041
1.000,-0.065,-0.525,156.677,66.772,-89.844
1.008,-0.109,-0.505,163.574,62.500,-87.463
1.027,-0.143,-0.497,167.969,55.847,-83.618
1.040,-0.142,-0.490,170.349,46.753,-77.698
1.011,-0.160,-0.506,172.974,36.011,-69.519
1.000,-0.158,-0.522,175.842,24.719,-61.523
1.004,-0.082,-0.528,177.734,12.329,-57.007
1.000,-0.005,-0.542,182.495,1.404,-53.833
0.970,0.053,-0.555,191.650,-6.348,-51.453
0.911,0.099,-0.550,202.942,-11.475,-50.659
0.858,0.093,-0.540,215.149,-14.038,-50.476
0.808,0.002,-0.541,226.501,-14.465,-51.514
0.759,-0.109,-0.532,232.910,-12.573,-55.481
0.812,-0.146,-0.499,233.032,-9.155,-61.340
0.810,-0.188,-0.458,230.164,-6.531,-64.514
0.775,-0.214,-0.464,224.243,-7.385,-65.979
0.829,-0.162,-0.461,215.088,-10.803,-68.298
0.892,-0.096,-0.445,207.458,-15.259,-71.472
0.926,-0.058,-0.431,202.271,-20.264,-74.158
0.935,-0.026,-0.403,199.402,-25.574,-74.829
0.910,0.011,-0.380,197.144,-31.677,-72.083
0.881,0.030,-0.368,196.167,-38.147,-66.101
0.860,0.012,-0.373,195.679,-43.335,-58.350
0.828,-0.008,-0.394,193.970,-46.204,-51.147
0.794,-0.020,-0.405,190.002,-45.776,-45.288
0.782,-0.020,-0.400,185.852,-42.725,-41.199
0.833,0.003,-0.380,182.129,-39.490,-39.063
0.858,0.029,-0.347,179.871,-37.964,-38.879
0.883,0.038,-0.314,179.077,-39.612,-39.246
0.918,0.088,-0.261,178.467,-45.105,-39.124
0.952,0.137,-0.203,179.138,-53.162,-37.476
0.943,0.150,-0.167,181.946,-63.110,-35.034
0.909,0.135,-0.147,184.082,-73.120,-32.227
0.892,0.133,-0.130,184.265,-81.421,-30.090
0.872,0.137,-0.115,183.411,-87.402,-27.771
0.837,0.138,-0.105,183.105,-91.064,-24.780
0.803,0.123,-0.101,182.312,-91.431,-21.362
0.797,0.130,-0.070,180.603,-87.769,-19.226
0.830,0.182,-0.001,179.810,-81.787,-18.494
0.867,0.221,0.073,181.458,-77.271,-17.761
0.893,0.206,0.119,184.265,-76.294,-17.761
0.914,0.191,0.152,185.913,-77.942,-20.569
0.942,0.184,0.192,185.547,-80.017,-25.024
0.948,0.166,0.210,184.753,-82.825,-29.480
0.939,0.133,0.200,182.556,-84.473,-34.058
0.930,0.074,0.177,178.162,-82.825,-38.330
0.923,0.006,0.164,170.044,-77.881,-40.222
0.924,-0.043,0.158,155.823,-69.702,-39.795
0.946,-0.065,0.176,137.817,-58.411,-38.086
0.986,-0.056,0.191,118.652,-46.570,-35.645
1.022,-0.021,0.218,101.318,-35.095,-30.823
1.057,0.005,0.260,86.365,-25.635,-23.499
1.074,0.031,0.303,75.500,-18.250,-16.907

1.723,-0.653,1.968,129.517,18.616,39.856
1.659,-1.122,2.435,56.946,3.540,82.886
1.483,-1.367,2.698,-46.265,-29.541,106.812
1.404,-1.408,2.859,-158.875,-65.247,114.380
1.292,-1.424,2.973,-266.174,-86.182,121.216
1.004,-1.476,2.953,-361.877,-98.145,124.084
0.757,-1.545,2.841,-444.336,-96.802,119.202
0.663,-1.737,2.571,-517.517,-76.294,110.352
0.597,-2.012,2.155,-588.867,-43.701,104.248
0.628,-2.317,1.655,-656.189,-10.864,93.872
0.734,-2.594,1.242,-719.421,20.508,77.881
0.896,-2.785,0.911,-776.917,49.133,57.068
1.072,-2.804,0.517,-827.087,68.420,38.940
1.258,-2.684,0.172,-862.549,71.167,22.156
1.352,-2.557,-0.178,-873.901,56.824,4.761
1.290,-2.470,-0.469,-860.413,37.781,-9.949
1.095,-2.386,-0.689,-831.177,23.621,-20.264
0.830,-2.256,-0.986,-790.222,17.700,-24.597
0.642,-2.081,-1.292,-735.718,22.888,-31.128
0.589,-1.802,-1.519,-668.640,35.950,-36.560
0.561,-1.473,-1.634,-587.830,46.082,-39.001
0.590,-1.253,-1.589,-496.033,49.927,-38.452
0.691,-1.242,-1.431,-399.292,44.006,-26.978
0.799,-1.539,-1.296,-305.176,26.428,-6.226
0.825,-1.872,-1.239,-229.004,3.479,14.038
0.865,-2.004,-1.229,-174.683,-17.212,30.945
0.993,-2.019,-1.211,-135.620,-33.203,46.143
1.031,-1.965,-1.170,-104.980,-46.753,60.120
1.014,-1.834,-1.147,-82.764,-60.669,68.420
1.061,-1.611,-1.087,-66.223,-69.885,70.007
1.052,-1.392,-1.062,-49.133,-72.388,67.810
0.973,-1.193,-1.047,-31.433,-68.420,62.073
0.886,-0.993,-1.010,-14.954,-58.838,54.749
0.857,-0.842,-0.961,-0.549,-45.166,47.974
0.863,-0.704,-0.889,11.536,-32.043,42.664
0.855,-0.637,-0.839,21.912,-22.522,40.833
0.851,-0.603,-0.800,28.992,-15.808,41.016
0.844,-0.573,-0.779,32.471,-11.292,41.077
0.820,-0.516,-0.766,33.386,-8.301,39.001
0.809,-0.447,-0.765,33.813,-5.432,34.790
0.827,-0.397,-0.787,35.767,-1.404,29.846
0.826,-0.368,-0.795,39.551,4.028,25.635
0.832,-0.317,-0.775,43.213,10.681,21.179
0.836,-0.276,-0.748,45.105,18.616,17.090
0.888,-0.235,-0.715,46.082,26.245,13.550
0.903,-0.241,-0.691,46.509,33.386,11.780
0.898,-0.227,-0.658,44.739,37.537,8.240
0.883,-0.210,-0.662,43.396,38.513,3.784
0.939,-0.201,-0.651,43.701,38.147,-0.366
0.973,-0.189,-0.652,45.166,35.889,-2.686
0.922,-0.177,-0.667,49.805,32.410,-2.930
0.884,-0.161,-0.693,55.969,29.480,-1.282
0.880,-0.177,-0.707,63.416,29.236,1.221
0.905,-0.199,-0.687,70.496,31.006,2.380
0.914,-0.196,-0.656,77.454,31.128,1.465
0.914,-0.176,-0.636,83.984,28.687,-0.610
0.896,-0.177,-0.634,91.431,24.597,-2.686
0.875,-0.194,-0.646,99.854,20.203,-4.211
0.857,-0.202,-0.649,108.154,16.968,-5.676
0.869,-0.164,-0.652,117.004,14.160,-6.958
0.873,-0.157,-0.669,128.235,12.329,-6.836
0.832,-0.204,-0.689,140.503,12.329,-8.057
0.812,-0.206,-0.701,151.428,12.512,-12.634
0.778,-0.261,-0.712,162.354,15.015,-17.334
0.788,-0.254,-0.711,171.082,19.348,-24.658
0.798,-0.240,-0.714,180.786,24.597,-30.090
0.821,-0.239,-0.703,191.895,29.785,-34.729
0.863,-0.226,-0.693,202.759,31.250,-39.734
0.927,-0.172,-0.662,213.623,28.931,-43.701
0.945,-0.135,-0.619,224.915,24.170,-45.898
0.958,-0.142,-0.562,235.352,17.334,-47.180
0.972,-0.159,-0.506,242.615,8.362,-45.654
0.984,-0.171,-0.456,246.033,-0.183,-41.260
0.993,-0.193,-0.426,246.521,-7.446,-34.668
0.977,-0.241,-0.419,243.713,-14.832,-26.367
0.908,-0.310,-0.439,237.793,-21.362,-19.104
0.846,-0.333,-0.459,228.027,-23.987,-14.343
0.819,-0.296,-0.473,216.858,-22.766,-11.963
0.829,-0.229,-0.487,208.618,-18.127,-10.742
0.852,-0.097,-0.448,205.261,-11.169,-10.925
0.884,-0.023,-0.395,207.581,-5.432,-12.329
0.917,-0.038,-0.351,213.135,-2.136,-13.428
0.932,-0.055,-0.307,217.468,1.160,-12.329
0.940,-0.077,-0.276,218.628,2.808,-8.423
0.932,-0.121,-0.266,215.698,3.296,-2.625
0.920,-0.172,-0.266,209.473,2.930,2.563
0.905,-0.193,-0.261,199.768,2.930,5.432
0.893,-0.204,-0.271,188.843,2.258,6.775
0.878,-0.230,-0.267,176.819,1.831,5.981
0.825,-0.201,-0.248,163.879,3.235,2.869
0.782,-0.142,-0.229,152.039,6.714,-1.953
0.751,-0.088,-0.222,144.287,11.108,-7.935
0.753,-0.037,-0.216,140.808,16.846,-15.747
0.776,0.005,-0.190,141.296,22.644,-24.048
0.814,0.049,-0.157,144.714,26.001,-30.701
0.854,0.090,-0.126,151.489,25.391,-35.583
0.872,0.117,-0.109,160.095,21.118,-39.490
0.881,0.146,-0.089,170.410,15.137,-42.908
0.897,0.130,-0.070,181.458,8.545,-45.837
0.909,0.080,-0.064,191.223,2.197,-48.706
0.904,0.028,-0.050,197.571,-1.953,-51.147
0.905,-0.007,-0.037,199.524,-4.578,-52.917
0.944,-0.045,-0.028,198.242,-6.897,-54.016
0.987,-0.094,-0.018,193.970,-7.080,-54.138
1.009,-0.104,-0.001,186.523,-4.822,-53.040
1.048,-0.063,0.036,177.673,-2.686,-51.208
1.084,-0.027,0.066,170.349,-2.258,-49.011
1.083,-0.006,0.076,165.161,-3.479,-46.509
1.063,0.033,0.085,160.950,-4.517,-43.823
1.053,0.063,0.098,158.508,-5.249,-41.138
1.050,0.075,0.111,157.410,-6.775,-39.185
1.034,0.080,0.126,157.288,-9.277,-39.124
1.019,0.080,0.132,158.997,-12.695,-40.955
1.021,0.046,0.124,160.950,-17.761,-44.128
1.033,-0.010,0.124,161.255,-23.621,-48.157
1.034,-0.048,0.134,157.776,-28.442,-52.917
1.052,-0.077,0.149,151.672,-32.715,-57.190
1.064,-0.097,0.154,142.639,-36.316,-57.617
1.070,-0.122,0.149,130.798,-39.124,-54.749

1.411,-0.711,1.714,59.753,21.240,40.100
1.374,-1.175,2.268,-13.062,18.738,62.561
1.356,-1.206,2.492,-122.131,0.000,69.275
1.287,-1.042,2.636,-229.919,-20.142,66.772
1.137,-0.884,2.726,-313.599,-30.151,62.073
1.047,-0.926,2.735,-374.084,-28.564,62.744
0.996,-1.188,2.605,-427.185,-19.592,70.618
1.007,-1.549,2.311,-484.009,-12.024,77.393
1.044,-1.838,2.024,-547.729,-2.930,80.872
1.073,-2.035,1.738,-615.906,7.690,84.717
1.040,-2.153,1.403,-680.664,15.991,89.355
1.000,-2.217,1.044,-736.572,23.376,91.736
0.970,-2.205,0.731,-777.710,31.921,90.149
0.979,-2.170,0.492,-800.537,41.992,83.740
0.944,-2.219,0.225,-810.852,50.964,77.209
0.844,-2.286,-0.034,-812.134,56.641,69.092
0.721,-2.355,-0.286,-805.054,61.584,57.251
0.734,-2.440,-0.549,-790.039,69.336,47.058
0.904,-2.410,-0.806,-768.921,71.045,47.119
0.993,-2.167,-1.037,-736.145,52.124,54.993
0.991,-1.687,-1.335,-678.284,17.334,57.678
0.886,-1.233,-1.526,-588.318,-14.343,52.673
0.764,-1.097,-1.484,-475.159,-26.428,40.405
0.713,-1.407,-1.225,-362.000,-18.616,24.780
0.680,-1.825,-1.108,-270.325,-6.409,9.277
0.699,-2.099,-1.126,-206.970,8.850,-5.310
0.757,-2.192,-1.133,-165.710,28.870,-19.653
0.872,-2.112,-1.079,-135.559,41.992,-36.194
0.949,-1.914,-1.034,-107.910,43.640,-49.927
0.916,-1.693,-1.013,-79.346,36.804,-57.861
0.921,-1.493,-0.923,-51.331,27.039,-59.998
0.929,-1.337,-0.791,-27.344,16.479,-56.458
0.918,-1.199,-0.701,-10.071,5.737,-46.997
0.908,-1.020,-0.646,1.343,-5.005,-34.241
0.884,-0.846,-0.616,9.338,-16.052,-18.311
0.850,-0.709,-0.601,15.625,-25.879,0.000
0.816,-0.587,-0.584,20.508,-33.447,18.799
0.798,-0.481,-0.581,23.560,-38.452,36.438
0.783,-0.398,-0.587,24.109,-41.992,52.185
0.762,-0.330,-0.582,22.705,-43.640,65.125
0.745,-0.283,-0.588,19.470,-43.640,74.341
0.720,-0.277,-0.599,16.174,-42.419,79.529
0.705,-0.277,-0.603,12.878,-39.307,80.566
0.694,-0.274,-0.609,10.132,-33.936,77.332
0.716,-0.242,-0.607,8.423,-26.123,70.557
0.740,-0.202,-0.600,8.240,-18.677,61.401
0.742,-0.187,-0.599,9.033,-11.719,50.537
0.747,-0.194,-0.601,10.376,-4.395,39.307
0.783,-0.176,-0.596,11.414,4.211,29.053
0.803,-0.168,-0.596,13.855,12.024,21.606
0.842,-0.153,-0.593,18.066,18.433,15.930
0.910,-0.149,-0.564,23.682,22.278,11.902
0.966,-0.176,-0.526,29.114,23.071,9.155
1.008,-0.182,-0.492,33.325,21.484,7.080
1.046,-0.168,-0.459,35.889,18.555,5.249
1.066,-0.172,-0.436,38.452,15.137,3.845
1.065,-0.175,-0.438,41.077,11.475,1.648
1.046,-0.163,-0.437,43.457,9.644,-1.038
1.032,-0.141,-0.426,46.021,9.827,-3.662
1.018,-0.152,-0.411,49.683,11.108,-6.653
1.034,-0.139,-0.420,53.406,12.512,-9.949
1.041,-0.082,-0.435,58.105,15.686,-11.230
1.046,-0.133,-0.437,63.721,20.203,-9.338
1.035,-0.163,-0.396,65.491,23.560,-8.423
1.108,-0.137,-0.346,65.979,22.583,-8.301
1.150,-0.064,-0.278,67.383,15.686,-6.348
1.102,-0.097,-0.318,69.763,1.709,0.610
1.030,-0.120,-0.355,70.618,-11.108,8.179
0.960,-0.078,-0.387,71.167,-18.860,13.428
0.890,-0.077,-0.407,74.036,-19.897,17.517
0.823,-0.075,-0.406,77.637,-14.771,18.127
0.910,0.046,-0.352,81.482,-7.629,16.052
0.940,-0.018,-0.363,88.135,-3.052,16.296
0.949,-0.068,-0.392,92.407,-1.160,14.526
0.823,-0.171,-0.431,96.375,1.099,11.230
0.870,-0.185,-0.450,96.680,6.104,3.845
0.915,-0.168,-0.451,98.755,12.390,-3.784
0.969,-0.075,-0.427,102.356,16.724,-7.935
0.972,-0.072,-0.431,108.643,17.090,-6.287
0.925,-0.080,-0.472,113.647,15.015,-4.944
0.933,-0.007,-0.446,118.713,17.944,-3.784
0.937,0.010,-0.432,125.549,21.240,-0.061
0.907,-0.045,-0.442,134.277,20.508,2.686
0.922,-0.029,-0.430,140.808,18.066,3.296
0.897,-0.066,-0.466,147.400,14.099,7.263
0.877,-0.074,-0.500,154.175,10.803,9.155
0.879,-0.067,-0.519,160.706,8.179,7.690
0.865,-0.101,-0.554,167.542,6.714,5.188
0.862,-0.099,-0.573,172.974,6.348,0.244
0.863,-0.075,-0.580,176.941,8.179,-6.714
0.859,-0.093,-0.559,179.810,13.489,-13.672
0.818,-0.139,-0.528,180.176,22.095,-19.409
0.831,-0.139,-0.490,176.453,30.640,-24.292
0.871,-0.124,-0.441,170.227,36.377,-27.100
0.890,-0.131,-0.429,164.734,37.476,-27.100
0.898,-0.117,-0.445,159.424,34.851,-25.513
0.912,-0.066,-0.450,154.846,29.785,-23.315
0.922,-0.021,-0.454,152.832,23.437,-21.729
0.914,0.012,-0.472,154.663,15.686,-21.912
0.907,0.085,-0.476,159.119,9.277,-23.621
0.909,0.162,-0.457,166.809,4.822,-26.550
0.920,0.187,-0.460,179.016,0.061,-28.198
0.919,0.180,-0.470,194.153,-5.005,-27.649
0.908,0.145,-0.451,208.801,-8.667,-25.940
0.900,0.082,-0.428,220.093,-9.888,-22.766
0.903,-0.019,-0.410,226.562,-10.254,-19.043
0.892,-0.114,-0.406,226.990,-11.047,-15.503
0.874,-0.174,-0.405,221.436,-11.475,-13.794
0.871,-0.187,-0.401,211.609,-10.193,-14.160
0.887,-0.150,-0.405,201.416,-9.155,-16.541
0.914,-0.046,-0.379,193.787,-7.690,-19.104
0.926,0.026,-0.344,192.322,-6.958,-20.447
0.920,0.039,-0.313,195.435,-7.751,-21.179
0.917,0.059,-0.272,199.890,-7.629,-23.254
0.925,0.078,-0.227,205.566,-7.202,-25.513
0.916,0.067,-0.202,211.731,-6.836,-26.855
0.908,0.024,-0.197,216.614,-5.798,-26.611
0.909,-0.011,-0.214,219.116,-5.554,-24.719
0.907,-0.061,-0.221,219.910,-5.371,-21.729

1.569,-0.819,2.170,43.579,-0.305,54.810
1.363,-1.247,2.699,-23.132,-23.865,85.999
1.135,-1.443,3.010,-114.258,-61.523,99.182
1.022,-1.619,3.300,-214.050,-89.600,99.182
0.881,-1.904,3.444,-320.862,-103.088,96.802
0.661,-2.221,3.381,-432.129,-108.887,94.299
0.472,-2.321,2.974,-540.222,-104.370,90.515
0.515,-2.376,2.547,-633.240,-86.609,77.637
0.698,-2.552,2.067,-710.266,-54.810,60.364
0.807,-2.749,1.604,-775.635,-21.240,44.250
0.897,-2.840,1.141,-833.984,9.277,23.865
1.036,-2.805,0.660,-882.141,34.668,3.174
1.220,-2.727,0.241,-915.527,55.298,-13.489
1.279,-2.679,-0.088,-933.350,71.594,-22.156
1.083,-2.659,-0.371,-932.678,79.895,-25.879
0.837,-2.695,-0.670,-913.452,86.914,-33.203
0.937,-2.733,-0.948,-881.165,97.046,-36.438
1.111,-2.485,-1.219,-835.205,90.637,-31.494
1.137,-2.064,-1.469,-761.841,64.026,-30.151
1.045,-1.733,-1.553,-659.485,35.400,-25.757
1.027,-1.536,-1.375,-534.546,10.193,-14.893
1.062,-1.668,-0.975,-402.344,-18.799,8.362
1.065,-2.076,-0.714,-284.363,-63.354,44.434
1.005,-2.385,-0.729,-196.655,-111.267,82.092
1.008,-2.468,-0.813,-138.855,-146.667,110.779
1.084,-2.561,-0.861,-100.769,-162.476,128.540
1.169,-2.417,-1.006,-78.430,-161.072,130.371
1.153,-2.075,-1.110,-61.218,-153.198,114.746
1.097,-1.710,-1.127,-42.114,-135.132,91.187
1.041,-1.395,-1.068,-21.179,-111.328,64.819
0.990,-1.148,-1.003,-1.221,-86.243,39.429
0.956,-0.959,-0.940,14.648,-62.378,21.057
0.956,-0.829,-0.873,26.550,-41.565,11.475
0.959,-0.736,-0.790,34.119,-27.771,8.972
0.954,-0.686,-0.708,37.048,-19.897,11.292
0.958,-0.645,-0.673,34.607,-16.663,16.052
0.919,-0.594,-0.687,27.649,-16.785,20.996
0.861,-0.561,-0.723,19.592,-15.076,23.621
0.818,-0.549,-0.747,11.047,-9.583,23.499
0.805,-0.514,-0.769,3.052,-1.404,19.958
0.780,-0.459,-0.802,-2.686,6.714,13.123
0.766,-0.373,-0.832,-5.127,15.320,4.517
0.773,-0.288,-0.840,-2.686,24.292,-3.845
0.790,-0.227,-0.825,4.272,32.410,-11.902
0.823,-0.193,-0.788,13.306,39.734,-18.677
0.878,-0.190,-0.736,23.499,45.776,-23.499
0.938,-0.190,-0.674,32.349,49.255,-26.001
1.019,-0.206,-0.603,40.100,51.147,-25.940
1.092,-0.233,-0.529,45.776,50.476,-24.536
1.154,-0.246,-0.455,49.561,47.546,-21.790
1.202,-0.237,-0.401,51.331,42.664,-18.005
1.214,-0.198,-0.375,52.002,36.438,-14.709
1.220,-0.147,-0.367,53.040,30.579,-11.292
1.207,-0.122,-0.357,55.054,27.100,-7.751
1.185,-0.095,-0.359,57.495,26.672,-5.798
1.174,-0.068,-0.370,61.829,29.114,-5.920
1.164,-0.077,-0.378,68.237,33.447,-7.141
1.147,-0.133,-0.384,74.768,38.940,-7.874
1.130,-0.175,-0.395,80.627,44.556,-8.972
1.135,-0.193,-0.396,85.327,49.500,-9.827
1.145,-0.194,-0.404,90.820,52.002,-9.277
1.158,-0.204,-0.410,96.924,51.758,-7.324
1.153,-0.228,-0.420,103.516,48.462,-4.456
1.132,-0.287,-0.461,111.389,42.297,-2.869
1.130,-0.291,-0.477,119.690,35.767,-2.380
1.135,-0.252,-0.479,127.808,29.846,-2.075
1.105,-0.253,-0.503,138.489,22.095,-1.343
1.051,-0.273,-0.547,150.330,15.869,-0.732
0.969,-0.252,-0.578,162.109,14.954,-2.197
0.867,-0.263,-0.613,174.988,19.165,-4.456
0.750,-0.281,-0.629,188.843,27.344,-9.399
0.612,-0.211,-0.660,202.515,39.246,-15.137
0.751,-0.138,-0.636,218.567,58.655,-17.090
0.937,-0.295,-0.533,235.474,75.562,-14.893
1.030,-0.319,-0.489,251.099,65.125,-19.531
1.008,-0.321,-0.504,263.794,37.903,-28.931
1.119,-0.144,-0.501,270.325,15.869,-33.203
0.992,-0.245,-0.606,283.447,-5.432,-26.184
0.848,-0.241,-0.685,292.969,-22.888,-24.231
0.780,-0.280,-0.675,301.575,-25.208,-18.677
0.829,-0.284,-0.613,307.434,-17.212,-16.235
0.825,-0.257,-0.531,310.425,-9.827,-13.367
0.831,-0.320,-0.476,312.256,-7.202,-9.277
0.835,-0.353,-0.465,307.983,-8.301,-9.583
0.835,-0.312,-0.437,299.805,-8.423,-10.559
0.824,-0.240,-0.421,291.626,-7.874,-9.521
0.823,-0.222,-0.432,286.865,-8.423,-7.568
0.853,-0.217,-0.427,283.508,-9.766,-7.202
0.885,-0.184,-0.378,280.151,-10.315,-7.874
0.896,-0.148,-0.321,278.076,-10.254,-7.263
0.891,-0.162,-0.284,276.367,-11.658,-5.798
0.885,-0.191,-0.244,272.217,-12.146,-5.554
0.882,-0.196,-0.214,264.832,-10.803,-6.531
0.872,-0.194,-0.198,255.188,-7.996,-7.874
0.832,-0.185,-0.180,244.507,-2.869,-8.972
0.787,-0.156,-0.157,234.619,5.981,-11.353
0.760,-0.130,-0.138,227.051,17.700,-14.893
0.772,-0.104,-0.098,221.252,31.006,-18.738
0.817,-0.067,-0.034,217.834,42.236,-23.010
0.867,-0.036,0.039,216.614,48.523,-26.855
0.890,-0.026,0.099,215.149,48.218,-28.564
0.909,-0.036,0.138,212.219,42.419,-28.564
0.901,-0.036,0.156,206.177,32.715,-27.039
0.870,-0.024,0.149,198.608,21.301,-25.208
0.829,-0.008,0.126,191.040,10.559,-23.926
0.782,-0.013,0.088,184.814,2.563,-23.804
0.729,-0.020,0.071,180.420,-0.854,-26.367
0.743,0.008,0.085,178.711,-0.183,-32.898
0.771,-0.004,0.095,180.786,2.625,-39.673
0.785,-0.066,0.119,183.289,5.249,-45.471
0.837,-0.119,0.155,180.786,7.629,-50.049
0.917,-0.146,0.183,172.974,10.132,-52.917
0.996,-0.177,0.210,159.912,10.193,-52.612
1.032,-0.174,0.237,142.517,6.653,-48.584
1.064,-0.130,0.269,123.108,1.160,-42.542
1.079,-0.070,0.304,106.079,-5.371,-35.522
1.075,-0.030,0.321,93.689,-14.160,-28.625
1.068,-0.009,0.323,86.670,-24.048,-23.682
1.061,-0.009,0.316,82.214,-31.616,-20.691

1.538,-0.134,1.726,269.714,-43.823,-20.752
1.698,-0.893,2.275,304.932,-52.429,16.174
1.583,-2.146,2.807,282.166,-62.317,78.674
0.866,-3.477,3.043,173.340,-81.543,134.766
0.231,-4.000,2.997,-27.466,-80.444,138.062
0.368,-3.980,2.461,-283.875,-40.527,121.887
0.887,-3.942,1.924,-537.170,14.282,125.671
0.839,-4.000,1.423,-755.371,47.546,139.526
0.579,-4.000,0.754,-914.856,50.720,149.475
0.447,-3.930,0.188,-1010.803,58.044,135.559
0.412,-3.528,-0.227,-1056.091,81.055,112.671
0.542,-3.194,-0.481,-1072.632,117.126,101.196
0.919,-3.123,-0.550,-1064.453,141.296,99.426
1.232,-3.107,-0.686,-1052.246,129.089,102.356
1.307,-3.054,-0.980,-1036.743,78.125,106.506
1.259,-3.001,-1.243,-1013.977,8.301,104.797
1.114,-2.815,-1.575,-979.736,-56.213,85.999
0.893,-2.428,-2.068,-925.598,-98.389,55.054
0.614,-1.890,-2.548,-843.994,-103.333,19.897
0.346,-1.260,-2.799,-741.150,-72.266,-7.996
0.277,-0.625,-2.770,-617.126,-25.818,-23.743
0.450,-0.479,-2.454,-466.614,23.071,-30.334
0.835,-0.893,-1.879,-311.707,58.289,-29.358
1.163,-1.475,-1.531,-183.289,62.500,-19.226
1.277,-1.757,-1.412,-98.145,42.175,2.197
1.271,-1.875,-1.334,-45.349,13.062,32.349
1.269,-1.842,-1.265,-10.437,-18.860,63.965
1.276,-1.700,-1.224,14.954,-50.964,89.783
1.283,-1.544,-1.153,33.936,-76.782,107.727
1.252,-1.361,-1.088,43.335,-93.811,118.103
1.145,-1.150,-1.045,45.654,-101.868,120.422
1.001,-0.924,-1.018,45.471,-98.816,115.417
0.863,-0.727,-1.001,44.922,-85.876,105.774
0.763,-0.575,-0.980,46.814,-65.002,92.102
0.712,-0.503,-0.944,50.659,-40.283,76.233
0.699,-0.467,-0.895,53.894,-17.334,59.692
0.684,-0.443,-0.843,55.603,1.099,43.823
0.667,-0.415,-0.798,56.091,15.930,29.419
0.661,-0.358,-0.754,55.237,26.245,17.578
0.666,-0.294,-0.715,55.420,31.982,8.179
0.674,-0.249,-0.677,56.946,34.912,0.977
0.705,-0.247,-0.674,59.204,36.987,-3.662
0.753,-0.270,-0.692,62.195,36.011,-5.920
0.778,-0.276,-0.684,62.805,33.813,-6.836
0.793,-0.271,-0.651,60.669,33.936,-6.470
0.815,-0.239,-0.610,57.861,34.607,-5.981
0.864,-0.191,-0.575,55.786,34.668,-5.310
0.902,-0.140,-0.561,56.580,32.349,-4.700
0.914,-0.099,-0.561,60.669,28.015,-4.456
0.920,-0.052,-0.562,66.406,24.353,-4.822
0.919,-0.005,-0.550,72.876,23.743,-6.409
0.908,0.030,-0.541,80.933,24.719,-8.667
0.901,0.032,-0.529,90.088,26.367,-11.230
0.910,0.006,-0.530,99.060,30.029,-15.259
0.904,-0.012,-0.539,108.459,36.316,-21.057
0.901,-0.025,-0.524,116.882,43.457,-26.672
0.898,-0.054,-0.524,125.183,48.462,-31.189
0.885,-0.116,-0.529,133.301,51.025,-33.630
0.860,-0.253,-0.529,137.817,53.345,-35.400
1.008,-0.048,-0.455,136.780,54.626,-39.917
1.049,-0.034,-0.470,140.198,51.819,-32.288
0.998,-0.124,-0.465,145.447,44.556,-24.963
0.973,-0.144,-0.484,143.433,33.081,-25.146
1.051,-0.043,-0.408,143.860,25.879,-26.367
1.035,0.009,-0.371,145.813,15.747,-23.926
1.016,-0.015,-0.378,150.635,3.052,-20.142
1.001,-0.036,-0.375,152.771,-6.897,-17.212
0.951,-0.066,-0.380,152.283,-13.000,-14.282
0.944,0.002,-0.333,149.414,-14.221,-14.709
0.885,0.017,-0.345,148.132,-13.916,-14.038
0.839,-0.030,-0.365,148.865,-9.460,-16.113
0.794,-0.017,-0.378,146.362,-1.404,-23.437
0.747,-0.005,-0.419,146.240,9.949,-30.151
0.799,0.007,-0.441,147.583,23.315,-35.034
0.788,-0.004,-0.448,151.001,34.668,-40.222
0.780,-0.061,-0.464,154.114,43.640,-48.340
0.914,0.006,-0.385,155.701,51.086,-59.937
1.075,0.108,-0.327,159.668,52.368,-68.359
1.053,0.134,-0.298,168.335,44.922,-70.862
1.060,0.068,-0.298,174.988,32.776,-66.345
1.090,0.024,-0.296,177.795,18.982,-58.533
1.048,-0.016,-0.322,176.941,5.249,-50.232
1.000,-0.041,-0.368,173.767,-5.798,-42.358
0.936,-0.057,-0.410,169.189,-12.878,-32.532
0.880,-0.136,-0.462,163.269,-15.930,-22.278
0.850,-0.170,-0.506,154.236,-14.038,-17.151
0.846,-0.111,-0.508,144.958,-9.094,-17.090
0.863,-0.036,-0.491,139.587,-2.625,-19.897
0.900,0.028,-0.467,139.465,2.930,-23.743
0.916,0.090,-0.432,144.226,5.798,-28.442
0.936,0.133,-0.389,152.893,6.714,-31.799
0.959,0.122,-0.353,162.903,6.287,-33.081
0.972,0.081,-0.326,171.326,4.639,-32.715
0.994,0.048,-0.312,176.208,0.549,-31.250
1.007,0.026,-0.313,177.368,-6.653,-26.917
0.980,-0.007,-0.340,175.720,-16.052,-21.179
0.927,-0.042,-0.379,171.082,-24.414,-15.564
0.876,-0.050,-0.403,164.551,-29.480,-11.414
0.835,-0.017,-0.397,158.142,-30.518,-9.521
0.802,0.016,-0.379,154.419,-28.076,-9.766
0.802,0.045,-0.350,154.053,-24.231,-11.169
0.820,0.073,-0.300,156.189,-19.836,-13.428
0.834,0.087,-0.255,159.607,-16.541,-16.296
0.854,0.092,-0.212,164.307,-15.808,-18.127
0.876,0.088,-0.176,168.762,-18.127,-17.944
0.867,0.071,-0.160,171.997,-22.766,-16.785
0.828,0.046,-0.164,173.218,-26.794,-15.869
0.788,0.011,-0.177,172.607,-28.442,-15.259
0.769,-0.023,-0.188,170.471,-26.550,-15.015
0.754,-0.053,-0.188,166.504,-22.217,-15.503
0.773,-0.070,-0.171,161.377,-15.503,-17.578
0.846,-0.054,-0.117,156.677,-8.606,-21.545
0.920,-0.047,-0.051,153.992,-5.737,-25.940
0.973,-0.050,0.000,151.428,-7.751,-29.358
1.016,-0.044,0.052,147.522,-13.733,-32.043
1.031,-0.024,0.068,142.456,-22.766,-33.447
1.002,-0.017,0.069,138.245,-32.593,-33.875
0.956,-0.008,0.069,133.972,-40.100,-33.508
0.914,-0.000,0.068,130.371,-44.067,-33.081

1.542,-0.342,1.645,52.490,10.437,32.227
1.710,-0.600,2.024,27.527,22.705,76.111
1.522,-1.093,2.474,-15.503,25.024,134.216
1.267,-1.648,2.797,-84.351,5.066,170.105
1.193,-2.035,2.877,-187.073,-12.329,178.528
1.131,-2.240,2.682,-314.758,-10.986,174.500
1.012,-2.215,2.381,-441.956,-5.066,155.457
0.827,-2.039,1.989,-546.021,-0.854,127.136
0.755,-1.963,1.652,-619.629,12.634,101.807
0.675,-1.980,1.383,-673.523,38.025,88.074
0.573,-2.080,1.020,-716.614,64.514,82.825
0.505,-2.206,0.616,-750.122,90.881,78.613
0.510,-2.267,0.284,-771.423,124.451,75.195
0.631,-2.366,0.160,-783.447,164.307,79.346
0.697,-2.487,-0.049,-795.654,196.960,98.816
0.693,-2.510,-0.260,-806.763,206.909,119.995
0.752,-2.430,-0.397,-807.983,198.486,130.249
0.768,-2.295,-0.439,-797.363,178.101,133.606
0.690,-2.201,-0.462,-775.208,154.297,132.874
0.610,-2.070,-0.538,-744.202,125.305,132.568
0.486,-1.970,-0.629,-704.468,87.830,130.981
0.379,-1.890,-0.738,-653.992,46.692,130.005
0.334,-1.760,-0.836,-596.375,9.521,130.249
0.328,-1.647,-0.913,-533.081,-20.447,131.104
0.442,-1.625,-0.997,-465.759,-45.959,131.531
0.570,-1.626,-1.096,-394.897,-67.993,128.113
0.688,-1.519,-1.174,-321.106,-88.318,119.568
0.788,-1.511,-1.110,-246.338,-105.896,111.633
0.856,-1.725,-1.028,-180.542,-111.816,104.858
0.955,-1.857,-1.030,-130.676,-106.018,90.576
1.044,-1.896,-1.028,-95.642,-91.309,67.932
1.126,-1.907,-1.033,-69.824,-69.824,42.419
1.208,-1.785,-1.008,-52.307,-46.448,17.822
1.280,-1.628,-0.962,-40.466,-24.597,-1.343
1.310,-1.468,-0.950,-30.090,-8.911,-13.794
1.284,-1.250,-0.961,-19.714,0.305,-20.996
1.248,-1.027,-0.956,-8.179,7.263,-22.339
1.218,-0.845,-0.914,5.493,11.780,-17.761
1.158,-0.685,-0.859,19.836,12.146,-7.874
1.084,-0.560,-0.813,33.325,8.728,5.554
1.017,-0.509,-0.771,45.898,2.808,22.034
0.945,-0.532,-0.737,55.847,-2.930,39.307
0.875,-0.561,-0.716,61.096,-6.775,55.176
0.832,-0.582,-0.712,62.683,-10.071,67.078
0.795,-0.596,-0.717,62.439,-13.245,72.998
0.754,-0.567,-0.739,60.669,-15.137,73.120
0.730,-0.526,-0.773,58.777,-14.771,67.871
0.701,-0.485,-0.820,58.350,-11.597,59.814
0.658,-0.441,-0.850,58.899,-6.165,50.537
0.662,-0.401,-0.838,59.814,2.258,40.527
0.678,-0.381,-0.802,61.646,11.475,30.945
0.698,-0.360,-0.771,64.087,19.104,21.973
0.747,-0.318,-0.766,67.261,24.841,12.756
0.792,-0.304,-0.758,72.388,28.992,3.540
0.811,-0.288,-0.741,76.843,32.104,-4.700
0.829,-0.287,-0.726,80.933,34.790,-13.184
0.844,-0.278,-0.713,85.632,37.964,-21.729
0.870,-0.261,-0.693,90.271,41.199,-28.625
0.922,-0.228,-0.674,96.130,43.640,-32.776
0.931,-0.264,-0.673,102.783,44.861,-31.677
0.944,-0.321,-0.680,108.521,44.128,-28.809
0.961,-0.365,-0.682,111.938,41.260,-25.757
0.993,-0.350,-0.663,114.136,37.903,-23.499
1.010,-0.319,-0.634,117.126,33.447,-19.897
0.982,-0.328,-0.643,121.765,25.452,-14.587
0.964,-0.315,-0.659,126.404,16.907,-10.071
0.948,-0.261,-0.646,131.042,11.292,-6.470
0.912,-0.242,-0.638,136.963,8.972,-3.357
0.902,-0.181,-0.614,143.433,7.385,-2.136
0.921,-0.097,-0.592,151.672,5.676,-0.122
0.867,-0.152,-0.625,163.696,3.052,2.441
0.864,-0.155,-0.635,173.218,1.770,0.977
0.851,-0.180,-0.640,183.899,1.892,-1.587
0.861,-0.192,-0.623,192.871,2.563,-5.432
0.863,-0.184,-0.594,199.402,1.709,-10.498
0.876,-0.170,-0.546,203.918,0.122,-15.808
0.881,-0.181,-0.525,208.069,-2.075,-20.142
0.888,-0.147,-0.493,210.266,-3.662,-22.705
0.896,-0.110,-0.470,211.670,-5.249,-23.193
0.900,-0.086,-0.473,212.769,-6.897,-22.827
0.897,-0.091,-0.473,214.905,-7.141,-22.095
0.904,-0.084,-0.434,216.125,-6.775,-21.240
0.908,-0.059,-0.404,216.736,-8.362,-19.897
0.899,-0.087,-0.412,217.468,-10.742,-17.578
0.881,-0.123,-0.439,217.102,-12.085,-16.846
0.880,-0.100,-0.426,214.905,-11.597,-18.127
0.872,-0.111,-0.432,213.379,-11.292,-20.386
0.854,-0.138,-0.450,212.280,-10.742,-24.170
0.824,-0.130,-0.454,210.266,-8.423,-28.992
0.816,-0.118,-0.451,208.679,-5.310,-33.569
0.817,-0.134,-0.456,207.642,-3.967,-35.400
0.825,-0.151,-0.437,205.627,-3.906,-34.668
0.874,-0.128,-0.399,202.942,-5.920,-32.166
0.936,-0.079,-0.354,201.172,-11.597,-29.114
0.974,-0.045,-0.322,202.087,-22.034,-25.085
0.969,-0.042,-0.312,204.712,-36.560,-20.264
0.926,-0.056,-0.322,207.764,-50.110,-16.479
0.862,-0.076,-0.345,209.839,-59.570,-14.038
0.803,-0.113,-0.366,210.632,-63.843,-12.207
0.756,-0.144,-0.377,210.083,-63.354,-11.353
0.716,-0.146,-0.372,207.458,-58.594,-11.719
0.685,-0.135,-0.351,205.383,-50.903,-13.184
0.670,-0.115,-0.323,205.261,-41.504,-14.771
0.674,-0.112,-0.281,207.275,-30.762,-15.564
0.693,-0.118,-0.222,209.656,-20.447,-16.235
0.692,-0.135,-0.189,212.036,-12.817,-15.381
0.671,-0.170,-0.164,212.158,-7.812,-13.916
0.647,-0.201,-0.141,209.534,-2.808,-13.794
0.629,-0.211,-0.121,204.834,3.296,-15.869
0.620,-0.212,-0.104,199.158,9.583,-19.470
0.606,-0.211,-0.090,193.542,15.137,-24.536
0.580,-0.198,-0.074,188.538,20.325,-30.151
0.563,-0.174,-0.042,184.265,26.489,-36.133
0.585,-0.162,-0.005,182.129,32.593,-42.664
0.648,-0.133,0.058,181.519,38.452,-49.561
0.730,-0.108,0.142,183.228,41.077,-54.565
0.814,-0.089,0.222,184.814,36.011,-57.678
0.906,-0.087,0.283,186.218,23.437,-59.021
0.958,-0.109,0.297,185.608,5.310,-58.167

1.897,-0.311,1.470,167.786,-178.772,31.189
2.006,-0.693,1.981,176.147,-212.769,52.979
1.981,-1.197,2.461,151.184,-256.348,87.280
1.727,-1.657,2.906,89.417,-307.068,124.939
1.257,-1.951,3.262,7.629,-359.497,145.508
0.370,-2.338,3.564,-83.313,-395.630,149.719
-0.622,-2.934,3.681,-194.519,-385.742,128.418
-1.154,-3.573,3.515,-336.853,-311.584,89.722
-0.953,-3.730,3.185,-503.296,-197.632,36.560
-0.418,-3.559,2.683,-655.029,-86.975,-22.888
0.157,-3.526,2.111,-766.846,2.625,-69.885
0.599,-3.508,1.550,-839.722,70.068,-105.774
0.823,-3.645,1.206,-890.625,117.493,-140.808
0.958,-3.946,0.815,-933.289,161.865,-169.556
1.188,-4.000,0.287,-973.816,210.144,-182.007
1.157,-4.000,-0.217,-1004.517,263.062,-173.462
0.856,-3.990,-0.660,-1019.043,316.833,-156.677
0.909,-3.886,-0.857,-1011.719,379.150,-131.042
1.705,-4.000,-0.698,-991.699,413.574,-50.781
1.991,-3.974,-0.879,-971.558,345.154,62.256
1.642,-3.519,-1.182,-929.749,211.975,144.897
1.187,-3.383,-1.475,-858.765,80.444,211.304
0.712,-3.455,-1.973,-770.447,-18.005,257.751
0.199,-3.252,-2.722,-684.631,-83.557,281.799
-0.383,-2.830,-3.249,-601.562,-112.915,281.799
-0.679,-2.210,-3.446,-507.874,-107.178,262.024
-0.511,-1.642,-3.458,-389.709,-81.360,227.417
-0.176,-1.460,-3.130,-249.634,-47.058,173.401
-0.004,-1.612,-2.664,-113.464,-22.827,100.464
-0.015,-1.725,-2.406,-9.521,-9.277,21.912
0.048,-1.755,-2.205,58.533,14.282,-45.471
0.332,-1.747,-1.904,96.252,50.354,-96.741
0.664,-1.369,-1.376,110.962,79.285,-129.761
0.937,-1.262,-1.276,120.361,81.970,-132.874
0.977,-1.061,-0.953,117.004,74.341,-131.775
1.075,-0.604,-0.786,97.839,48.950,-119.690
1.098,-0.387,-0.729,89.478,19.043,-95.581
1.019,-0.104,-0.634,74.402,-4.761,-68.420
0.941,0.032,-0.634,68.420,-23.132,-38.513
0.874,0.175,-0.649,60.425,-30.457,-13.428
0.819,0.226,-0.694,56.030,-28.503,9.216
0.805,0.249,-0.700,51.392,-18.799,26.611
0.795,0.224,-0.715,46.753,-8.179,38.330
0.769,0.134,-0.755,42.786,0.793,44.373
0.724,0.059,-0.787,37.231,9.644,44.861
0.667,-0.001,-0.811,30.884,17.761,41.870
0.612,-0.046,-0.853,25.513,24.902,35.278
0.581,-0.054,-0.925,20.691,32.104,26.428
0.579,-0.047,-0.987,17.761,40.771,18.250
0.591,-0.036,-1.024,18.311,48.706,11.597
0.594,-0.020,-1.034,21.667,55.115,5.737
0.591,0.001,-1.014,27.161,58.289,-0.488
0.596,0.029,-1.004,33.997,57.800,-5.737
0.612,0.039,-1.011,42.847,56.091,-10.254
0.652,0.021,-1.024,53.101,54.749,-13.000
0.699,0.015,-1.028,62.439,52.673,-15.015
0.745,0.052,-1.001,70.251,50.720,-16.602
0.777,0.075,-0.978,78.247,46.875,-16.724
0.791,0.081,-0.963,87.158,41.870,-16.602
0.786,0.098,-0.953,95.581,37.659,-16.785
0.755,0.125,-0.959,104.370,34.790,-17.395
0.710,0.136,-0.942,112.854,33.508,-18.616
0.741,0.209,-0.909,120.361,33.020,-20.874
0.748,0.214,-0.894,131.042,33.875,-20.752
0.664,0.115,-0.912,140.137,34.790,-20.874
0.510,-0.095,-0.942,142.212,39.368,-27.100
0.157,-0.385,-0.815,133.057,50.415,-51.025
1.092,1.054,-0.771,114.136,60.303,-81.116
1.625,0.852,-0.746,149.048,84.900,-32.410
0.641,-0.108,-0.719,182.434,84.900,-1.160
0.483,0.110,-0.786,163.452,51.514,-28.931
0.843,0.424,-0.776,158.142,43.945,-43.213
1.032,0.434,-0.690,167.847,51.819,-39.246
0.708,0.346,-0.755,177.002,42.725,-37.720
0.845,0.392,-0.650,182.312,38.391,-33.997
0.782,0.351,-0.599,191.895,31.860,-24.170
0.760,0.332,-0.620,195.007,19.287,-20.081
0.647,0.308,-0.606,196.777,13.062,-17.456
0.588,0.443,-0.540,197.388,10.620,-12.756
0.570,0.392,-0.527,205.994,7.141,-2.441
0.585,0.394,-0.576,211.060,2.747,-3.601
0.588,0.459,-0.519,217.224,1.343,-5.371
0.502,0.328,-0.480,226.257,-1.831,-2.930
0.497,0.378,-0.516,227.661,-14.404,-9.827
0.466,0.361,-0.524,232.666,-20.874,-7.629
0.341,0.301,-0.496,236.023,-23.376,-3.906
0.249,0.246,-0.556,235.718,-27.161,-2.869
0.303,0.244,-0.505,233.582,-23.071,-1.709
0.356,0.228,-0.439,228.210,-19.531,0.122
0.324,0.147,-0.445,221.985,-21.851,-1.465
0.299,0.156,-0.411,211.975,-25.085,-9.521
0.268,0.183,-0.400,200.989,-27.161,-18.250
0.281,0.223,-0.365,192.078,-26.184,-28.015
0.317,0.257,-0.347,186.157,-27.832,-36.255
0.297,0.273,-0.346,183.105,-32.349,-43.335
0.261,0.289,-0.344,182.861,-36.865,-49.561
0.243,0.288,-0.344,185.730,-39.124,-52.551
0.246,0.294,-0.320,189.697,-39.307,-52.734
0.251,0.293,-0.293,195.801,-39.917,-51.880
0.242,0.249,-0.280,202.881,-40.649,-51.880
0.203,0.203,-0.272,208.435,-38.574,-55.725
0.213,0.233,-0.250,212.219,-32.593,-63.416
0.260,0.207,-0.251,217.346,-25.574,-69.153
0.302,0.125,-0.256,222.839,-19.165,-77.698
0.368,0.099,-0.232,227.905,-11.475,-92.712
0.430,0.102,-0.185,234.802,-3.662,-107.361
0.508,0.142,-0.112,243.530,2.380,-118.774
0.577,0.154,-0.053,254.578,5.676,-123.657
0.612,0.094,-0.003,267.456,7.385,-124.634
0.648,0.031,0.049,278.320,8.179,-124.512
0.654,-0.033,0.077,285.522,8.362,-121.887
0.640,-0.123,0.120,285.828,10.864,-113.586
0.696,-0.223,0.199,277.588,15.808,-100.342
0.834,-0.302,0.286,262.634,20.996,-88.196
0.917,-0.373,0.380,242.310,24.780,-79.956
0.926,-0.412,0.500,212.585,28.931,-74.219
0.956,-0.411,0.624,175.598,35.583,-72.021
1.032,-0.370,0.717,136.536,46.387,-71.350
1.115,-0.244,0.775,100.098,59.082,-71.411

1.128,-0.469,2.111,156.982,-53.894,36.682
1.136,-1.056,2.868,149.292,-66.589,53.589
0.939,-1.829,3.638,97.290,-90.210,74.890
0.393,-2.584,3.999,-10.681,-118.042,91.248
-0.142,-3.153,4.000,-167.847,-124.390,85.510
-0.378,-3.721,3.750,-362.305,-94.421,67.749
-0.237,-3.943,3.312,-565.613,-39.978,53.284
0.190,-3.550,2.785,-750.549,8.545,27.893
0.358,-3.193,2.182,-879.333,52.795,-1.038
0.670,-2.931,1.768,-953.552,99.243,-36.316
1.192,-3.060,1.420,-996.155,137.390,-68.848
1.446,-3.423,1.006,-1034.790,177.917,-83.374
1.376,-3.609,0.348,-1073.914,211.975,-92.529
1.421,-3.648,-0.241,-1099.670,241.272,-98.633
1.552,-3.581,-0.599,-1102.112,257.935,-75.439
1.591,-3.542,-0.822,-1077.271,250.366,-22.461
1.470,-3.457,-1.201,-1030.823,214.661,37.964
1.084,-3.304,-1.687,-965.881,164.124,88.806
0.605,-2.922,-2.150,-884.521,124.268,117.554
0.281,-2.380,-2.536,-788.757,98.083,128.052
0.251,-1.777,-2.667,-667.419,66.223,139.282
0.229,-1.322,-2.677,-512.451,13.733,147.705
0.031,-1.459,-2.412,-335.022,-38.452,146.729
0.008,-2.088,-2.155,-174.927,-70.618,136.169
0.228,-2.369,-2.032,-63.721,-77.759,116.882
0.461,-2.354,-1.853,7.812,-64.209,94.543
0.629,-2.270,-1.627,57.617,-46.082,74.280
0.814,-2.054,-1.308,88.989,-34.241,53.955
1.029,-1.726,-1.009,106.140,-34.119,37.292
1.054,-1.428,-0.869,117.371,-46.082,27.100
0.939,-1.073,-0.755,122.131,-60.303,21.973
0.846,-0.754,-0.647,124.146,-70.251,22.888
0.793,-0.467,-0.561,124.268,-75.684,27.283
0.729,-0.226,-0.452,124.268,-76.355,36.987
0.682,-0.135,-0.393,123.413,-73.608,49.438
0.656,-0.113,-0.358,118.225,-69.397,57.800
0.656,-0.052,-0.348,107.666,-63.782,60.669
0.674,0.063,-0.326,95.947,-55.237,60.120
0.667,0.174,-0.321,87.952,-46.753,59.875
0.585,0.100,-0.423,81.482,-39.063,59.082
0.590,0.094,-0.433,71.045,-24.902,51.758
0.588,0.036,-0.422,59.387,-10.620,42.969
0.631,0.034,-0.445,45.227,-0.244,30.945
0.615,0.019,-0.448,30.640,13.123,19.043
0.605,0.071,-0.504,17.151,23.682,4.578
0.620,0.138,-0.554,7.812,35.217,-9.094
0.646,0.182,-0.582,3.235,47.668,-21.851
0.684,0.218,-0.607,3.113,57.983,-33.020
0.730,0.226,-0.608,5.615,65.796,-42.175
0.786,0.223,-0.607,10.681,68.848,-49.377
0.826,0.212,-0.586,17.029,68.542,-53.955
0.879,0.211,-0.534,22.644,65.918,-55.908
0.925,0.207,-0.500,27.588,58.777,-54.626
0.939,0.190,-0.482,32.410,48.584,-51.025
0.935,0.180,-0.470,35.583,39.001,-46.448
0.928,0.184,-0.460,38.330,30.945,-41.443
0.933,0.164,-0.453,41.565,25.024,-36.316
0.932,0.150,-0.465,44.373,20.752,-32.227
0.901,0.161,-0.473,46.265,17.273,-29.724
0.542,-0.203,-0.520,48.584,14.709,-29.724
0.810,0.198,-0.586,39.734,17.944,-53.162
1.134,0.566,-0.585,43.884,37.659,-52.124
1.012,0.039,-0.458,71.472,54.138,-30.762
0.925,0.015,-0.532,69.824,34.729,-40.283
1.005,0.101,-0.573,75.928,22.766,-48.340
1.063,0.333,-0.509,80.444,21.545,-43.945
1.057,0.192,-0.567,93.323,10.681,-24.048
0.986,0.037,-0.565,103.577,0.427,-9.827
0.925,0.073,-0.570,107.849,-7.812,-6.226
0.898,0.093,-0.568,112.610,-12.207,-4.517
1.021,0.288,-0.473,119.507,-16.479,-5.249
0.980,0.284,-0.548,131.897,-24.414,-2.319
0.763,0.152,-0.605,145.447,-24.963,-1.770
0.848,0.188,-0.582,152.039,-16.602,-6.348
0.951,0.271,-0.522,160.461,-5.249,-11.169
0.925,0.254,-0.508,171.997,-0.732,-12.512
0.901,0.174,-0.506,183.228,-1.587,-10.559
0.906,0.104,-0.501,189.148,-4.639,-9.644
0.930,0.123,-0.501,192.566,-6.409,-9.827
0.985,0.078,-0.474,196.289,-7.874,-5.371
0.977,-0.003,-0.450,196.777,-11.353,-0.427
0.918,0.024,-0.421,191.711,-14.526,0.732
0.878,0.126,-0.377,185.425,-12.817,1.465
0.889,0.220,-0.325,182.678,-7.263,3.052
0.901,0.260,-0.278,183.350,-3.357,3.906
0.869,0.282,-0.263,186.401,-3.174,3.418
0.866,0.274,-0.252,189.758,-4.089,3.479
0.898,0.242,-0.255,191.833,-6.836,4.089
0.895,0.211,-0.279,193.604,-11.108,1.831
0.840,0.222,-0.301,194.458,-14.648,-2.319
0.834,0.245,-0.307,197.327,-15.564,-6.104
0.838,0.252,-0.307,201.843,-15.137,-6.775
0.816,0.214,-0.261,206.360,-12.573,-5.310
0.821,0.181,-0.196,208.740,-10.193,-5.737
0.849,0.171,-0.137,208.130,-7.324,-7.568
0.883,0.187,-0.079,204.956,-3.845,-8.057
0.873,0.194,-0.075,200.806,-3.479,-7.690
0.840,0.167,-0.086,197.144,-2.563,-7.935
0.820,0.147,-0.085,192.505,0.916,-10.742
0.799,0.152,-0.096,188.354,5.920,-16.113
0.790,0.169,-0.110,186.584,11.902,-22.949
0.809,0.204,-0.096,187.256,19.104,-28.870
0.822,0.228,-0.078,191.650,25.757,-34.180
0.849,0.248,-0.050,199.219,30.701,-38.818
0.907,0.263,0.002,209.167,32.715,-42.969
0.969,0.234,0.048,220.520,30.640,-46.143
0.993,0.196,0.082,230.652,25.146,-46.875
1.004,0.160,0.107,237.671,17.151,-46.082
1.013,0.097,0.109,242.065,6.897,-44.556
1.017,-0.009,0.115,241.211,-3.479,-40.649
1.001,-0.098,0.118,232.483,-11.108,-35.950
0.974,-0.109,0.145,217.407,-15.137,-32.715
0.944,-0.086,0.153,200.012,-16.113,-29.175
0.920,-0.075,0.160,183.899,-12.634,-25.024
0.902,-0.047,0.194,169.983,-5.676,-21.851
0.907,0.002,0.247,159.668,3.296,-21.240
0.961,0.078,0.334,153.870,11.597,-22.522
1.005,0.136,0.414,153.381,15.869,-23.865
1.022,0.148,0.465,155.884,14.221,-25.146

1.458,0.020,1.407,140.076,-49.683,1.953
1.662,-0.507,2.225,170.837,-50.842,19.348
1.625,-1.471,3.304,156.677,-57.739,50.781
1.101,-2.373,3.809,49.133,-81.116,73.486
0.599,-2.665,3.554,-138.611,-88.135,70.801
0.242,-2.796,3.073,-338.074,-49.744,68.848
0.270,-2.615,2.629,-522.766,9.399,76.416
0.409,-2.296,2.314,-666.992,72.937,78.735
0.682,-2.163,2.005,-756.226,129.700,75.317
0.977,-2.333,1.561,-817.566,177.612,78.369
1.090,-2.601,1.023,-868.530,218.628,89.722
1.217,-2.738,0.564,-913.513,249.146,104.187
1.222,-2.779,0.223,-955.078,268.433,122.192
1.111,-2.783,-0.079,-981.873,275.452,136.475
0.894,-2.686,-0.368,-989.807,266.418,144.958
0.588,-2.657,-0.648,-972.351,257.629,143.799
0.297,-2.740,-1.000,-937.805,265.686,137.451
0.176,-2.656,-1.287,-902.161,280.029,138.733
0.205,-2.480,-1.469,-862.732,267.517,158.203
0.166,-2.157,-1.771,-802.979,221.191,180.054
-0.042,-1.821,-2.034,-722.656,155.518,185.181
-0.290,-1.394,-2.248,-620.056,87.097,176.697
-0.425,-0.929,-2.388,-489.319,25.024,157.471
-0.446,-0.844,-2.255,-329.773,-21.973,136.108
-0.377,-1.431,-1.915,-170.898,-46.753,117.615
-0.159,-1.943,-1.701,-52.734,-48.096,101.929
0.143,-1.990,-1.563,16.174,-35.339,87.646
0.478,-2.031,-1.369,60.669,-20.935,77.881
0.765,-2.045,-1.173,89.417,-18.066,66.345
0.950,-1.899,-0.984,100.769,-28.748,50.720
0.955,-1.625,-0.882,102.295,-47.485,34.973
0.838,-1.324,-0.835,102.112,-64.514,22.339
0.742,-1.038,-0.800,103.394,-70.251,13.916
0.698,-0.779,-0.765,107.483,-65.918,9.766
0.672,-0.577,-0.718,114.075,-57.739,9.766
0.677,-0.439,-0.672,120.850,-48.950,13.062
0.685,-0.326,-0.643,127.014,-42.603,19.165
0.688,-0.245,-0.605,132.629,-39.429,26.001
0.678,-0.205,-0.577,136.841,-37.720,32.776
0.667,-0.210,-0.577,140.015,-36.499,38.147
0.674,-0.237,-0.599,141.602,-34.790,41.260
0.667,-0.284,-0.618,140.625,-34.119,43.213
0.644,-0.323,-0.628,136.658,-33.386,42.725
0.632,-0.306,-0.628,129.944,-31.677,40.100
0.612,-0.232,-0.639,122.070,-29.785,35.767
0.588,-0.119,-0.657,116.943,-27.161,29.724
0.565,-0.008,-0.664,114.990,-22.949,22.034
0.547,0.086,-0.672,117.188,-16.296,14.038
0.568,0.146,-0.667,123.230,-7.935,6.226
0.630,0.189,-0.659,131.836,-0.854,-1.404
0.685,0.208,-0.655,142.944,3.235,-7.690
0.735,0.188,-0.650,154.358,5.432,-12.695
0.773,0.136,-0.643,163.696,6.287,-16.052
0.789,0.082,-0.621,169.495,7.996,-18.311
0.806,0.081,-0.579,170.898,11.414,-20.630
0.834,0.118,-0.536,169.922,14.648,-23.315
0.850,0.148,-0.523,170.410,16.479,-26.001
0.855,0.159,-0.505,172.363,17.822,-28.992
0.890,0.179,-0.474,173.218,18.433,-31.006
0.906,0.223,-0.452,174.194,15.869,-32.166
0.895,0.243,-0.441,176.025,11.353,-33.142
0.892,0.234,-0.436,178.467,5.615,-34.668
0.912,0.200,-0.423,180.237,0.488,-36.865
0.940,0.164,-0.392,178.650,-3.723,-37.720
0.948,0.120,-0.391,173.645,-9.033,-35.767
0.922,0.065,-0.418,166.992,-15.198,-32.532
0.870,0.037,-0.440,158.508,-19.897,-30.396
0.814,0.035,-0.428,147.888,-20.813,-30.701
0.884,0.245,-0.389,138.855,-19.409,-31.555
0.916,0.188,-0.392,138.672,-14.954,-24.109
0.919,0.191,-0.353,136.658,-10.437,-22.339
0.868,0.213,-0.310,134.644,-8.179,-22.949
0.880,0.244,-0.280,133.057,-6.348,-25.696
0.877,0.226,-0.263,132.690,-2.686,-28.503
0.890,0.241,-0.236,132.507,1.221,-32.532
0.888,0.265,-0.218,132.996,4.761,-36.255
0.880,0.255,-0.208,133.850,7.202,-39.124
0.903,0.256,-0.194,134.827,9.827,-40.771
0.904,0.273,-0.183,136.047,12.390,-42.603
0.900,0.264,-0.182,138.184,14.465,-42.786
0.913,0.233,-0.180,139.648,15.991,-41.199
0.945,0.201,-0.160,139.648,16.479,-39.917
0.948,0.186,-0.153,137.268,14.954,-39.246
0.925,0.175,-0.157,132.874,11.475,-38.025
0.922,0.170,-0.175,128.052,8.118,-36.133
0.929,0.217,-0.167,123.474,5.859,-35.217
0.941,0.283,-0.123,122.864,4.700,-35.095
0.961,0.302,-0.089,126.282,1.892,-34.729
0.977,0.287,-0.056,130.432,-3.418,-33.203
0.988,0.267,-0.020,133.057,-10.498,-30.334
0.984,0.236,-0.002,133.545,-18.982,-27.222
0.965,0.180,-0.001,130.554,-27.161,-23.071
0.932,0.141,-0.008,123.230,-33.936,-18.311
0.871,0.125,-0.029,112.732,-38.696,-14.221
0.796,0.108,-0.065,100.830,-39.673,-12.146
0.739,0.099,-0.109,88.440,-35.034,-12.878
0.676,0.105,-0.155,76.660,-24.597,-17.273
0.623,0.155,-0.181,67.627,-7.690,-25.330
0.683,0.226,-0.161,64.270,13.855,-33.875
0.754,0.258,-0.100,65.857,33.936,-40.588
0.811,0.231,-0.078,70.007,44.189,-46.326
0.891,0.216,-0.057,72.449,47.424,-50.537
0.952,0.212,-0.035,73.486,46.631,-53.894
1.023,0.228,-0.019,73.669,40.771,-53.650
1.064,0.184,-0.023,74.158,30.701,-49.377
1.079,0.148,-0.033,71.838,19.531,-44.250
1.069,0.145,-0.059,67.139,9.338,-40.039
1.043,0.144,-0.089,62.988,1.709,-36.682
1.002,0.136,-0.119,59.753,-2.441,-34.119
0.964,0.136,-0.129,57.068,-2.075,-33.691
0.942,0.132,-0.135,54.932,3.357,-34.790
0.942,0.143,-0.134,51.758,12.390,-35.950
0.943,0.151,-0.138,49.255,21.545,-36.743
0.953,0.160,-0.134,47.607,28.870,-37.476
0.969,0.170,-0.132,47.546,33.203,-37.842
0.998,0.186,-0.116,49.622,34.119,-38.330
1.030,0.193,-0.086,53.284,31.128,-39.063
1.055,0.190,-0.048,57.251,25.635,-39.917
1.090,0.184,-0.025,60.486,17.395,-39.612

1.663,0.503,1.393,164.795,-8.118,-23.865
2.018,0.254,2.046,212.402,-14.648,-13.489
2.449,-0.292,2.993,237.549,-29.297,27.161
2.189,-1.510,3.549,212.891,-62.927,101.746
1.320,-2.830,3.668,88.257,-107.422,149.597
0.826,-3.107,3.365,-130.920,-112.061,139.221
0.817,-2.842,2.740,-370.850,-76.477,129.333
0.471,-2.657,2.228,-556.458,-10.193,143.555
0.224,-2.229,1.703,-690.247,68.054,133.240
0.371,-1.900,1.152,-766.724,142.944,107.605
0.569,-1.860,0.636,-804.626,213.989,93.079
0.640,-1.883,0.150,-823.730,275.330,87.708
0.620,-1.955,-0.281,-833.252,326.172,90.088
0.388,-2.037,-0.609,-834.534,371.216,103.577
0.048,-2.051,-0.925,-827.026,408.142,122.803
0.054,-2.061,-1.132,-809.387,429.749,150.696
0.588,-2.088,-1.179,-784.058,406.982,199.890
0.979,-1.931,-1.145,-754.822,306.702,258.606
1.003,-1.709,-1.189,-706.299,155.640,299.866
0.834,-1.635,-1.221,-638.611,-2.991,323.181
0.614,-1.581,-1.430,-560.181,-152.344,332.275
0.252,-1.472,-1.818,-471.252,-278.748,329.529
-0.255,-1.462,-2.180,-373.779,-348.694,317.017
-0.614,-1.359,-2.329,-276.855,-347.534,287.109
-0.578,-1.188,-2.126,-189.880,-291.260,244.080
-0.212,-1.255,-1.840,-108.337,-212.341,193.970
0.236,-1.493,-1.613,-40.710,-137.146,138.489
0.544,-1.527,-1.472,1.831,-79.346,81.543
0.722,-1.523,-1.385,28.687,-40.771,28.442
0.838,-1.452,-1.292,45.410,-16.541,-16.602
0.906,-1.326,-1.192,55.359,-0.061,-49.988
0.937,-1.174,-1.099,62.073,7.812,-71.228
0.946,-0.998,-1.009,67.139,7.568,-81.970
0.955,-0.829,-0.904,70.496,2.930,-81.970
0.972,-0.682,-0.785,71.289,-5.676,-73.792
0.967,-0.549,-0.687,70.251,-17.822,-59.937
0.925,-0.447,-0.629,68.726,-28.503,-43.518
0.869,-0.353,-0.620,66.406,-36.743,-27.283
0.808,-0.289,-0.643,64.209,-40.039,-13.428
0.754,-0.233,-0.667,62.012,-37.048,-3.662
0.725,-0.190,-0.660,60.547,-29.236,1.343
0.717,-0.191,-0.636,60.364,-19.775,2.441
0.705,-0.219,-0.623,59.875,-10.498,0.610
0.692,-0.243,-0.631,58.594,-2.747,-3.235
0.689,-0.256,-0.637,56.335,3.967,-8.850
0.684,-0.258,-0.646,52.063,11.169,-15.686
0.685,-0.250,-0.650,48.279,17.883,-22.705
0.709,-0.231,-0.639,44.739,23.499,-29.358
0.738,-0.208,-0.621,41.809,28.076,-35.461
0.761,-0.183,-0.589,38.513,31.189,-40.771
0.779,-0.147,-0.564,34.790,33.142,-44.678
0.805,-0.113,-0.549,31.860,33.386,-47.119
0.820,-0.089,-0.549,30.090,32.227,-48.889
0.816,-0.082,-0.556,29.541,30.457,-49.561
0.814,-0.079,-0.572,30.273,29.480,-49.316
0.829,-0.096,-0.577,32.104,29.297,-48.584
0.859,-0.091,-0.570,33.203,29.724,-47.546
0.885,-0.101,-0.569,33.691,29.358,-46.875
0.900,-0.097,-0.578,34.668,28.137,-46.448
0.909,-0.070,-0.583,36.072,25.269,-46.448
0.910,-0.056,-0.592,39.490,21.423,-46.936
0.895,-0.070,-0.606,44.189,17.212,-47.852
0.893,-0.071,-0.613,49.194,14.343,-48.889
0.906,-0.073,-0.612,53.955,12.329,-50.232
0.905,-0.101,-0.619,59.265,10.559,-51.331
0.876,-0.152,-0.633,63.110,8.484,-51.758
0.862,-0.187,-0.629,64.941,6.836,-52.673
0.906,-0.115,-0.600,65.430,6.226,-55.725
0.939,-0.007,-0.563,67.749,5.981,-57.678
1.042,-0.010,-0.626,74.280,5.432,-55.298
1.017,-0.028,-0.587,79.956,8.057,-53.223
0.938,-0.026,-0.554,82.642,7.568,-51.331
0.935,-0.060,-0.583,85.693,5.371,-47.913
0.945,-0.097,-0.568,87.341,6.653,-43.884
0.987,-0.105,-0.554,86.975,6.958,-40.222
0.947,-0.085,-0.556,87.036,3.784,-37.109
0.900,-0.102,-0.564,87.830,-0.366,-32.593
0.874,-0.159,-0.582,88.928,-5.005,-28.503
0.824,-0.178,-0.621,89.294,-10.315,-28.748
0.759,-0.161,-0.637,90.332,-12.085,-28.931
0.768,-0.122,-0.643,92.529,-10.803,-28.076
0.817,-0.056,-0.595,97.717,-10.742,-30.151
0.937,0.012,-0.570,105.286,-15.686,-34.241
0.925,0.020,-0.561,114.197,-22.644,-35.950
0.867,-0.014,-0.556,121.765,-29.480,-34.912
0.838,-0.055,-0.556,126.343,-35.156,-33.142
0.827,-0.069,-0.545,128.174,-37.476,-29.663
0.850,-0.099,-0.542,128.479,-39.185,-23.437
0.855,-0.125,-0.544,127.319,-43.152,-15.747
0.822,-0.134,-0.561,125.061,-48.706,-8.179
