aX,aY,aZ,gX,gY,gZ
aX,aY,aZ,gX,gY,gZ
0.418,1.206,1.289,-112.549,50.415,-3.540
0.478,1.482,1.430,-118.774,53.894,-2.808
0.551,1.731,1.600,-122.925,57.190,2.258
0.550,1.862,1.744,-127.136,59.631,11.902
0.526,1.985,1.861,-136.902,63.110,24.902
0.476,2.053,1.947,-152.588,66.956,39.978
0.386,2.178,2.037,-173.462,69.153,56.152
0.240,2.340,2.117,-195.190,70.129,70.984
0.049,2.411,2.144,-215.027,70.374,85.876
-0.132,2.590,2.172,-232.361,70.557,100.037
-0.298,2.664,2.170,-243.591,72.144,111.145
-0.423,2.670,2.138,-250.488,75.317,121.277
-0.463,2.677,2.081,-252.441,80.688,126.465
-0.413,2.614,1.947,-245.972,84.717,125.610
-0.297,2.510,1.747,-234.009,82.458,119.446
-0.164,2.480,1.475,-217.957,69.763,106.812
0.020,2.399,1.128,-197.815,51.758,87.708
0.252,2.378,0.784,-176.697,34.302,66.711
0.537,2.271,0.498,-155.457,21.973,47.241
0.798,1.929,0.190,-136.536,12.207,30.090
0.832,1.566,-0.136,-127.502,4.456,14.282
0.851,1.284,-0.380,-130.676,1.648,5.615
0.931,1.024,-0.541,-142.578,-0.061,9.644
0.839,0.859,-0.688,-158.997,-10.498,21.240
0.585,0.731,-0.830,-173.584,-27.161,37.109
0.359,0.637,-0.915,-184.998,-39.673,59.692
0.199,0.578,-0.929,-186.768,-46.326,82.031
0.074,0.541,-0.863,-173.889,-50.781,96.252
-0.021,0.468,-0.738,-145.935,-56.458,100.403
-0.093,0.335,-0.605,-107.483,-65.552,95.154
-0.165,0.131,-0.526,-64.148,-77.759,80.566
-0.246,-0.110,-0.446,-22.522,-86.670,55.725
-0.300,-0.351,-0.339,16.541,-81.299,21.057
-0.298,-0.584,-0.246,48.584,-55.908,-17.151
-0.248,-0.784,-0.163,62.683,-15.686,-47.791
-0.161,-0.881,-0.066,53.894,33.142,-62.439
0.021,-0.894,0.015,27.588,81.360,-59.143
0.281,-0.845,0.099,-5.432,115.051,-41.992
0.505,-0.746,0.214,-35.645,126.038,-18.860
0.640,-0.649,0.336,-58.044,112.854,3.723
0.665,-0.582,0.394,-70.801,77.637,23.315
0.597,-0.540,0.383,-74.707,30.762,37.109
0.490,-0.516,0.331,-71.838,-15.015,44.922
0.368,-0.505,0.258,-63.538,-51.758,46.509
0.228,-0.507,0.182,-51.086,-74.890,42.236
0.097,-0.516,0.115,-36.865,-83.679,34.058
0.007,-0.547,0.069,-22.339,-79.773,24.475
-0.038,-0.574,0.049,-8.301,-66.040,14.587
-0.069,-0.589,0.050,4.028,-45.105,5.493
-0.061,-0.614,0.053,14.282,-19.653,-2.747
-0.011,-0.644,0.062,23.010,8.118,-10.803
0.042,-0.650,0.081,29.602,36.072,-18.860
0.103,-0.645,0.107,35.461,61.279,-25.696
0.167,-0.652,0.113,41.016,80.933,-31.555
0.210,-0.661,0.101,45.227,95.764,-36.804
0.229,-0.656,0.096,47.302,106.140,-40.833
0.231,-0.652,0.096,47.241,113.586,-41.992
0.245,-0.649,0.101,44.373,119.507,-39.612
0.276,-0.640,0.102,38.635,123.474,-35.095
0.295,-0.633,0.098,30.762,123.901,-29.358
0.309,-0.598,0.092,20.020,120.667,-21.912
0.322,-0.561,0.097,8.423,113.159,-13.123
0.348,-0.542,0.120,-3.296,101.990,-4.883
0.361,-0.505,0.124,-14.893,86.426,0.977
0.351,-0.438,0.134,-25.208,68.054,4.272
0.345,-0.392,0.138,-32.471,48.157,5.249
0.292,-0.360,0.090,-37.476,28.137,4.578
0.185,-0.255,0.036,-41.382,12.939,1.587
0.052,-0.117,-0.004,-43.335,5.859,-0.732
-0.087,-0.016,-0.062,-43.640,7.812,1.526
-0.230,0.117,-0.131,-46.387,19.775,10.254
-0.292,0.248,-0.169,-51.208,39.551,24.841
-0.253,0.325,-0.192,-55.542,61.218,42.847
-0.176,0.417,-0.200,-57.739,77.942,59.265
-0.116,0.522,-0.182,-56.885,84.595,71.167
-0.089,0.630,-0.180,-52.917,81.482,80.139
-0.098,0.814,-0.197,-46.448,71.045,86.121
-0.160,1.126,-0.181,-37.415,58.044,87.524
-0.229,1.445,-0.162,-21.729,46.082,81.604
-0.222,1.684,-0.208,-2.258,35.645,67.810
-0.126,1.928,-0.226,12.634,23.804,48.706
-0.026,2.143,-0.175,23.315,4.578,29.846
0.085,2.186,-0.141,35.217,-26.184,15.320
0.124,2.133,-0.134,48.706,-64.270,3.967
0.061,2.007,-0.134,63.049,-99.548,-2.563
-0.048,1.869,-0.116,75.684,-123.047,-2.747
-0.105,1.787,-0.110,84.473,-131.897,0.488
-0.205,1.813,-0.115,90.576,-126.953,3.418
-0.438,1.902,-0.178,96.985,-109.924,1.526
-0.569,2.035,-0.213,107.239,-74.890,-6.470
-0.593,2.105,-0.174,120.911,-26.550,-15.564
-0.550,2.066,-0.083,138.062,20.752,-22.644
-0.432,1.888,0.017,155.945,58.289,-28.625
-0.254,1.663,0.150,170.227,81.421,-36.560
-0.102,1.498,0.329,178.406,88.867,-50.171
0.022,1.501,0.505,177.917,81.238,-59.204
0.178,1.389,0.604,169.495,59.082,-50.171
0.321,1.177,0.645,151.794,28.198,-35.522
0.372,1.007,0.647,125.061,-4.333,-31.433
0.319,0.911,0.588,91.187,-33.813,-39.795
0.183,0.833,0.461,52.490,-55.542,-57.800
0.021,0.825,0.309,13.184,-64.209,-83.984
-0.115,0.918,0.180,-20.752,-57.190,-113.342
-0.260,0.998,0.044,-44.556,-36.926,-138.672
-0.339,1.104,-0.017,-56.885,-5.066,-159.058
-0.286,1.116,-0.060,-59.692,33.386,-171.631
-0.234,1.242,-0.031,-57.251,68.420,-183.960
0.191,1.557,0.080,-53.040,91.309,-185.303
0.310,1.205,0.050,-44.128,92.773,-167.786
0.314,1.194,-0.047,-44.617,77.454,-169.617
0.396,1.321,0.007,-45.044,62.073,-166.260
0.361,1.199,-0.150,-41.870,44.861,-153.503
0.306,1.115,-0.247,-37.598,35.156,-149.292
0.210,1.160,-0.260,-34.119,41.626,-156.433
0.182,1.444,-0.151,-26.184,52.307,-158.447
0.391,1.412,-0.250,-11.353,56.641,-141.296
0.302,1.058,-0.285,2.136,73.120,-135.620
0.312,1.328,-0.182,11.780,83.679,-156.555
0.528,1.201,-0.175,24.658,88.196,-151.306

0.949,1.930,-0.097,2.625,45.471,105.042
1.098,2.151,-0.063,6.409,33.691,114.746
1.197,2.359,-0.029,9.460,20.203,123.718
1.250,2.548,-0.017,9.216,4.761,132.935
1.202,2.744,-0.009,6.226,-5.798,140.442
1.075,2.861,-0.063,2.319,-7.507,146.790
1.050,3.094,-0.048,-2.136,4.700,154.114
1.056,3.009,-0.161,-2.197,26.184,166.870
1.105,3.105,-0.219,-0.732,54.199,171.997
1.102,3.234,-0.180,4.333,81.482,174.805
1.149,3.136,-0.270,17.883,92.102,191.956
1.230,3.105,-0.272,34.668,92.529,208.984
1.185,2.939,-0.337,53.162,81.055,223.633
0.943,2.828,-0.328,67.261,63.965,231.934
0.667,2.613,-0.279,77.942,44.067,242.798
0.388,2.389,-0.246,82.397,22.400,249.207
0.029,2.218,-0.178,77.271,1.099,248.230
-0.348,2.032,-0.160,65.369,-15.625,238.525
-0.672,1.820,-0.197,48.340,-23.376,219.788
-0.951,1.596,-0.252,28.320,-17.822,190.308
-1.131,1.457,-0.276,9.094,1.709,152.344
-1.118,1.330,-0.239,-6.287,28.687,114.441
-0.974,1.210,-0.197,-17.639,53.223,78.430
-0.793,1.094,-0.156,-23.865,68.665,45.471
-0.646,0.953,-0.116,-23.193,73.730,18.860
-0.548,0.813,-0.089,-18.005,69.885,-0.122
-0.495,0.672,-0.079,-11.230,61.890,-13.611
-0.476,0.510,-0.097,-3.052,54.077,-24.597
-0.470,0.380,-0.107,4.944,50.537,-33.752
-0.446,0.296,-0.101,12.329,51.453,-40.588
-0.405,0.198,-0.099,19.409,54.932,-44.189
-0.384,0.088,-0.125,24.292,59.265,-46.082
-0.361,-0.014,-0.129,24.109,67.139,-46.570
-0.281,-0.148,-0.072,18.433,77.942,-42.725
-0.206,-0.275,-0.023,7.874,86.548,-34.973
-0.156,-0.337,0.011,-5.920,90.820,-26.550
-0.092,-0.408,0.058,-19.592,92.407,-19.470
-0.030,-0.500,0.068,-31.860,91.431,-14.709
0.010,-0.565,0.061,-43.945,88.623,-12.207
0.045,-0.615,0.050,-55.298,82.886,-12.817
0.084,-0.650,0.036,-64.514,73.975,-18.372
0.120,-0.671,0.036,-70.190,62.378,-28.137
0.162,-0.719,0.041,-73.425,48.950,-39.795
0.266,-0.783,0.068,-74.707,33.569,-51.941
0.379,-0.830,0.101,-76.782,15.503,-62.500
0.448,-0.855,0.124,-79.895,-6.348,-69.824
0.486,-0.865,0.105,-80.627,-31.677,-72.693
0.500,-0.861,0.077,-77.942,-56.702,-72.937
0.495,-0.883,0.058,-71.777,-79.163,-73.608
0.519,-0.930,0.034,-62.012,-98.633,-77.087
0.552,-0.976,0.030,-49.805,-115.356,-84.473
0.592,-1.005,0.040,-37.292,-129.517,-92.590
0.648,-1.030,0.043,-27.832,-141.846,-95.154
0.701,-1.007,0.029,-23.071,-153.198,-88.440
0.718,-0.921,0.011,-21.301,-163.086,-75.806
0.711,-0.825,-0.022,-19.714,-169.861,-60.974
0.672,-0.734,-0.070,-19.287,-173.218,-45.776
0.623,-0.618,-0.118,-20.203,-172.546,-33.752
0.589,-0.448,-0.131,-21.729,-167.908,-26.367
0.569,-0.247,-0.127,-22.766,-161.377,-21.790
0.564,-0.011,-0.137,-23.804,-155.151,-18.738
0.473,0.309,-0.169,-28.381,-148.560,-16.663
0.302,0.635,-0.228,-36.194,-137.207,-11.841
0.134,0.931,-0.295,-44.495,-118.652,-0.854
0.027,1.128,-0.346,-50.232,-93.079,14.465
-0.018,1.248,-0.392,-52.185,-65.735,28.931
-0.037,1.305,-0.421,-50.049,-41.748,38.025
-0.091,1.340,-0.426,-44.617,-22.888,41.199
-0.116,1.301,-0.390,-36.560,-7.996,42.297
-0.107,1.218,-0.358,-29.297,0.732,43.030
-0.073,1.138,-0.331,-24.353,3.601,40.161
-0.067,1.139,-0.318,-24.353,2.014,31.677
-0.103,1.282,-0.384,-26.855,-0.977,21.790
-0.208,1.338,-0.462,-26.672,2.563,19.836
-0.239,1.401,-0.519,-22.034,14.771,19.165
-0.259,1.482,-0.522,-13.306,33.447,16.113
-0.216,1.522,-0.478,-0.549,53.589,13.123
-0.107,1.523,-0.402,13.306,67.871,10.925
0.015,1.458,-0.306,26.428,71.167,5.371
0.132,1.352,-0.204,37.415,64.087,-3.357
0.213,1.230,-0.131,43.396,49.011,-13.245
0.222,1.125,-0.109,44.067,31.372,-23.926
0.210,1.037,-0.121,40.649,18.738,-34.546
0.165,0.926,-0.158,35.889,15.320,-43.335
0.132,0.791,-0.209,28.015,20.264,-52.429
0.119,0.759,-0.230,16.724,30.212,-62.866
0.071,0.843,-0.291,6.714,40.771,-72.815
-0.090,0.675,-0.440,-0.793,53.223,-79.590
0.059,1.228,-0.366,-8.423,75.317,-96.008
0.279,1.143,-0.223,3.296,98.572,-89.539
0.377,0.963,-0.366,29.297,100.586,-84.656
0.588,1.070,-0.142,46.753,104.492,-88.867
0.569,1.054,-0.111,66.040,91.858,-80.566
0.614,1.089,-0.067,78.247,72.083,-62.500
0.569,0.979,-0.101,84.290,49.072,-34.668
0.510,0.947,-0.088,81.726,27.649,-8.911
0.427,0.875,-0.080,74.890,9.888,14.709
0.360,0.786,-0.088,65.735,-3.784,34.302
0.292,0.759,-0.069,55.359,-12.573,45.105
0.215,0.733,-0.072,48.096,-18.005,47.791
0.117,0.712,-0.131,42.847,-17.639,43.884
0.057,0.731,-0.181,37.109,-8.118,34.851
0.019,0.767,-0.198,32.593,8.972,23.071
-0.002,0.809,-0.232,30.334,30.334,11.169
0.016,0.882,-0.253,28.381,52.673,1.831
0.074,0.937,-0.238,27.649,71.838,-3.723
0.132,0.962,-0.217,28.931,83.923,-6.409
0.185,0.951,-0.184,32.471,88.440,-6.592
0.219,0.933,-0.154,36.194,86.914,-5.249
0.221,0.919,-0.122,39.063,80.566,-3.662
0.203,0.892,-0.090,42.297,72.083,-2.808
0.165,0.845,-0.100,45.288,65.063,-1.770
0.131,0.828,-0.101,44.312,61.340,-1.099
0.108,0.803,-0.092,41.382,60.486,-1.160
0.098,0.803,-0.097,36.743,61.890,-2.075
0.093,0.838,-0.104,30.701,64.758,-3.601
0.118,0.897,-0.087,23.621,67.749,-5.676
0.153,0.948,-0.054,18.616,69.214,-7.629
0.166,1.003,-0.029,16.846,68.176,-10.559

0.394,2.240,-0.392,-19.348,-28.748,9.216
0.522,2.525,-0.412,-14.832,-29.846,12.085
0.698,2.838,-0.417,-12.207,-33.813,18.311
0.834,3.042,-0.453,-8.667,-41.138,25.391
0.990,3.394,-0.449,-5.859,-50.720,31.128
1.116,3.631,-0.429,-0.549,-62.439,40.527
1.151,3.722,-0.435,8.179,-75.745,51.392
1.128,3.984,-0.371,16.541,-85.754,61.462
1.103,3.967,-0.348,27.588,-90.759,84.229
1.042,3.864,-0.357,38.269,-92.102,111.511
0.861,3.668,-0.393,43.335,-85.205,134.888
0.556,3.453,-0.439,43.030,-68.787,152.466
0.234,3.185,-0.516,37.537,-42.358,163.879
-0.012,3.002,-0.540,26.672,-6.470,166.809
-0.198,2.884,-0.411,14.404,27.710,165.466
-0.161,2.567,-0.491,5.493,41.260,170.288
-0.113,2.188,-0.490,-8.667,48.950,163.513
-0.243,2.052,-0.420,-22.827,51.086,135.986
-0.243,1.651,-0.414,-30.396,46.692,106.201
-0.381,1.607,-0.395,-35.645,38.635,71.838
-0.379,1.067,-0.531,-34.546,31.311,52.612
-0.593,1.168,-0.354,-31.311,31.006,23.254
-0.552,0.362,-0.826,-20.630,39.612,2.747
-1.037,-1.027,-2.129,-18.066,94.238,-58.472
-1.593,1.757,-0.206,-4.150,250.610,-200.562
-1.225,0.683,-0.133,44.556,304.993,-191.895
-0.496,0.738,-0.191,54.077,292.236,-156.738
0.015,0.246,-0.218,69.153,268.494,-131.531
0.170,-0.617,-0.704,88.074,229.431,-134.399
0.025,0.117,0.166,99.731,232.666,-184.082
-0.011,-0.371,-0.131,114.075,190.125,-177.368
-0.357,-0.462,-0.161,112.427,174.438,-171.936
-0.109,-0.510,0.265,104.431,176.636,-150.024
-0.070,-0.919,0.124,86.609,149.536,-117.004
-0.172,-0.920,0.224,59.753,121.582,-90.393
-0.115,-1.354,0.153,32.898,89.722,-49.255
-0.250,-1.558,0.109,3.601,58.899,-32.532
-0.383,-1.318,0.222,-22.522,34.302,-25.696
-0.369,-1.159,0.321,-43.457,-1.221,-3.235
-0.161,-1.444,0.172,-58.350,-45.959,25.391
-0.072,-1.810,0.019,-67.566,-83.008,32.837
-0.083,-1.745,0.011,-75.745,-103.943,10.376
-0.204,-1.628,-0.105,-80.444,-120.178,-11.108
-0.299,-1.537,-0.196,-84.778,-120.544,-30.640
-0.334,-1.443,-0.238,-86.182,-103.027,-47.546
-0.335,-1.364,-0.283,-83.984,-73.425,-60.364
-0.284,-1.243,-0.259,-78.979,-35.339,-71.655
-0.196,-1.139,-0.246,-69.031,4.211,-79.651
-0.062,-1.022,-0.194,-55.908,41.748,-85.022
0.078,-0.905,-0.138,-42.358,72.937,-83.984
0.241,-0.774,-0.081,-29.358,93.262,-76.660
0.406,-0.638,-0.019,-16.296,102.051,-65.552
0.547,-0.494,0.045,-3.967,98.083,-51.819
0.662,-0.347,0.092,7.568,82.520,-38.391
0.737,-0.267,0.116,16.235,58.228,-25.146
0.760,-0.199,0.114,20.630,29.480,-12.878
0.758,-0.129,0.102,19.104,2.319,-0.732
0.766,-0.078,0.094,12.573,-20.691,11.169
0.741,-0.004,0.078,3.113,-36.194,19.165
0.700,0.120,0.049,-7.629,-42.542,22.095
0.665,0.306,0.004,-18.005,-40.833,20.386
0.619,0.535,-0.051,-24.780,-32.532,14.465
0.543,0.737,-0.104,-24.719,-17.212,7.141
0.498,0.855,-0.121,-19.043,5.127,3.235
0.482,0.905,-0.117,-10.132,30.029,5.554
0.485,0.923,-0.103,1.221,50.476,13.428
0.522,0.928,-0.088,12.695,61.401,24.841
0.562,0.944,-0.084,24.109,60.364,35.583
0.550,0.995,-0.083,35.767,50.537,41.809
0.485,1.060,-0.091,48.096,38.757,43.274
0.365,1.146,-0.130,59.326,31.799,41.992
0.274,1.268,-0.160,65.979,32.654,39.978
0.231,1.388,-0.151,70.190,40.405,35.950
0.222,1.453,-0.121,74.463,50.415,29.907
0.119,1.226,-0.184,78.064,60.059,20.203
0.154,1.407,0.043,76.843,72.632,-2.441
0.231,1.326,0.064,77.881,75.439,-15.259
0.332,1.290,0.051,76.416,68.542,-23.865
0.427,1.349,0.057,66.711,57.617,-32.898
0.534,1.445,0.066,53.040,39.734,-35.278
0.626,1.458,0.071,39.185,15.564,-28.748
0.641,1.460,0.071,27.466,-13.123,-18.494
0.615,1.450,0.090,19.897,-42.603,-7.996
0.529,1.385,0.087,17.700,-70.129,1.038
0.425,1.276,0.052,19.226,-90.576,6.897
0.366,1.205,0.027,21.729,-100.098,6.897
0.314,1.205,0.010,25.696,-99.060,-0.061
0.313,1.243,0.010,30.457,-90.149,-10.559
0.371,1.338,-0.003,35.095,-78.125,-23.376
0.399,1.440,0.038,38.818,-65.613,-35.278
0.370,1.460,0.072,42.603,-57.312,-39.063
0.371,1.406,0.099,44.250,-52.551,-33.325
0.400,1.334,0.127,41.931,-49.927,-22.156
0.385,1.240,0.165,36.072,-51.086,-10.864
0.356,1.128,0.175,27.710,-54.993,-3.235
0.334,1.062,0.135,16.602,-58.899,-0.366
0.300,1.045,0.147,5.188,-58.289,-5.737
0.240,1.200,0.190,-4.761,-55.298,-17.456
0.250,1.110,0.155,-10.193,-55.542,-22.339
0.232,1.145,0.109,-16.479,-53.772,-32.715
0.180,1.212,0.074,-24.353,-50.842,-43.884
0.170,1.253,0.042,-32.654,-47.424,-51.147
0.212,1.163,-0.022,-39.734,-45.654,-52.917
0.260,1.177,-0.035,-48.157,-43.457,-58.105
0.251,1.192,-0.047,-53.650,-42.297,-65.308
0.253,1.224,-0.069,-55.969,-41.138,-69.214
0.271,1.238,-0.078,-54.504,-36.682,-68.481
0.278,1.246,-0.090,-49.500,-29.602,-66.711
0.300,1.218,-0.101,-41.504,-19.226,-65.979
0.322,1.164,-0.112,-33.569,-7.568,-65.796
0.366,1.165,-0.099,-28.198,4.272,-67.261
0.413,1.199,-0.069,-24.719,13.245,-68.115
0.434,1.203,-0.041,-21.484,17.212,-65.918
0.450,1.183,-0.027,-19.836,16.724,-60.730
0.467,1.145,-0.025,-19.836,12.329,-54.199
0.482,1.094,-0.047,-22.217,4.028,-47.729
0.449,1.054,-0.089,-26.611,-6.348,-43.518
0.401,1.038,-0.140,-32.227,-16.113,-41.748
0.361,1.035,-0.183,-36.316,-22.827,-42.480

1.062,2.045,-0.102,-27.771,-33.936,25.330
1.190,2.326,-0.117,-26.306,-34.851,28.259
1.338,2.615,-0.124,-23.499,-33.875,32.837
1.461,2.905,-0.132,-19.165,-32.043,39.246
1.571,3.200,-0.122,-14.221,-29.175,48.035
1.663,3.472,-0.122,-10.254,-25.635,60.486
1.722,3.708,-0.109,-8.118,-22.705,74.097
1.762,3.854,-0.091,-6.531,-19.592,85.999
1.740,3.902,-0.092,-6.226,-17.517,93.140
1.692,3.826,-0.106,-7.690,-15.930,94.238
1.664,3.713,-0.124,-10.986,-12.390,89.905
1.561,3.518,-0.146,-17.029,-7.263,82.458
1.456,3.342,-0.180,-23.682,-1.343,75.378
1.345,3.128,-0.205,-29.846,6.348,74.463
1.188,2.859,-0.284,-36.316,12.939,82.214
1.060,2.626,-0.364,-45.166,20.081,91.003
0.873,2.310,-0.440,-51.392,30.090,95.337
0.680,1.969,-0.537,-55.908,43.518,91.919
0.488,1.729,-0.592,-60.120,63.293,81.238
0.357,1.539,-0.576,-60.364,85.938,71.472
0.327,1.326,-0.531,-52.979,104.126,64.575
0.321,1.060,-0.487,-37.048,113.647,56.274
0.289,0.863,-0.414,-17.517,114.929,43.945
0.246,0.728,-0.345,4.272,108.582,31.921
0.225,0.646,-0.298,27.527,96.497,24.475
0.209,0.448,-0.266,49.072,82.886,23.682
0.264,0.454,-0.070,67.017,67.261,21.912
0.292,0.228,-0.091,82.275,40.283,24.231
0.196,0.175,-0.088,88.562,13.550,22.034
0.077,0.110,-0.052,89.355,-7.568,23.132
0.006,0.031,-0.032,86.426,-25.146,25.208
-0.051,-0.124,-0.058,81.848,-39.490,30.884
-0.156,-0.310,-0.097,72.754,-45.410,34.241
-0.247,-0.432,-0.119,59.814,-42.969,32.898
-0.302,-0.543,-0.145,45.715,-33.081,29.602
-0.323,-0.631,-0.153,33.020,-17.639,24.231
-0.323,-0.719,-0.156,24.353,1.282,15.503
-0.313,-0.809,-0.165,17.212,21.484,4.211
-0.302,-0.886,-0.188,10.010,41.199,-10.071
-0.268,-0.938,-0.202,2.625,60.913,-25.696
-0.206,-0.987,-0.208,-5.615,77.637,-40.466
-0.086,-1.030,-0.166,-12.146,89.661,-54.871
0.079,-1.081,-0.094,-16.785,93.079,-68.359
0.228,-1.120,-0.029,-18.921,85.449,-82.031
0.361,-1.160,0.016,-18.982,67.444,-95.825
0.460,-1.166,0.029,-18.433,39.795,-105.835
0.554,-1.166,0.030,-18.066,6.653,-108.154
0.646,-1.149,0.034,-17.700,-31.494,-103.210
0.793,-1.183,0.030,-14.954,-119.019,-81.421
0.883,-1.122,0.049,-9.766,-161.987,-73.303
0.951,-1.023,0.038,-0.977,-206.482,-64.758
0.973,-0.928,0.005,10.315,-248.596,-54.199
0.901,-0.843,-0.044,22.644,-285.889,-39.612
0.777,-0.787,-0.082,33.081,-313.904,-21.973
0.627,-0.776,-0.109,40.161,-329.041,-3.235
0.312,-0.726,-0.159,40.833,-329.590,15.137
-0.107,-0.660,-0.188,33.630,-310.242,32.593
-0.427,-0.544,-0.149,18.921,-267.090,49.377
-0.626,-0.341,-0.102,-0.732,-205.688,63.049
-0.705,-0.079,-0.053,-23.376,-136.658,73.914
-0.711,0.186,-0.035,-46.326,-70.679,80.383
-0.698,0.486,-0.092,-70.313,-14.709,82.031
-0.819,0.733,-0.279,-97.107,31.738,82.031
-0.827,0.918,-0.340,-127.075,77.637,76.782
-0.571,0.881,-0.330,-153.381,117.065,74.707
-0.233,0.562,-0.302,-170.166,139.038,71.960
0.002,0.373,-0.241,-180.664,142.822,59.937
0.219,0.370,-0.116,-183.655,133.301,48.340
0.310,0.387,-0.041,-172.058,114.563,41.443
0.245,0.474,0.026,-148.376,97.351,42.542
0.161,0.552,0.060,-114.563,89.661,56.580
0.091,0.572,0.065,-73.425,97.473,77.271
0.081,0.630,0.135,-31.738,117.554,97.900
0.135,0.734,0.242,6.104,139.343,113.403
0.252,0.783,0.365,37.598,151.001,122.131
0.339,0.795,0.454,60.669,145.813,122.620
0.416,0.743,0.544,73.914,127.319,113.708
0.424,0.737,0.623,78.491,100.769,95.459
0.318,0.756,0.631,76.416,70.679,76.294
0.124,0.775,0.513,69.275,45.166,62.195
-0.083,0.983,0.376,58.472,35.278,47.180
-0.171,1.094,0.211,49.622,42.297,34.363
-0.192,1.125,0.055,42.786,60.364,16.296
-0.250,1.203,-0.001,37.109,83.374,-7.874
-0.201,1.258,-0.065,33.752,101.929,-25.757
-0.117,1.200,-0.117,30.762,115.540,-37.292
-0.008,1.176,-0.127,26.367,122.314,-45.898
0.141,1.297,-0.024,23.560,121.887,-52.734
0.244,1.440,0.059,28.137,110.413,-55.664
0.314,1.542,0.084,35.339,88.806,-51.514
0.316,1.561,0.049,39.856,62.256,-41.931
0.268,1.587,-0.026,38.452,36.255,-27.710
0.221,1.549,-0.041,33.020,16.968,-9.399
0.129,1.436,-0.096,27.893,4.517,6.592
0.002,1.357,-0.156,20.020,1.282,18.555
-0.108,1.248,-0.205,9.460,8.423,24.719
-0.154,1.160,-0.239,0.000,25.208,22.217
-0.250,1.085,-0.219,-7.446,50.476,9.277
-0.296,1.512,-0.107,-12.207,76.660,-9.521
-0.244,1.431,-0.074,-8.057,98.022,-6.287
-0.057,1.368,-0.088,-1.343,111.023,-0.610
0.001,1.500,-0.084,2.869,117.493,-8.362
0.016,1.658,-0.009,6.287,116.821,-17.578
0.048,1.637,-0.016,10.193,105.469,-17.151
0.054,1.553,-0.026,9.705,88.440,-15.137
0.032,1.427,-0.056,3.113,69.702,-14.893
-0.019,1.269,-0.120,-9.216,52.063,-18.921
-0.075,1.187,-0.173,-27.161,40.222,-28.564
-0.115,1.196,-0.197,-46.936,34.119,-42.664
-0.121,1.262,-0.198,-64.087,32.104,-57.861
-0.076,1.335,-0.213,-75.623,30.518,-71.899
0.006,1.423,-0.221,-80.750,27.344,-83.740
0.064,1.529,-0.204,-79.102,22.278,-92.896
0.114,1.580,-0.196,-71.167,13.550,-98.267
0.162,1.552,-0.219,-59.265,2.563,-99.670
0.185,1.498,-0.231,-47.180,-7.141,-98.999
0.186,1.398,-0.250,-37.170,-15.869,-96.252
0.201,1.311,-0.270,-30.640,-22.156,-92.285
0.242,1.289,-0.245,-28.320,-24.719,-89.111

0.733,1.878,-0.229,-0.854,27.954,22.400
0.795,2.069,-0.286,-3.540,29.663,26.489
0.864,2.305,-0.355,-7.080,32.043,30.701
0.955,2.517,-0.409,-8.484,34.485,35.645
1.023,2.705,-0.459,-7.019,35.645,40.039
1.071,2.864,-0.478,-2.380,35.217,44.312
1.099,2.938,-0.475,5.310,33.020,49.561
1.085,3.011,-0.477,14.587,28.748,54.565
0.991,3.053,-0.495,23.804,23.437,59.204
0.884,3.095,-0.480,33.081,19.653,64.880
0.718,3.105,-0.490,41.504,17.395,72.266
0.503,3.018,-0.515,46.875,17.456,79.163
0.298,2.885,-0.522,49.011,22.644,84.229
0.115,2.707,-0.552,46.631,32.349,85.144
-0.002,2.692,-0.502,39.734,47.058,81.238
-0.027,2.263,-0.567,34.424,60.974,78.430
-0.041,2.108,-0.527,24.109,72.021,60.669
-0.057,1.901,-0.509,12.329,80.383,37.109
-0.019,1.628,-0.468,1.465,82.153,8.789
-0.069,1.583,-0.339,-7.629,80.200,-20.935
-0.072,1.360,-0.483,-8.911,68.176,-33.264
0.026,1.257,-0.239,-9.827,56.091,-39.429
0.075,1.091,-0.329,-2.991,32.593,-38.086
0.059,0.900,-0.315,4.333,12.390,-32.654
0.034,0.727,-0.287,13.916,-5.737,-25.940
-0.049,0.460,-0.391,23.987,-22.888,-19.165
-0.191,0.216,-0.486,30.579,-27.710,-20.447
-0.267,0.148,-0.527,34.912,-16.357,-28.870
-0.281,0.053,-0.581,40.222,4.333,-34.851
-0.224,0.004,-0.593,43.884,33.081,-36.804
-0.139,-0.022,-0.594,43.884,63.171,-29.358
-0.027,-0.072,-0.582,42.908,89.111,-14.771
0.118,-0.111,-0.531,41.199,109.863,5.005
0.267,-0.108,-0.436,38.940,122.009,27.893
0.384,-0.137,-0.351,38.330,120.850,49.988
0.461,-0.240,-0.296,41.260,108.093,63.232
0.510,-0.330,-0.224,44.189,89.417,62.927
0.555,-0.405,-0.145,45.288,66.711,50.232
0.612,-0.488,-0.072,43.335,39.734,32.227
0.641,-0.587,-0.022,37.659,9.827,13.000
0.599,-0.629,-0.005,26.428,-19.043,-2.319
0.533,-0.643,-0.027,10.986,-44.128,-7.324
0.452,-0.667,-0.088,-6.042,-61.096,-2.808
0.361,-0.612,-0.142,-22.583,-66.772,5.432
0.286,-0.554,-0.198,-34.241,-63.232,16.174
0.222,-0.536,-0.239,-38.818,-53.650,24.719
0.187,-0.507,-0.253,-37.537,-39.917,28.809
0.167,-0.477,-0.241,-31.067,-26.001,28.931
0.176,-0.472,-0.214,-21.606,-15.198,27.893
0.222,-0.470,-0.179,-10.315,-9.583,26.428
0.223,-0.451,-0.137,1.465,-9.644,24.963
0.245,-0.443,-0.088,13.306,-14.221,25.574
0.279,-0.466,-0.061,24.536,-23.437,28.870
0.254,-0.486,-0.055,33.386,-34.302,33.142
0.217,-0.501,-0.060,38.696,-43.091,38.452
0.144,-0.522,-0.087,40.649,-47.485,42.969
0.062,-0.513,-0.095,39.917,-45.105,45.654
0.012,-0.477,-0.084,37.720,-35.767,46.143
0.014,-0.439,-0.038,36.133,-24.109,44.922
0.112,-0.426,0.052,35.583,-14.343,41.992
0.219,-0.390,0.142,35.278,-11.902,37.720
0.311,-0.376,0.241,34.119,-17.578,32.715
0.378,-0.401,0.308,30.823,-31.677,29.724
0.378,-0.418,0.350,24.170,-48.096,29.968
0.328,-0.376,0.380,15.076,-62.195,32.471
0.202,-0.278,0.379,5.859,-70.129,37.048
0.041,-0.198,0.352,-0.488,-68.298,43.274
-0.113,-0.146,0.313,-1.709,-52.979,47.668
-0.297,-0.091,0.218,2.930,-23.682,47.791
-0.444,-0.002,0.129,8.728,17.212,44.922
-0.433,0.086,0.111,16.174,64.697,41.565
-0.333,0.188,0.137,27.710,107.727,36.255
-0.252,0.299,0.184,42.969,140.076,26.794
-0.163,0.394,0.227,56.885,160.950,16.235
-0.084,0.528,0.268,67.505,170.959,7.812
-0.002,0.742,0.323,72.693,171.997,1.587
0.107,0.944,0.396,72.449,162.354,-1.526
0.222,1.049,0.467,68.359,141.174,-2.747
0.310,1.106,0.535,60.791,111.145,-5.188
0.345,1.201,0.589,49.011,74.890,-9.216
0.341,1.372,0.590,33.752,35.400,-12.939
0.337,1.528,0.554,16.418,-2.014,-17.944
0.338,1.641,0.496,0.732,-33.569,-24.536
0.300,1.679,0.397,-14.282,-60.181,-32.715
0.292,1.637,0.298,-29.236,-79.773,-42.725
0.381,1.616,0.252,-42.786,-92.407,-52.246
0.414,1.561,0.214,-52.979,-104.553,-60.730
0.391,1.472,0.143,-58.899,-115.967,-68.054
0.333,1.490,0.023,-61.462,-120.911,-76.843
0.213,1.548,-0.058,-60.974,-113.525,-87.585
0.130,1.569,-0.107,-56.824,-94.543,-94.666
0.113,1.564,-0.144,-51.025,-69.031,-98.999
0.187,1.508,-0.183,-49.561,-41.260,-104.980
0.313,1.485,-0.185,-54.810,-15.625,-113.770
0.460,1.493,-0.115,-65.979,0.366,-122.437
0.648,1.492,-0.032,-77.942,1.587,-128.113
0.856,1.462,0.011,-89.661,-15.320,-130.676
0.964,1.509,-0.017,-101.013,-48.340,-131.104
0.985,1.605,-0.065,-111.084,-90.698,-125.122
0.852,1.684,-0.162,-114.624,-134.155,-111.694
0.658,1.725,-0.271,-109.802,-168.579,-96.680
0.545,1.623,-0.407,-99.243,-185.364,-85.999
0.363,1.432,-0.568,-90.210,-183.167,-89.172
0.250,1.591,-0.521,-89.844,-162.109,-110.779
0.317,1.502,-0.531,-87.891,-135.925,-119.446
0.462,1.423,-0.488,-83.862,-109.131,-122.803
0.548,1.443,-0.404,-81.299,-87.769,-122.498
0.644,1.507,-0.312,-79.712,-79.224,-116.577
0.672,1.542,-0.266,-74.280,-82.092,-109.070
0.646,1.518,-0.272,-65.308,-90.027,-100.281
0.653,1.446,-0.316,-57.373,-96.863,-89.478
0.612,1.366,-0.382,-52.307,-99.121,-81.665
0.537,1.325,-0.456,-51.880,-93.872,-76.477
0.491,1.381,-0.476,-52.673,-80.200,-71.228
0.473,1.325,-0.512,-49.500,-62.317,-63.904
0.497,1.345,-0.506,-41.626,-44.800,-61.462
0.533,1.320,-0.471,-29.846,-31.128,-61.218
0.627,1.297,-0.408,-15.808,-24.841,-60.181
0.686,1.233,-0.375,-3.540,-26.123,-55.359

0.827,1.654,-0.328,-76.599,94.482,72.388
0.900,1.722,-0.373,-76.355,110.840,75.378
0.970,1.792,-0.433,-75.562,126.282,73.975
0.999,1.944,-0.526,-73.547,140.747,67.322
1.110,2.141,-0.645,-66.711,154.785,56.885
1.282,2.367,-0.700,-53.040,162.170,46.387
1.446,2.533,-0.722,-32.776,155.823,37.659
1.532,2.615,-0.749,-10.437,138.245,32.532
1.540,2.650,-0.789,8.972,117.859,32.104
1.560,2.667,-0.798,25.696,102.051,35.583
1.516,2.671,-0.804,41.565,90.698,39.856
1.450,2.672,-0.818,57.922,83.740,44.800
1.426,2.618,-0.799,75.073,80.688,52.368
1.393,2.439,-0.793,90.515,76.782,61.340
1.332,2.296,-0.807,97.534,68.970,68.848
1.157,2.247,-0.781,92.651,58.350,74.402
0.909,2.202,-0.806,81.238,46.204,83.069
0.700,2.225,-0.831,66.162,35.583,93.811
0.488,2.211,-0.808,48.706,27.954,103.088
0.295,2.096,-0.774,31.738,17.944,109.192
0.148,1.948,-0.772,13.123,2.319,107.422
-0.003,1.806,-0.779,-9.277,-19.226,92.712
-0.201,1.692,-0.845,-31.738,-43.213,67.139
-0.379,1.659,-0.926,-46.936,-61.768,38.940
-0.508,1.638,-0.972,-52.002,-70.007,15.869
-0.585,1.571,-0.982,-45.776,-68.237,2.014
-0.607,1.475,-0.958,-30.518,-61.279,-2.930
-0.631,1.294,-0.893,-9.155,-54.749,-3.418
-0.648,1.007,-0.803,14.587,-52.490,-3.296
-0.700,0.732,-0.725,37.354,-55.359,-7.324
-0.809,0.495,-0.682,54.565,-58.960,-18.677
-0.866,0.218,-0.631,63.904,-55.420,-31.006
-0.840,-0.018,-0.568,64.270,-42.114,-42.908
-0.778,-0.219,-0.474,59.814,-23.926,-54.810
-0.665,-0.450,-0.346,54.626,-4.272,-63.965
-0.544,-0.589,-0.154,51.575,15.686,-68.787
-0.447,-0.704,0.056,52.490,35.339,-64.697
-0.379,-0.779,0.302,59.448,53.528,-50.842
-0.228,-0.993,0.516,75.073,67.871,-30.518
-0.023,-1.303,0.666,92.957,72.876,-11.841
0.222,-1.672,0.795,106.445,66.833,-3.845
0.511,-2.063,0.890,111.816,46.326,-8.728
0.785,-2.387,0.964,104.675,11.108,-28.259
0.996,-2.537,1.011,84.412,-34.485,-60.425
1.187,-2.484,0.991,54.626,-88.501,-99.609
1.517,-2.092,1.072,18.677,-145.813,-139.832
1.651,-1.843,0.920,-12.634,-209.045,-158.691
1.731,-1.323,0.784,-36.865,-268.066,-161.682
1.486,-1.029,0.550,-53.528,-311.279,-143.677
1.153,-0.996,0.228,-66.467,-320.862,-108.337
0.678,-0.986,-0.011,-81.726,-286.560,-72.754
0.209,-1.272,-0.435,-100.769,-211.548,-38.208
-0.258,-0.326,-0.413,-125.977,-100.769,-24.170
-0.222,-0.271,-0.395,-141.296,13.672,12.146
0.227,-0.630,-0.488,-134.949,113.708,48.706
0.244,-0.407,-0.388,-120.667,186.401,40.100
0.378,-0.068,-0.081,-98.145,221.130,36.133
0.562,-0.058,0.034,-63.110,214.111,47.302
0.534,0.162,0.364,-25.024,183.777,60.181
0.488,0.110,0.544,13.550,131.531,83.923
0.439,-0.029,0.611,44.983,66.650,107.666
0.257,-0.265,0.624,60.669,7.202,125.183
0.047,-0.465,0.534,56.763,-34.973,132.629
-0.113,-0.585,0.388,34.180,-49.744,129.395
-0.242,-0.525,0.324,3.357,-31.799,113.525
-0.325,-0.498,0.244,-22.949,10.315,94.482
-0.366,-0.422,0.161,-38.696,69.275,75.867
-0.365,-0.186,0.107,-41.687,138.367,58.777
-0.294,0.018,0.069,-30.090,202.759,50.964
-0.145,0.220,0.087,-7.202,251.221,51.086
-0.006,0.436,0.180,23.926,278.320,56.702
0.164,0.616,0.356,58.777,280.212,69.092
0.215,0.628,0.461,91.187,255.920,85.022
0.104,0.510,0.467,111.267,215.576,97.290
0.015,0.481,0.473,113.770,176.453,104.309
-0.135,0.458,0.465,103.027,147.461,104.492
-0.291,0.607,0.435,84.961,131.470,96.130
-0.351,0.762,0.329,64.941,129.456,85.754
-0.358,0.982,0.226,44.006,138.245,72.266
-0.332,1.212,0.156,26.550,151.184,55.176
-0.266,1.366,0.069,15.320,161.743,38.757
-0.211,1.527,-0.095,6.409,167.114,22.522
-0.149,1.682,-0.245,-4.578,168.335,7.874
-0.080,1.785,-0.355,-15.991,164.490,-0.488
-0.046,1.778,-0.462,-24.353,153.381,-1.221
-0.001,1.768,-0.520,-29.785,135.925,4.395
0.059,1.764,-0.498,-31.860,112.610,15.747
0.085,1.824,-0.438,-26.062,82.947,29.358
0.011,1.931,-0.404,-9.033,49.866,41.809
-0.093,2.074,-0.424,17.578,21.240,51.819
-0.200,2.111,-0.409,48.462,4.211,58.472
-0.347,2.000,-0.405,78.674,-1.404,63.232
-0.484,1.826,-0.393,99.854,4.456,66.589
-0.572,1.633,-0.330,107.422,20.508,67.993
-0.673,1.520,-0.274,104.187,42.969,63.599
-0.762,1.440,-0.200,96.680,72.144,54.626
-0.816,1.367,-0.120,86.914,103.882,45.227
-0.824,1.338,-0.063,76.843,133.057,34.485
-0.750,1.388,0.008,66.650,157.776,19.836
-0.667,1.466,0.099,57.251,173.279,0.061
-0.563,1.511,0.180,49.866,175.781,-22.583
-0.435,1.517,0.286,43.701,165.955,-45.288
-0.373,1.477,0.393,40.222,144.836,-65.796
-0.339,1.368,0.468,38.635,115.540,-83.008
-0.356,1.253,0.508,36.194,85.632,-97.534
-0.378,1.193,0.551,32.166,60.669,-110.413
-0.411,1.128,0.570,27.344,40.955,-121.704
-0.452,1.078,0.560,20.691,26.367,-132.690
-0.476,0.953,0.500,10.681,17.334,-143.677
-0.449,0.863,0.392,-3.540,15.015,-158.020
-0.354,0.842,0.342,-22.156,21.912,-178.040
-0.150,0.814,0.296,-40.771,30.518,-195.679
0.056,0.812,0.241,-59.448,35.950,-204.346
0.254,0.828,0.212,-76.050,37.781,-201.599
0.378,0.833,0.154,-88.074,33.875,-191.467
0.428,0.828,0.097,-95.764,27.649,-178.894
0.449,0.824,0.044,-98.633,23.376,-168.884
0.504,0.818,-0.005,-97.595,23.315,-163.208
0.595,0.814,-0.058,-95.093,24.597,-160.828

0.530,1.248,-1.131,65.186,158.691,-3.845
0.558,1.412,-1.250,76.843,169.250,3.479
0.620,1.553,-1.397,89.722,183.044,12.146
0.762,1.697,-1.576,102.295,200.500,18.127
0.966,1.951,-1.755,113.403,221.741,23.315
1.175,2.236,-1.938,124.512,243.774,31.738
1.360,2.538,-2.100,137.573,265.686,44.800
1.579,2.870,-2.254,151.245,288.086,61.768
1.912,3.104,-2.399,164.062,304.199,80.811
2.227,3.261,-2.553,175.964,304.749,97.229
2.409,3.394,-2.713,188.965,289.490,108.765
2.473,3.418,-2.851,205.139,265.503,118.347
2.501,3.377,-2.922,227.356,242.432,125.244
2.496,3.227,-2.888,255.005,223.816,127.258
2.463,2.980,-2.747,285.461,210.876,125.977
2.440,2.749,-2.435,313.171,203.796,122.742
2.352,2.524,-2.022,333.374,196.106,117.493
2.162,2.302,-1.580,341.553,182.800,112.366
1.903,2.026,-1.143,333.252,166.443,110.229
1.521,1.698,-0.763,306.702,151.123,109.924
1.075,1.365,-0.494,266.052,143.555,108.276
0.722,1.213,-0.275,218.445,149.414,98.267
0.521,1.055,-0.121,172.729,165.039,86.914
0.449,0.959,-0.025,133.301,179.871,73.425
0.435,0.828,0.050,103.210,187.927,55.664
0.420,0.673,0.068,82.153,184.875,35.278
0.424,0.612,0.077,69.580,171.448,16.663
0.431,0.546,0.078,68.665,150.452,2.686
0.398,0.407,0.029,76.599,124.146,-6.165
0.360,0.253,-0.019,87.891,97.656,-14.893
0.346,0.096,-0.049,99.182,74.097,-22.766
0.336,-0.051,-0.027,105.103,52.307,-29.968
0.419,-0.018,0.083,102.478,29.297,-33.752
0.174,-0.311,-0.038,93.811,-1.465,-24.841
0.218,-0.290,0.172,76.904,-15.381,-24.658
0.035,-0.590,0.038,62.927,-25.391,-29.724
0.047,-0.706,0.065,46.265,-35.034,-45.349
-0.078,-0.767,-0.069,31.128,-37.659,-62.500
0.040,-0.661,-0.060,21.729,-36.255,-76.416
0.057,-0.813,-0.170,22.156,-33.691,-82.947
0.125,-0.920,-0.234,24.353,-33.875,-95.154
-0.003,-1.045,-0.384,25.574,-28.625,-110.046
0.375,-0.895,-0.029,26.428,-17.273,-119.812
0.606,-1.201,-0.176,29.297,-36.255,-118.286
0.763,-1.491,-0.128,23.071,-58.105,-121.521
0.886,-1.656,-0.136,11.414,-85.144,-123.779
0.961,-1.804,-0.187,-7.690,-113.770,-121.277
0.976,-1.843,-0.205,-34.485,-137.146,-114.197
1.021,-1.724,-0.264,-64.087,-159.485,-96.985
0.995,-1.687,-0.408,-91.309,-179.199,-68.848
0.905,-1.618,-0.507,-113.831,-185.852,-47.607
0.784,-1.343,-0.629,-127.197,-180.115,-36.377
0.683,-1.102,-0.579,-130.371,-161.804,-21.240
0.621,-1.059,-0.620,-123.718,-137.085,-1.892
0.385,-0.839,-0.635,-110.962,-102.722,13.672
0.187,-0.596,-0.483,-92.529,-53.467,38.208
0.130,-0.536,-0.356,-66.895,-6.104,66.589
0.179,-0.459,-0.148,-39.185,36.865,89.844
0.217,-0.755,-0.033,-14.771,67.932,110.229
0.232,-0.690,0.252,-5.554,84.045,111.267
0.256,-0.605,0.423,-5.737,76.172,117.737
0.386,-0.851,0.561,-15.625,50.659,132.080
0.363,-0.910,0.558,-37.292,12.024,131.104
0.155,-0.811,0.473,-68.481,-26.733,117.249
-0.020,-0.828,0.283,-101.685,-50.537,104.614
-0.219,-0.746,0.081,-132.385,-48.401,86.792
-0.317,-0.599,-0.072,-152.222,-21.240,69.702
-0.286,-0.345,-0.167,-158.508,22.278,52.307
-0.166,-0.053,-0.162,-147.583,70.557,36.316
-0.026,0.060,-0.204,-121.948,111.816,23.682
0.139,0.402,-0.003,-86.853,141.846,7.385
0.322,0.556,0.155,-39.246,149.841,4.517
0.471,0.609,0.320,10.742,134.155,11.658
0.556,0.587,0.495,54.260,102.600,27.649
0.559,0.460,0.540,88.440,61.218,46.692
0.366,0.450,0.538,103.638,25.879,62.561
0.104,0.554,0.578,103.821,7.141,74.280
-0.085,0.644,0.527,98.999,5.066,80.322
-0.200,0.765,0.478,89.722,20.569,72.632
-0.206,1.000,0.431,75.989,47.974,50.110
-0.100,1.299,0.385,58.716,77.209,20.020
0.051,1.488,0.326,39.917,99.182,-6.897
0.129,1.641,0.248,21.423,110.291,-25.146
0.184,1.725,0.172,3.601,110.474,-30.457
0.246,1.677,0.056,-13.184,99.487,-22.644
0.323,1.645,-0.046,-28.870,80.261,-9.033
0.362,1.772,-0.134,-41.016,52.917,3.540
0.386,1.859,-0.263,-46.448,17.517,17.761
0.365,1.773,-0.432,-44.617,-20.691,32.532
0.286,1.561,-0.600,-40.222,-53.711,40.527
0.140,1.408,-0.767,-38.452,-73.853,32.043
-0.027,1.343,-0.819,-41.382,-73.181,8.301
-0.082,1.431,-0.809,-45.349,-53.894,-18.311
-0.042,1.583,-0.733,-49.683,-25.696,-34.119
0.155,1.555,-0.626,-51.270,-1.831,-32.166
0.358,1.599,-0.499,-51.147,9.338,-25.330
0.478,1.628,-0.370,-52.856,2.686,-16.968
0.564,1.482,-0.327,-56.152,-22.217,-5.005
0.509,1.330,-0.422,-66.284,-59.998,0.610
0.389,1.481,-0.474,-86.426,-96.741,-5.981
0.242,1.675,-0.506,-104.797,-126.587,-9.644
0.244,1.537,-0.666,-109.558,-146.851,-1.953
0.173,1.616,-0.737,-109.131,-152.832,-4.883
0.074,1.713,-0.713,-101.501,-144.470,-13.794
0.073,1.756,-0.671,-83.740,-130.371,-21.423
0.109,1.851,-0.640,-61.707,-114.685,-28.503
0.211,1.996,-0.507,-42.480,-102.661,-36.194
0.302,1.925,-0.464,-24.902,-104.248,-38.757
0.384,1.807,-0.398,-15.015,-116.638,-40.466
0.418,1.678,-0.349,-14.648,-138.306,-41.199
0.385,1.527,-0.365,-21.301,-165.466,-40.161
0.311,1.466,-0.411,-31.128,-190.125,-39.368
0.271,1.434,-0.423,-39.978,-207.275,-37.903
0.158,1.404,-0.512,-43.152,-214.844,-37.720
0.047,1.451,-0.457,-40.161,-205.261,-40.466
0.055,1.429,-0.380,-28.137,-184.082,-42.297
0.147,1.364,-0.269,-13.123,-159.546,-44.617
0.232,1.235,-0.173,-0.916,-139.343,-46.570
0.317,1.169,-0.086,6.409,-129.333,-45.776

0.632,2.096,-0.251,-39.612,-90.271,87.646
0.717,2.367,-0.300,-39.551,-94.299,92.773
0.823,2.614,-0.342,-40.588,-93.811,97.046
0.990,2.818,-0.367,-43.213,-85.938,100.830
1.215,2.935,-0.358,-48.767,-73.608,105.347
1.396,3.103,-0.342,-59.204,-66.406,113.586
1.442,3.243,-0.330,-71.533,-71.594,127.563
1.413,3.316,-0.355,-82.031,-86.365,148.071
1.276,3.323,-0.405,-88.135,-106.567,170.410
1.045,3.263,-0.481,-90.027,-127.930,190.186
0.760,3.195,-0.556,-91.064,-146.301,205.811
0.456,3.183,-0.623,-90.942,-162.659,217.346
0.139,3.095,-0.775,-89.600,-177.490,229.248
-0.146,2.942,-0.919,-88.013,-184.814,232.971
-0.366,2.883,-0.930,-87.219,-180.603,219.666
-0.536,2.571,-1.047,-82.336,-172.363,198.853
-0.680,2.457,-1.065,-78.308,-160.156,159.119
-0.862,2.300,-1.117,-70.740,-140.686,104.492
-0.927,2.119,-1.164,-58.899,-112.305,49.927
-0.945,1.983,-1.135,-47.485,-73.181,-3.296
-0.889,1.707,-1.152,-34.363,-28.564,-45.654
-0.786,1.600,-1.089,-23.437,16.968,-80.444
-0.638,1.475,-1.074,-11.963,57.983,-99.548
-0.461,1.280,-1.028,0.610,90.149,-105.469
-0.292,1.136,-0.956,15.442,110.596,-106.750
-0.131,0.987,-0.827,33.325,115.662,-102.478
0.014,0.761,-0.668,54.382,103.333,-93.994
0.072,0.727,-0.535,77.820,73.303,-86.670
0.053,0.468,-0.397,104.675,31.738,-73.120
-0.058,0.311,-0.400,133.240,-11.780,-65.491
-0.186,0.150,-0.337,162.476,-43.457,-53.528
-0.345,-0.156,-0.355,189.758,-66.528,-39.368
-0.499,-0.426,-0.385,208.740,-76.050,-24.597
-0.604,-0.567,-0.337,221.436,-74.280,-7.202
-0.749,-1.003,-0.345,231.079,-68.604,13.000
-0.834,-1.347,-0.306,237.122,-57.312,23.071
-0.857,-1.802,-0.234,242.615,-40.771,22.827
-0.759,-2.325,-0.142,246.033,-21.118,1.343
-0.550,-2.735,-0.018,239.319,-2.625,-46.753
-0.259,-2.977,0.080,214.355,10.620,-111.084
0.080,-3.011,0.184,172.791,14.465,-178.711
0.446,-3.042,0.283,124.023,3.540,-239.746
0.960,-2.988,0.371,70.129,-22.217,-284.363
1.611,-2.641,0.622,16.296,-65.308,-302.612
2.242,-1.694,0.862,-17.273,-138.672,-291.748
2.763,-1.177,1.075,-15.747,-247.009,-231.873
3.068,-1.017,0.870,6.897,-385.498,-164.551
2.882,-0.817,0.503,35.095,-522.827,-122.437
2.142,-0.824,-0.148,56.519,-617.676,-75.378
0.969,-0.982,-0.483,49.561,-643.005,-28.748
-0.284,-1.168,-1.036,18.738,-592.224,9.277
-1.126,-1.108,-1.085,-44.983,-434.998,34.912
-1.214,-0.976,-0.963,-120.483,-224.243,58.594
-1.031,-0.952,-0.930,-177.551,-15.747,67.993
-0.950,-0.606,-0.691,-207.764,169.250,59.265
-0.635,-0.363,-0.500,-209.961,305.054,45.959
-0.220,-0.159,-0.301,-191.528,385.559,49.194
-0.011,0.086,-0.060,-159.485,414.551,59.753
0.141,0.303,0.232,-121.582,395.508,74.768
0.278,0.243,0.337,-88.379,336.792,89.233
0.322,0.112,0.329,-66.528,254.761,91.492
0.322,0.131,0.286,-60.486,173.523,80.627
0.302,0.193,0.196,-61.646,103.027,68.176
0.211,0.264,0.143,-66.040,50.171,59.753
0.079,0.303,0.083,-69.824,19.775,61.890
-0.096,0.297,0.026,-70.251,14.343,77.148
-0.240,0.412,0.018,-66.772,33.447,101.624
-0.319,0.587,0.089,-57.312,68.115,128.296
-0.326,0.663,0.197,-40.527,103.271,151.367
-0.356,0.549,0.265,-18.616,130.249,165.405
-0.399,0.434,0.322,-2.075,148.926,167.969
-0.401,0.356,0.393,4.211,160.522,159.180
-0.440,0.352,0.405,3.113,163.818,139.221
-0.482,0.513,0.378,-3.540,162.720,111.450
-0.494,0.686,0.309,-14.160,157.837,83.313
-0.500,0.806,0.199,-26.245,150.146,54.077
-0.489,1.087,0.141,-37.903,142.090,20.386
-0.446,1.211,0.073,-43.640,132.690,-7.935
-0.408,1.273,0.033,-42.419,122.742,-33.569
-0.376,1.389,-0.043,-39.368,113.525,-58.716
-0.285,1.496,-0.102,-38.025,106.201,-79.163
-0.194,1.538,-0.141,-35.095,101.746,-95.581
-0.150,1.498,-0.180,-30.090,99.365,-110.718
-0.131,1.396,-0.260,-26.184,100.586,-123.779
-0.091,1.327,-0.373,-26.672,107.788,-134.460
-0.007,1.344,-0.476,-32.593,120.667,-144.287
0.042,1.286,-0.524,-39.734,136.169,-153.381
0.100,1.151,-0.565,-42.358,153.137,-162.537
0.145,1.163,-0.539,-42.053,170.471,-173.523
0.253,1.184,-0.491,-37.048,184.875,-178.162
0.400,1.161,-0.486,-27.771,193.054,-175.537
0.531,1.266,-0.449,-19.470,195.312,-173.035
0.691,1.336,-0.364,-12.024,188.965,-166.748
0.792,1.318,-0.314,-4.761,171.326,-156.921
0.816,1.201,-0.319,-0.854,147.888,-145.203
0.786,1.138,-0.342,-3.601,125.793,-133.850
0.713,1.122,-0.328,-11.780,108.643,-120.667
0.661,1.073,-0.326,-22.644,94.116,-105.530
0.621,1.071,-0.322,-36.194,81.665,-94.116
0.585,1.158,-0.305,-51.208,69.702,-89.966
0.596,1.272,-0.296,-63.843,56.274,-92.529
0.612,1.364,-0.310,-72.205,40.894,-99.487
0.655,1.382,-0.343,-77.393,24.780,-109.863
0.727,1.344,-0.365,-80.994,9.460,-123.047
0.768,1.288,-0.383,-86.243,-4.456,-136.597
0.807,1.213,-0.427,-94.116,-18.799,-145.813
0.828,1.121,-0.504,-104.248,-32.288,-149.719
0.797,1.037,-0.594,-116.394,-40.222,-151.428
0.791,0.951,-0.676,-128.418,-39.673,-151.855
0.826,0.880,-0.756,-138.184,-32.654,-153.259
0.857,0.830,-0.823,-144.226,-21.118,-155.701
0.915,0.784,-0.903,-146.423,-8.423,-156.799
0.988,0.784,-0.938,-144.409,4.883,-156.494
1.073,0.841,-0.897,-136.719,17.822,-154.175
1.152,0.896,-0.842,-123.596,25.146,-148.499
1.183,0.895,-0.826,-107.239,24.902,-136.597
1.175,0.905,-0.773,-90.210,19.714,-121.216
1.135,0.901,-0.710,-72.876,9.766,-104.248
1.063,0.878,-0.662,-57.495,-5.005,-89.844

1.057,0.818,-0.804,50.842,-102.966,145.691
1.141,0.884,-0.828,48.645,-93.872,152.771
1.246,0.971,-0.856,43.335,-85.632,156.006
1.370,1.081,-0.879,35.950,-79.102,159.790
1.510,1.242,-0.899,28.137,-76.355,166.443
1.562,1.446,-0.948,22.888,-77.332,173.828
1.585,1.677,-0.974,23.071,-78.186,181.030
1.674,1.960,-0.928,28.931,-76.477,187.256
1.827,2.091,-0.879,38.147,-76.782,191.467
1.977,2.144,-0.812,44.800,-85.632,195.251
2.094,2.229,-0.695,44.373,-104.980,200.562
2.124,2.323,-0.580,37.842,-136.414,210.510
2.038,2.320,-0.548,28.076,-174.316,226.379
1.867,2.311,-0.556,12.573,-205.078,247.498
1.588,2.294,-0.589,-9.094,-220.337,266.968
1.272,2.295,-0.654,-35.828,-216.431,280.945
0.965,2.359,-0.699,-64.575,-193.298,288.147
0.715,2.384,-0.731,-90.515,-157.043,287.659
0.540,2.393,-0.785,-110.596,-114.319,278.076
0.389,2.341,-0.828,-125.244,-70.068,260.193
0.239,2.216,-0.883,-135.986,-30.212,236.633
0.170,2.109,-0.893,-144.653,3.174,209.229
0.187,2.015,-0.831,-150.208,27.893,180.786
0.160,1.928,-0.782,-149.048,36.072,153.442
0.121,1.838,-0.763,-138.550,27.161,128.357
0.049,1.749,-0.727,-118.042,9.033,107.605
-0.101,1.636,-0.727,-90.210,-12.268,94.666
-0.251,1.518,-0.756,-59.265,-30.334,91.064
-0.370,1.376,-0.792,-29.541,-39.856,94.849
-0.464,1.215,-0.788,-2.747,-40.283,102.173
-0.535,1.057,-0.777,20.630,-35.217,109.192
-0.597,0.916,-0.764,39.551,-28.625,109.009
-0.657,0.727,-0.746,51.453,-21.790,99.304
-0.657,0.694,-0.688,57.251,-16.052,80.627
-0.684,0.558,-0.665,58.777,-11.169,57.495
-0.648,0.452,-0.572,57.251,-8.789,30.701
-0.652,0.382,-0.507,56.580,-12.146,4.883
-0.653,0.279,-0.393,55.786,-17.090,-16.663
-0.625,0.240,-0.307,59.265,-28.687,-34.729
-0.625,0.139,-0.258,67.444,-43.640,-47.302
-0.639,0.046,-0.236,79.346,-58.289,-56.763
-0.653,-0.149,-0.257,94.910,-68.787,-63.232
-0.643,-0.302,-0.255,112.122,-71.289,-71.777
-0.679,-0.470,-0.267,131.958,-67.017,-77.942
-0.713,-0.701,-0.232,154.236,-55.054,-79.102
-0.737,-0.957,-0.173,177.612,-34.973,-77.637
-0.673,-1.281,-0.037,201.965,-9.583,-72.510
-0.532,-1.732,0.144,223.022,16.235,-67.383
-0.386,-2.234,0.286,232.483,42.480,-64.941
-0.168,-2.655,0.472,227.844,69.519,-64.758
0.233,-3.015,0.661,211.975,88.867,-70.740
0.774,-3.254,0.830,185.242,88.379,-90.881
1.222,-3.184,0.960,148.071,60.364,-126.953
1.654,-2.844,1.039,104.858,4.883,-165.100
2.293,-2.451,1.104,65.674,-71.960,-196.350
2.687,-1.800,1.201,40.588,-169.373,-220.154
2.732,-1.385,0.900,35.095,-288.818,-220.337
2.388,-1.450,0.298,39.307,-398.682,-208.557
1.416,-1.132,-0.448,38.696,-446.106,-200.623
0.211,-0.155,-0.251,27.832,-411.682,-152.832
-0.102,-0.191,-0.160,6.348,-354.370,-46.631
-0.119,-0.974,-0.787,-34.119,-300.659,64.880
-0.406,-1.142,-0.935,-80.261,-176.575,120.728
-0.590,-0.958,-0.718,-126.465,-28.015,138.733
-0.640,-0.552,-0.541,-155.701,93.201,138.550
-0.721,-0.345,-0.552,-164.368,187.988,127.136
-0.760,-0.185,-0.520,-165.894,260.620,110.779
-0.535,0.057,-0.402,-161.133,315.857,97.961
-0.321,0.094,-0.369,-148.987,341.797,84.961
-0.108,0.118,-0.299,-137.207,346.313,66.711
0.076,0.197,-0.169,-125.000,332.581,52.551
0.171,0.133,-0.110,-108.948,302.307,53.589
0.253,0.036,-0.051,-91.309,266.235,64.697
0.237,0.181,0.069,-73.425,233.093,79.407
0.186,0.338,0.249,-47.974,200.317,105.469
0.107,0.507,0.370,-15.747,163.757,140.930
-0.033,0.669,0.452,17.944,125.916,178.467
-0.225,0.705,0.499,46.692,88.379,213.257
-0.446,0.543,0.513,63.293,49.683,236.328
-0.641,0.423,0.509,60.120,15.259,237.183
-0.863,0.427,0.409,38.757,-7.446,212.830
-0.984,0.533,0.319,9.277,-12.085,171.326
-1.026,0.687,0.239,-18.066,-1.648,124.329
-0.982,0.838,0.188,-35.461,20.020,77.148
-0.877,1.043,0.112,-42.480,44.922,34.119
-0.738,1.206,0.035,-44.617,65.857,0.366
-0.628,1.272,-0.073,-45.715,79.041,-22.339
-0.525,1.351,-0.188,-47.119,86.487,-38.879
-0.416,1.479,-0.269,-48.584,90.454,-50.537
-0.297,1.533,-0.315,-48.401,88.318,-56.519
-0.225,1.550,-0.407,-44.861,77.881,-58.411
-0.179,1.657,-0.441,-39.246,62.622,-58.777
-0.132,1.932,-0.393,-28.931,44.617,-62.012
-0.109,1.926,-0.388,-10.010,26.123,-65.735
-0.062,1.845,-0.378,12.146,12.329,-75.378
-0.040,1.686,-0.319,34.302,5.432,-92.163
-0.089,1.500,-0.241,52.734,5.737,-114.197
-0.040,1.274,-0.239,60.242,14.221,-135.254
0.149,0.924,-0.333,55.481,28.625,-154.724
0.141,1.011,-0.278,28.442,52.368,-181.152
0.256,1.120,-0.244,-3.723,75.195,-190.369
0.469,1.372,-0.181,-31.494,92.285,-190.369
0.643,1.546,-0.091,-50.110,96.619,-182.556
0.844,1.606,-0.068,-58.899,80.139,-170.410
0.975,1.596,-0.059,-61.096,48.035,-160.889
0.983,1.620,-0.063,-60.242,7.446,-156.189
0.919,1.596,-0.120,-56.213,-33.997,-148.987
0.813,1.531,-0.224,-50.781,-66.223,-139.404
0.727,1.436,-0.331,-46.265,-82.581,-132.874
0.632,1.419,-0.418,-45.105,-83.496,-132.874
0.527,1.414,-0.472,-45.654,-72.937,-136.475
0.540,1.464,-0.471,-44.434,-54.749,-141.357
0.593,1.513,-0.428,-39.551,-36.133,-146.729
0.682,1.462,-0.392,-30.640,-23.987,-151.367
0.754,1.374,-0.372,-22.339,-22.400,-155.701
0.774,1.324,-0.382,-17.395,-27.893,-159.790
0.800,1.277,-0.422,-14.160,-34.729,-160.583
0.805,1.230,-0.498,-10.193,-38.025,-158.936
0.786,1.218,-0.546,-5.371,-34.363,-157.654

0.782,1.111,-0.577,8.789,-7.568,-150.879
0.777,1.075,-0.562,14.221,9.827,-145.752
0.766,1.000,-0.535,17.395,28.809,-138.367
0.768,1.081,-0.458,18.188,45.288,-133.240
0.699,1.024,-0.446,20.203,57.678,-125.366
0.655,1.035,-0.412,23.010,70.251,-119.568
0.658,1.019,-0.367,26.489,85.205,-115.173
0.751,0.955,-0.310,27.771,97.656,-107.605
0.800,0.893,-0.262,23.376,104.675,-96.497
0.844,0.894,-0.217,13.367,105.103,-82.825
0.865,0.910,-0.199,1.953,98.450,-68.787
0.817,0.979,-0.184,-8.911,86.975,-57.617
0.752,1.013,-0.215,-16.296,72.876,-47.424
0.721,1.022,-0.264,-21.545,60.425,-39.978
0.674,1.001,-0.313,-23.987,50.781,-34.302
0.619,0.999,-0.354,-24.475,44.678,-28.564
0.618,0.993,-0.381,-23.071,41.687,-23.437
0.654,0.960,-0.389,-20.142,40.283,-21.240
0.720,0.932,-0.372,-17.456,38.330,-20.142
0.811,0.928,-0.328,-16.602,32.471,-17.334
0.867,0.881,-0.337,-16.663,20.020,-13.306
0.857,0.872,-0.345,-17.151,5.066,-8.728
0.805,0.880,-0.364,-17.212,-7.568,-4.211
0.744,0.849,-0.397,-16.541,-15.869,0.000
0.690,0.828,-0.417,-15.747,-17.395,2.930
0.642,0.819,-0.414,-15.076,-13.062,4.639
0.627,0.791,-0.417,-13.794,-6.653,7.202
0.614,0.780,-0.412,-12.756,0.305,7.690
0.607,0.764,-0.401,-10.925,6.836,6.470
0.620,0.745,-0.382,-8.911,12.268,5.859
0.637,0.723,-0.372,-8.240,15.015,7.385
0.650,0.710,-0.373,-9.033,14.587,10.010
0.656,0.708,-0.379,-9.705,12.085,10.925
0.655,0.715,-0.389,-10.254,8.545,11.292
0.649,0.718,-0.392,-10.071,5.066,12.390
0.655,0.728,-0.396,-8.667,1.404,13.733
0.656,0.728,-0.405,-6.348,-1.343,14.893
0.646,0.731,-0.414,-3.967,-2.869,15.808
0.646,0.727,-0.424,-0.671,-3.113,16.296
0.643,0.724,-0.422,2.502,-1.953,15.625
0.653,0.710,-0.414,5.493,-0.854,14.221
0.680,0.691,-0.406,7.507,-0.732,12.756
0.702,0.680,-0.402,7.812,-2.258,11.658
0.723,0.670,-0.400,7.568,-5.005,10.681
0.739,0.671,-0.397,7.629,-8.545,10.498
0.737,0.680,-0.391,7.996,-12.573,11.047
0.714,0.686,-0.387,10.193,-17.456,12.085
0.676,0.679,-0.383,13.367,-21.851,12.390
0.636,0.658,-0.401,16.113,-23.987,12.268
0.609,0.654,-0.398,18.311,-22.522,11.963
0.599,0.638,-0.389,19.958,-18.311,11.292
0.588,0.615,-0.376,20.081,-14.038,9.338
0.582,0.621,-0.364,19.409,-9.888,6.348
0.580,0.625,-0.354,18.616,-6.104,5.005
0.575,0.631,-0.342,17.517,-1.587,4.883
0.583,0.621,-0.334,16.663,2.502,4.150
0.597,0.610,-0.332,15.869,5.371,2.625
0.620,0.608,-0.331,13.855,7.446,1.099
0.640,0.620,-0.321,12.268,8.484,0.732
0.634,0.633,-0.312,11.414,7.568,1.160
0.625,0.630,-0.306,10.925,4.883,1.526
0.628,0.623,-0.313,10.986,0.977,0.244
0.613,0.643,-0.323,10.925,-1.648,-2.136
0.616,0.659,-0.324,12.024,-1.709,-1.953
0.614,0.654,-0.321,13.733,-0.427,-0.244
0.603,0.646,-0.308,15.381,0.854,0.000
0.582,0.641,-0.290,15.259,0.916,-1.099
0.553,0.643,-0.275,14.893,-0.732,-2.808
0.531,0.644,-0.262,13.977,-3.235,-4.395
0.547,0.618,-0.273,12.817,-6.165,-7.812
0.568,0.608,-0.277,10.864,-8.545,-11.414
0.604,0.617,-0.274,7.935,-10.254,-11.475
0.615,0.625,-0.279,4.639,-13.062,-9.521
0.606,0.633,-0.287,2.075,-16.357,-8.972
0.614,0.635,-0.298,0.488,-19.104,-10.315
0.630,0.620,-0.343,-1.343,-20.935,-13.245
0.657,0.645,-0.360,-2.319,-19.470,-15.808
0.706,0.661,-0.366,-2.380,-14.587,-14.343
0.742,0.665,-0.373,-1.465,-9.338,-11.658
0.763,0.669,-0.369,0.427,-4.517,-10.498
0.773,0.666,-0.364,2.258,-0.427,-10.193
0.787,0.659,-0.355,4.150,3.052,-9.705
0.796,0.658,-0.335,5.798,5.920,-8.850
0.790,0.656,-0.310,6.836,7.507,-7.446
0.770,0.645,-0.290,7.263,7.385,-5.737
0.749,0.631,-0.282,7.202,6.042,-4.089
0.743,0.627,-0.278,6.348,4.944,-3.357
0.743,0.634,-0.274,5.371,3.784,-3.479
0.742,0.643,-0.266,4.883,2.197,-3.845
0.739,0.642,-0.259,4.822,-0.061,-3.723
0.723,0.643,-0.256,5.127,-2.869,-3.235
0.718,0.635,-0.261,5.310,-5.371,-2.319
0.716,0.630,-0.269,4.761,-6.531,-1.831
0.716,0.638,-0.271,4.089,-6.409,-2.808
0.710,0.643,-0.267,4.150,-4.944,-3.601
0.700,0.650,-0.260,4.089,-2.441,-3.784
0.682,0.654,-0.257,4.517,-0.305,-3.540
0.679,0.644,-0.257,5.432,2.319,-3.174
0.702,0.625,-0.258,5.798,4.333,-2.808
0.722,0.625,-0.251,4.883,4.578,-3.113
0.726,0.638,-0.248,3.967,3.174,-3.296
0.711,0.648,-0.247,3.357,0.916,-3.174
0.687,0.651,-0.247,3.906,-1.404,-2.991
0.642,0.652,-0.248,4.883,-3.296,-3.113
0.608,0.655,-0.242,6.104,-3.784,-3.052
0.581,0.638,-0.239,7.141,-3.601,-2.197
0.585,0.608,-0.246,7.507,-2.686,-1.953
0.604,0.599,-0.247,5.432,-1.343,-3.723
0.623,0.609,-0.248,2.747,-0.183,-6.592
0.640,0.624,-0.253,0.366,0.732,-8.362
0.650,0.633,-0.263,-0.916,1.587,-9.277
0.655,0.636,-0.269,-0.854,2.197,-10.315
0.678,0.623,-0.277,-0.244,3.540,-10.193
0.716,0.603,-0.291,-0.977,4.944,-9.460
0.755,0.602,-0.297,-3.174,6.958,-9.155
0.776,0.622,-0.299,-5.371,8.789,-8.728
0.786,0.644,-0.300,-5.798,10.010,-7.874
0.784,0.656,-0.306,-4.944,10.193,-6.653
0.786,0.659,-0.309,-3.174,9.766,-5.493

1.384,1.289,-0.623,-34.302,27.710,17.456
1.613,1.569,-0.702,-45.959,46.509,16.052
1.782,1.938,-0.807,-55.359,59.814,15.137
1.955,2.257,-0.964,-58.655,69.458,17.700
2.184,2.493,-1.112,-55.481,78.491,26.367
2.455,2.723,-1.173,-44.739,86.853,42.786
2.688,2.829,-1.135,-24.780,86.121,71.655
2.841,2.771,-1.126,-0.488,71.716,109.558
2.853,2.657,-1.139,22.034,49.011,145.203
2.697,2.512,-1.125,38.757,27.222,173.401
2.454,2.376,-1.125,48.584,12.024,194.824
2.136,2.299,-1.123,53.467,5.676,208.130
1.774,2.260,-1.087,55.542,8.484,215.698
1.477,2.218,-1.077,56.580,16.418,221.802
1.256,2.119,-1.079,56.763,25.513,223.938
1.012,2.013,-1.067,52.856,33.386,220.581
0.719,1.920,-1.041,45.410,37.598,214.417
0.455,1.935,-0.992,35.767,37.781,209.595
0.162,1.909,-0.967,25.940,32.166,210.571
-0.081,1.876,-0.960,14.160,20.935,213.867
-0.305,1.853,-0.905,3.784,5.859,216.553
-0.486,1.690,-0.867,0.854,-13.245,215.759
-0.602,1.486,-0.835,3.418,-34.973,201.111
-0.714,1.297,-0.783,9.216,-55.176,169.250
-0.824,1.042,-0.775,19.165,-70.740,131.653
-0.851,0.850,-0.737,29.297,-77.209,92.163
-0.810,0.701,-0.658,40.222,-75.500,53.162
-0.760,0.562,-0.578,52.795,-68.542,18.616
-0.742,0.287,-0.621,67.078,-56.946,-12.878
-0.711,0.292,-0.516,80.139,-38.452,-45.654
-0.573,0.226,-0.457,97.046,-17.944,-60.120
-0.429,-0.042,-0.463,115.295,-4.395,-62.988
-0.336,-0.072,-0.411,130.066,7.751,-67.749
-0.295,-0.148,-0.329,146.667,16.968,-62.927
-0.220,-0.282,-0.216,166.077,24.536,-51.453
-0.167,-0.491,-0.102,188.110,31.189,-39.856
-0.151,-0.779,-0.024,208.374,37.231,-31.555
-0.152,-1.049,0.025,221.802,41.809,-28.259
-0.142,-1.361,0.054,224.731,45.837,-27.649
-0.141,-1.598,0.052,215.332,48.462,-33.508
-0.103,-1.803,0.071,195.496,52.917,-42.175
-0.043,-1.984,0.072,166.748,56.519,-53.650
0.053,-2.155,0.061,127.991,57.312,-72.083
0.213,-2.212,0.063,81.177,52.917,-95.215
0.435,-2.087,0.081,31.189,39.124,-117.004
0.659,-1.906,0.072,-16.235,12.878,-133.362
0.845,-1.702,0.045,-55.542,-26.001,-144.043
0.928,-1.424,0.013,-83.069,-73.120,-147.217
0.963,-1.116,-0.005,-96.741,-120.972,-138.794
0.940,-0.873,-0.062,-95.886,-165.649,-120.728
0.835,-0.713,-0.119,-83.252,-200.562,-95.642
0.665,-0.641,-0.172,-62.439,-219.971,-66.467
0.443,-0.623,-0.225,-38.452,-222.168,-33.813
0.185,-0.631,-0.259,-18.494,-204.224,0.732
-0.082,-0.602,-0.271,-7.324,-166.504,36.011
-0.290,-0.572,-0.265,-2.258,-113.281,68.726
-0.360,-0.561,-0.223,-0.793,-50.232,93.079
-0.310,-0.539,-0.162,-0.183,13.184,104.370
-0.172,-0.482,-0.046,2.747,69.641,102.783
0.002,-0.420,0.115,7.874,110.962,92.957
0.188,-0.373,0.269,14.038,132.080,81.543
0.354,-0.356,0.390,19.043,134.521,72.815
0.492,-0.335,0.509,19.104,122.009,69.397
0.614,-0.329,0.567,9.766,96.436,75.562
0.648,-0.405,0.488,-10.071,62.927,87.769
0.524,-0.325,0.422,-40.222,35.095,97.595
0.348,-0.136,0.303,-71.899,17.700,108.887
0.214,0.124,0.186,-94.971,13.855,116.516
0.120,0.231,0.039,-103.943,21.790,118.164
-0.008,0.473,0.001,-100.464,41.077,109.680
-0.073,0.578,-0.064,-84.045,65.125,105.957
-0.255,0.336,-0.350,-58.044,91.980,99.426
-0.171,0.845,0.025,-31.921,134.460,78.064
-0.125,0.656,0.003,4.944,160.156,80.872
-0.002,0.616,0.052,41.626,169.678,81.909
0.082,0.617,0.187,72.388,175.964,83.252
0.083,0.651,0.244,93.018,172.974,84.045
0.091,0.720,0.325,97.839,166.382,88.928
0.102,0.851,0.397,89.905,154.785,92.102
0.079,1.057,0.435,69.824,136.780,90.515
0.024,1.219,0.454,42.297,112.305,83.801
-0.089,1.386,0.370,13.428,83.069,70.557
-0.186,1.616,0.287,-14.954,55.298,52.246
-0.206,1.794,0.219,-39.124,29.724,33.752
-0.305,1.900,0.095,-53.772,4.517,14.526
-0.416,1.957,-0.019,-61.218,-12.024,-6.104
-0.430,1.973,-0.089,-63.660,-15.808,-25.208
-0.397,1.909,-0.110,-63.049,-11.841,-40.894
-0.338,1.782,-0.136,-61.035,-6.775,-53.955
-0.230,1.773,-0.121,-59.021,-3.235,-65.369
-0.102,1.803,-0.070,-52.490,-3.540,-76.111
0.002,1.764,-0.043,-37.415,-8.301,-85.388
0.077,1.702,-0.030,-18.127,-14.282,-92.896
0.125,1.626,-0.013,0.366,-18.677,-98.328
0.126,1.489,-0.024,15.625,-21.423,-101.196
0.086,1.376,-0.012,23.071,-20.203,-104.553
0.107,1.340,0.037,21.057,-16.296,-107.605
0.179,1.267,0.025,10.864,-14.282,-101.379
0.240,1.106,0.003,-5.554,-12.634,-87.280
0.283,1.053,-0.013,-27.527,-11.108,-77.026
0.225,1.040,-0.065,-50.354,-10.742,-69.824
0.182,1.173,-0.099,-70.435,-8.057,-66.528
0.138,1.269,-0.158,-83.069,-4.089,-64.819
0.124,1.339,-0.195,-88.074,0.793,-67.566
0.137,1.356,-0.257,-87.219,7.385,-75.256
0.149,1.379,-0.305,-83.252,14.587,-87.769
0.192,1.415,-0.310,-77.454,23.193,-100.708
0.272,1.425,-0.300,-70.007,29.663,-111.084
0.365,1.447,-0.271,-61.096,32.776,-120.850
0.443,1.412,-0.245,-51.575,30.762,-127.075
0.552,1.349,-0.205,-43.335,24.109,-131.409
0.638,1.240,-0.198,-38.879,11.475,-135.925
0.698,1.144,-0.206,-40.161,-3.906,-140.991
0.751,1.078,-0.224,-45.105,-19.409,-143.738
0.758,0.996,-0.269,-52.551,-34.302,-142.517
0.758,0.963,-0.333,-61.340,-45.898,-139.465
0.712,0.932,-0.401,-67.932,-51.575,-135.498
0.671,0.966,-0.430,-70.007,-49.438,-131.958
0.659,0.994,-0.439,-66.406,-41.016,-127.197

1.282,1.232,-0.606,-17.822,-14.404,29.236
1.503,1.465,-0.707,-18.616,-15.381,31.860
1.743,1.687,-0.773,-10.620,-13.672,37.781
1.957,1.814,-0.860,5.493,-12.268,48.584
2.147,1.935,-0.904,21.973,-7.446,64.270
2.173,2.039,-0.942,35.645,3.967,83.069
2.109,2.168,-0.999,45.349,25.940,105.957
2.061,2.390,-0.987,50.354,59.082,130.432
2.049,2.632,-0.953,56.152,93.445,149.841
2.024,2.756,-0.943,67.627,116.821,163.940
2.016,2.805,-0.946,83.801,124.878,175.232
2.013,2.804,-0.984,101.135,117.004,184.387
1.940,2.785,-1.003,117.676,96.619,189.514
1.832,2.786,-1.030,132.263,69.336,194.519
1.680,2.803,-1.016,143.982,38.757,201.416
1.464,2.726,-1.014,154.297,8.911,208.740
1.187,2.609,-1.037,161.194,-15.991,215.820
0.872,2.478,-1.011,163.452,-32.776,221.252
0.560,2.273,-0.921,161.560,-37.537,226.379
0.255,2.011,-0.786,153.137,-32.898,229.614
0.034,1.743,-0.647,135.315,-22.034,228.271
-0.122,1.476,-0.504,110.168,-9.155,221.497
-0.279,1.328,-0.309,82.703,4.333,208.801
-0.402,1.259,-0.088,60.303,16.174,192.322
-0.457,1.157,0.118,46.814,21.118,177.002
-0.531,1.050,0.288,39.246,15.930,164.612
-0.590,0.948,0.386,30.273,1.526,154.541
-0.629,0.825,0.424,18.311,-18.311,145.630
-0.691,0.732,0.422,4.639,-39.246,133.606
-0.760,0.667,0.376,-8.667,-56.152,117.371
-0.846,0.584,0.292,-20.630,-65.613,98.572
-0.903,0.504,0.212,-31.921,-64.148,77.393
-0.932,0.454,0.170,-41.992,-53.894,55.908
-0.922,0.406,0.124,-50.659,-39.307,35.645
-0.860,0.356,0.108,-58.350,-24.780,17.578
-0.750,0.309,0.117,-63.416,-14.038,0.854
-0.644,0.233,0.129,-64.697,-11.292,-15.930
-0.585,0.114,0.136,-62.317,-14.771,-34.424
-0.557,-0.017,0.125,-56.702,-21.545,-53.467
-0.556,-0.151,0.095,-48.889,-26.733,-72.205
-0.552,-0.326,0.066,-39.001,-26.794,-89.050
-0.504,-0.562,0.024,-28.503,-20.081,-106.445
-0.407,-0.795,0.006,-20.264,-7.019,-125.610
-0.283,-0.943,0.031,-15.015,4.578,-140.259
-0.168,-1.054,0.061,-10.254,9.521,-150.940
-0.065,-1.245,0.053,-4.211,10.376,-160.461
0.117,-1.450,0.062,0.977,11.292,-168.152
0.384,-1.611,0.123,4.639,10.315,-172.363
0.658,-1.754,0.182,3.052,-0.671,-169.250
0.915,-1.924,0.198,-3.906,-26.001,-159.180
1.155,-2.067,0.192,-15.259,-64.148,-150.269
1.348,-1.972,0.158,-30.701,-111.389,-147.034
1.513,-1.876,0.087,-42.725,-163.574,-140.076
1.665,-1.717,-0.030,-49.561,-214.722,-135.803
1.642,-1.437,-0.159,-48.828,-259.766,-130.859
1.467,-1.105,-0.284,-39.734,-291.077,-120.117
1.197,-1.098,-0.404,-26.855,-304.199,-96.191
0.745,-1.142,-0.600,-20.813,-294.128,-70.374
0.234,-0.800,-0.523,-23.865,-250.305,-44.739
-0.048,-0.538,-0.560,-30.762,-192.566,-2.258
-0.090,-0.569,-0.571,-40.588,-124.878,42.236
-0.343,-0.501,-0.583,-54.138,-48.950,62.561
-0.488,-0.165,-0.487,-66.833,27.527,71.655
-0.611,0.135,-0.522,-74.463,96.985,79.773
-0.623,0.524,-0.378,-78.674,163.025,86.487
-0.447,0.849,-0.158,-76.843,203.796,99.487
-0.211,0.939,0.000,-71.350,204.834,116.821
-0.142,0.737,0.074,-65.063,172.791,134.827
-0.019,0.520,0.166,-55.603,122.925,139.526
0.225,0.388,0.238,-42.175,67.566,130.859
0.252,0.112,0.144,-22.461,8.301,116.211
0.127,0.138,0.237,-4.517,-33.936,93.262
-0.066,0.183,0.239,15.625,-55.420,83.130
-0.127,0.106,0.210,34.424,-55.359,87.402
-0.082,0.114,0.268,49.988,-34.485,93.933
0.012,0.163,0.325,66.223,-6.958,98.572
0.127,0.183,0.351,82.947,15.381,99.670
0.225,0.244,0.359,97.351,29.724,97.656
0.189,0.311,0.310,108.521,34.058,94.177
0.130,0.316,0.260,115.845,34.546,88.135
0.082,0.346,0.192,116.516,37.598,79.041
0.069,0.458,0.166,110.474,44.617,67.200
0.103,0.598,0.142,99.487,52.917,54.932
0.151,0.819,0.119,84.778,57.800,44.006
0.153,1.061,0.088,68.176,57.495,34.119
0.140,1.182,0.062,55.176,52.917,23.865
0.156,1.151,0.025,46.021,49.622,11.902
0.142,1.163,-0.048,36.133,48.828,-3.052
0.100,1.289,-0.118,21.851,50.842,-19.592
0.078,1.414,-0.175,6.287,53.589,-33.264
0.069,1.412,-0.232,-7.263,57.312,-42.969
0.071,1.378,-0.315,-17.517,63.660,-51.941
0.065,1.467,-0.364,-25.757,75.134,-61.462
0.082,1.563,-0.337,-30.823,88.440,-66.711
0.131,1.509,-0.313,-28.870,97.290,-65.247
0.189,1.465,-0.282,-22.400,101.135,-62.561
0.222,1.528,-0.226,-15.381,99.792,-62.561
0.218,1.591,-0.188,-7.629,92.529,-62.073
0.231,1.593,-0.174,0.427,81.238,-57.983
0.248,1.576,-0.151,4.761,66.711,-53.467
0.240,1.507,-0.139,5.310,49.133,-52.551
0.200,1.412,-0.130,2.747,31.372,-56.152
0.211,1.292,-0.151,-4.517,16.357,-61.584
0.187,1.268,-0.184,-16.907,5.798,-68.726
0.132,1.338,-0.184,-31.433,0.610,-74.036
0.102,1.402,-0.208,-42.236,-1.160,-74.829
0.058,1.471,-0.217,-48.401,0.183,-74.768
0.046,1.479,-0.241,-49.805,4.456,-76.538
0.048,1.444,-0.290,-48.767,10.498,-83.740
0.074,1.445,-0.289,-46.875,20.203,-96.436
0.121,1.394,-0.281,-44.983,30.579,-109.863
0.191,1.338,-0.259,-44.739,38.025,-121.399
0.323,1.287,-0.228,-48.462,40.894,-130.249
0.468,1.277,-0.206,-56.335,36.011,-136.780
0.588,1.300,-0.201,-67.383,23.315,-140.503
0.680,1.302,-0.208,-78.491,3.235,-140.686
0.725,1.247,-0.288,-88.379,-22.278,-138.916
0.709,1.222,-0.396,-98.022,-47.302,-139.404
0.664,1.224,-0.488,-104.370,-65.369,-140.991

1.002,1.525,-0.502,2.014,72.693,55.847
1.130,1.715,-0.570,3.113,83.740,57.800
1.252,1.888,-0.645,9.216,93.811,64.026
1.394,2.060,-0.719,18.066,103.149,72.205
1.570,2.211,-0.784,28.259,109.802,81.482
1.731,2.357,-0.848,37.598,110.596,90.027
1.825,2.521,-0.868,47.058,105.286,97.412
1.854,2.678,-0.867,56.641,94.666,105.591
1.896,2.768,-0.834,64.453,81.360,113.892
1.895,2.794,-0.783,66.162,64.087,120.667
1.768,2.732,-0.771,58.777,42.664,123.169
1.605,2.677,-0.881,43.152,23.987,122.620
1.404,2.718,-1.005,29.419,9.155,123.352
1.137,2.814,-1.055,29.602,1.953,127.747
0.949,2.816,-1.103,40.344,5.737,134.460
0.781,2.695,-1.146,53.772,16.479,140.381
0.535,2.530,-1.154,65.063,28.992,144.653
0.367,2.434,-1.086,70.618,41.199,148.743
0.256,2.304,-1.009,73.608,46.753,152.161
0.150,2.128,-0.935,76.782,41.504,153.381
0.053,1.964,-0.858,80.688,28.137,150.146
-0.085,1.788,-0.800,85.022,8.606,141.663
-0.250,1.590,-0.777,90.637,-10.498,129.333
-0.382,1.441,-0.767,96.619,-23.987,112.915
-0.452,1.281,-0.721,106.384,-31.128,94.788
-0.500,1.059,-0.649,120.605,-33.508,76.660
-0.540,0.826,-0.555,135.315,-31.372,57.922
-0.572,0.585,-0.473,146.667,-25.757,38.940
-0.589,0.331,-0.417,154.480,-15.991,21.362
-0.543,0.091,-0.348,157.227,-2.991,6.775
-0.463,-0.071,-0.255,153.992,10.864,-3.540
-0.397,-0.177,-0.200,144.409,21.118,-11.597
-0.356,-0.269,-0.168,131.714,27.771,-17.395
-0.299,-0.348,-0.144,118.042,32.715,-19.165
-0.218,-0.416,-0.110,103.088,36.072,-18.372
-0.134,-0.521,-0.080,87.463,36.316,-18.250
-0.049,-0.643,-0.059,70.313,33.813,-22.217
0.001,-0.747,-0.055,52.429,29.236,-31.067
0.045,-0.826,-0.049,35.156,25.757,-41.809
0.112,-0.892,-0.052,18.066,22.705,-50.476
0.157,-0.950,-0.069,-0.488,18.188,-55.054
0.200,-1.016,-0.085,-20.325,11.475,-56.458
0.251,-1.073,-0.110,-41.992,3.235,-56.885
0.287,-1.100,-0.135,-64.575,-6.897,-57.495
0.352,-1.126,-0.172,-87.585,-19.775,-58.167
0.418,-1.140,-0.223,-109.741,-35.828,-59.570
0.447,-1.185,-0.284,-128.601,-52.917,-61.462
0.499,-0.972,-0.268,-142.822,-68.665,-65.735
0.669,-0.913,-0.197,-148.071,-85.999,-56.213
0.723,-0.999,-0.368,-143.860,-109.863,-46.326
0.615,-0.775,-0.322,-134.399,-122.253,-47.546
0.467,-0.739,-0.403,-117.188,-125.854,-41.870
0.455,-0.584,-0.314,-96.802,-119.995,-38.452
0.360,-0.749,-0.391,-77.148,-113.647,-30.762
0.352,-0.863,-0.328,-64.392,-99.487,-30.457
0.542,-0.448,-0.425,-54.077,-84.167,-28.381
0.309,-0.449,0.007,-41.809,-65.857,-11.169
0.591,-0.482,-0.207,-36.621,-86.853,3.357
0.505,-0.682,-0.236,-33.691,-98.145,32.410
0.278,-0.497,-0.171,-37.109,-96.130,30.762
0.203,-0.092,-0.085,-34.607,-87.585,34.851
-0.005,-0.090,-0.106,-29.114,-74.707,43.762
-0.178,0.099,-0.149,-29.419,-51.025,47.607
-0.284,0.228,-0.123,-32.532,-16.174,61.646
-0.342,0.467,-0.133,-36.560,19.897,72.388
-0.351,0.634,0.000,-38.086,57.495,84.900
-0.163,0.598,-0.025,-37.109,80.383,98.083
0.005,0.384,-0.025,-39.063,89.905,102.295
0.133,0.223,-0.043,-44.434,86.609,94.360
0.213,0.112,-0.012,-46.936,72.388,78.613
0.236,0.025,0.041,-41.565,53.345,59.814
0.209,0.001,0.078,-27.161,35.889,44.434
0.123,0.046,0.103,-5.432,27.039,36.438
0.056,0.125,0.154,21.179,29.114,38.086
0.110,0.201,0.253,50.232,36.255,48.767
0.216,0.178,0.338,75.073,36.865,65.918
0.293,0.208,0.437,90.515,27.832,80.322
0.241,0.289,0.472,99.426,9.644,87.341
0.091,0.334,0.445,104.126,-10.803,87.097
-0.077,0.397,0.392,106.628,-22.461,79.834
-0.208,0.484,0.343,108.398,-19.104,65.430
-0.320,0.550,0.317,107.117,-2.075,46.570
-0.428,0.584,0.247,103.271,27.161,26.245
-0.382,0.701,0.197,95.398,66.528,8.484
-0.268,0.825,0.181,84.778,104.797,-4.944
-0.168,0.938,0.163,72.937,130.737,-15.747
-0.058,1.084,0.149,61.157,142.212,-23.071
0.043,1.242,0.137,50.903,140.503,-25.940
0.156,1.361,0.156,43.945,128.235,-25.757
0.231,1.401,0.180,42.603,107.849,-23.254
0.250,1.444,0.198,44.495,82.092,-19.775
0.251,1.533,0.218,46.936,53.650,-17.334
0.219,1.558,0.203,49.072,24.353,-14.893
0.090,1.500,0.124,46.936,-2.808,-11.292
-0.121,1.401,0.015,41.077,-18.982,-8.179
-0.235,1.272,-0.067,31.738,-17.029,-8.118
-0.309,1.167,-0.126,16.602,-0.610,-13.489
-0.333,1.082,-0.163,-6.042,22.217,-24.292
-0.298,1.038,-0.171,-31.250,46.692,-40.771
-0.213,1.041,-0.153,-55.969,71.411,-61.646
-0.068,1.129,-0.117,-78.552,91.125,-84.717
0.067,1.264,-0.090,-96.497,102.661,-106.750
0.183,1.370,-0.100,-107.788,104.858,-122.314
0.287,1.463,-0.141,-111.694,100.586,-129.028
0.355,1.515,-0.194,-110.901,92.407,-128.174
0.419,1.522,-0.233,-109.802,82.092,-122.070
0.471,1.506,-0.271,-107.971,70.007,-114.624
0.472,1.507,-0.312,-108.093,55.481,-108.826
0.477,1.519,-0.332,-111.633,40.405,-106.567
0.492,1.548,-0.350,-116.943,24.719,-109.497
0.501,1.572,-0.350,-120.850,8.301,-116.760
0.501,1.554,-0.381,-121.948,-8.240,-126.892
0.526,1.544,-0.436,-122.559,-24.353,-138.062
0.592,1.546,-0.476,-122.620,-38.574,-149.414
0.651,1.515,-0.522,-118.591,-49.866,-158.875
0.702,1.466,-0.565,-110.413,-57.495,-165.039
0.775,1.420,-0.590,-100.281,-59.631,-166.565
0.836,1.367,-0.603,-89.294,-57.922,-165.344
0.872,1.322,-0.602,-77.271,-53.284,-161.743

0.940,1.247,-0.534,-54.749,-42.175,-144.714
1.001,1.207,-0.482,-44.006,-40.283,-133.667
1.038,1.177,-0.433,-35.889,-42.908,-123.596
1.023,1.138,-0.401,-29.724,-49.927,-114.136
0.965,1.108,-0.376,-24.902,-58.960,-104.065
0.880,1.072,-0.380,-21.423,-67.444,-93.872
0.782,1.022,-0.411,-20.081,-72.510,-85.083
0.687,0.978,-0.457,-21.179,-71.350,-78.308
0.622,0.952,-0.484,-24.231,-62.744,-73.364
0.598,0.942,-0.492,-27.832,-48.340,-68.848
0.578,0.941,-0.491,-30.334,-31.372,-63.904
0.579,0.953,-0.488,-31.677,-13.794,-58.411
0.595,0.974,-0.468,-31.616,2.747,-51.819
0.621,0.978,-0.443,-29.175,16.663,-44.617
0.651,0.965,-0.429,-26.611,25.085,-37.720
0.694,0.947,-0.426,-25.024,27.222,-32.349
0.742,0.942,-0.419,-24.292,23.560,-28.198
0.783,0.942,-0.414,-23.560,14.343,-24.536
0.803,0.940,-0.412,-21.912,1.160,-21.057
0.802,0.927,-0.411,-19.531,-13.611,-17.639
0.794,0.903,-0.421,-16.296,-28.931,-13.977
0.773,0.867,-0.438,-13.306,-42.786,-11.414
0.736,0.837,-0.451,-10.742,-53.162,-9.521
0.708,0.802,-0.461,-7.996,-58.716,-7.446
0.688,0.764,-0.468,-6.165,-59.021,-5.432
0.686,0.732,-0.464,-5.310,-55.115,-3.235
0.686,0.704,-0.457,-5.798,-48.035,-0.488
0.685,0.684,-0.449,-6.775,-39.795,2.869
0.684,0.668,-0.436,-7.935,-31.372,5.798
0.680,0.667,-0.432,-9.399,-23.621,8.362
0.673,0.662,-0.427,-10.010,-16.785,10.498
0.663,0.666,-0.418,-9.399,-10.864,11.841
0.660,0.669,-0.409,-7.324,-7.141,13.062
0.657,0.671,-0.400,-3.845,-5.127,13.916
0.648,0.673,-0.390,0.854,-4.395,13.855
0.647,0.659,-0.383,6.042,-4.700,12.146
0.656,0.644,-0.382,10.620,-6.042,9.277
0.654,0.641,-0.380,13.916,-7.446,6.165
0.645,0.646,-0.375,15.747,-8.667,4.028
0.631,0.642,-0.372,17.151,-8.911,2.014
0.623,0.634,-0.375,17.761,-7.874,0.671
0.622,0.643,-0.371,17.273,-5.615,-0.305
0.621,0.654,-0.356,17.334,-2.869,-2.136
0.629,0.658,-0.338,17.334,0.366,-3.784
0.649,0.637,-0.334,16.846,3.418,-5.310
0.687,0.625,-0.336,15.930,5.127,-6.226
0.705,0.625,-0.321,14.648,6.287,-8.057
0.714,0.623,-0.308,12.390,7.385,-9.583
0.717,0.632,-0.308,10.071,7.263,-9.155
0.713,0.634,-0.304,8.850,6.226,-7.751
0.708,0.623,-0.309,9.155,6.653,-7.690
0.726,0.627,-0.303,8.911,7.568,-7.507
0.721,0.657,-0.285,7.812,9.399,-7.141
0.705,0.671,-0.279,8.057,10.620,-5.859
0.687,0.656,-0.282,10.376,11.475,-4.028
0.704,0.644,-0.284,12.085,12.634,-2.747
0.713,0.640,-0.278,13.245,13.123,-2.930
0.703,0.644,-0.271,14.099,13.000,-3.296
0.687,0.648,-0.262,14.221,11.475,-3.235
0.648,0.636,-0.257,14.404,9.705,-3.113
0.626,0.625,-0.255,14.587,7.812,-3.052
0.640,0.613,-0.263,13.000,6.836,-2.869
0.658,0.620,-0.275,9.949,5.188,-3.662
0.672,0.628,-0.291,7.446,3.418,-4.883
0.666,0.646,-0.298,5.920,1.099,-5.554
0.656,0.647,-0.310,5.554,-0.549,-5.249
0.654,0.637,-0.333,5.310,-1.343,-4.028
0.652,0.630,-0.364,3.479,-0.305,-3.235
0.651,0.627,-0.390,0.671,3.662,-3.296
0.662,0.634,-0.406,-1.953,9.644,-3.296
0.673,0.650,-0.422,-4.089,16.846,-3.357
0.687,0.662,-0.421,-4.272,24.170,-2.808
0.698,0.662,-0.417,-3.052,30.212,-1.465
0.719,0.647,-0.417,-2.441,34.729,-0.977
0.742,0.635,-0.418,-2.441,37.415,-0.916
0.769,0.646,-0.408,-3.052,38.330,0.183
0.777,0.649,-0.399,-3.235,36.072,2.441
0.776,0.647,-0.390,-3.174,31.311,3.784
0.771,0.641,-0.384,-2.869,25.024,3.967
0.762,0.637,-0.385,-2.930,18.066,4.211
0.749,0.638,-0.383,-3.662,12.085,4.761
0.733,0.640,-0.377,-4.211,7.935,5.188
0.719,0.639,-0.373,-4.395,5.249,5.493
0.696,0.639,-0.375,-4.211,3.967,6.042
0.680,0.627,-0.375,-3.479,5.005,7.507
0.670,0.613,-0.367,-3.235,7.446,8.057
0.675,0.600,-0.358,-3.235,10.315,7.507
0.685,0.597,-0.346,-3.845,12.329,6.958
0.694,0.591,-0.335,-4.028,13.550,7.324
0.699,0.577,-0.329,-4.211,13.428,7.751
0.704,0.570,-0.326,-5.005,12.573,7.935
0.701,0.565,-0.328,-5.554,10.254,7.690
0.686,0.567,-0.330,-5.920,7.812,7.874
0.667,0.569,-0.330,-5.676,5.920,8.545
0.646,0.573,-0.332,-5.310,4.517,8.850
0.626,0.565,-0.333,-4.639,4.211,8.667
0.622,0.556,-0.333,-4.395,4.700,8.179
0.617,0.561,-0.328,-5.188,5.493,7.507
0.606,0.568,-0.323,-6.470,6.287,7.568
0.596,0.574,-0.323,-8.057,7.263,8.301
0.576,0.578,-0.326,-9.827,7.935,9.033
0.552,0.581,-0.332,-11.658,9.277,8.545
0.527,0.581,-0.332,-13.794,11.841,7.263
0.506,0.575,-0.335,-16.052,14.954,5.859
0.495,0.567,-0.337,-18.921,18.494,4.150
0.501,0.549,-0.354,-21.912,22.339,2.014
0.525,0.538,-0.371,-25.818,26.123,-0.427
0.552,0.542,-0.380,-29.297,29.480,-2.319
0.594,0.549,-0.386,-31.738,31.555,-3.174
0.633,0.551,-0.395,-32.654,31.494,-3.296
0.674,0.559,-0.398,-32.471,29.053,-3.357
0.708,0.556,-0.394,-31.128,24.597,-3.235
0.727,0.552,-0.397,-29.236,18.250,-2.563
0.731,0.550,-0.403,-27.161,10.986,-1.099
0.728,0.551,-0.400,-25.024,3.906,0.366
0.726,0.537,-0.394,-23.315,-2.014,2.441
0.720,0.516,-0.398,-22.888,-7.568,5.554
0.699,0.521,-0.398,-24.780,-12.390,9.460
0.666,0.534,-0.400,-26.184,-16.479,12.817

0.885,1.042,-0.716,14.343,17.212,75.256
0.957,1.089,-0.712,17.822,23.193,79.529
1.026,1.149,-0.716,18.433,22.217,83.801
1.105,1.236,-0.710,16.846,15.381,87.952
1.184,1.353,-0.682,15.320,2.441,91.980
1.222,1.427,-0.650,14.954,-17.090,96.008
1.258,1.499,-0.627,13.916,-42.725,100.891
1.270,1.633,-0.602,11.353,-72.205,106.995
1.213,1.737,-0.596,7.629,-102.356,114.868
1.107,1.759,-0.653,2.136,-128.052,123.291
1.016,1.855,-0.736,-6.470,-142.151,128.235
0.906,1.969,-0.778,-15.686,-141.174,128.296
0.801,2.014,-0.866,-24.048,-128.479,126.282
0.752,2.085,-0.931,-33.875,-105.225,121.521
0.751,2.170,-0.944,-43.640,-74.097,113.159
0.747,2.182,-0.951,-51.697,-43.213,102.234
0.801,2.245,-0.964,-58.594,-17.151,89.783
0.877,2.325,-0.932,-63.721,2.075,77.454
0.915,2.382,-0.950,-64.697,10.925,67.200
0.965,2.472,-0.978,-61.401,10.254,58.960
1.025,2.533,-0.989,-53.284,2.380,52.368
0.991,2.537,-1.082,-37.903,-13.550,48.157
0.876,2.515,-1.201,-16.113,-32.471,48.584
0.724,2.449,-1.290,5.737,-45.288,57.556
0.538,2.315,-1.336,26.184,-49.988,76.111
0.370,2.165,-1.336,42.725,-46.570,100.525
0.296,2.010,-1.269,54.382,-38.513,125.549
0.278,1.817,-1.157,62.134,-32.227,145.142
0.274,1.673,-1.038,66.223,-34.058,154.236
0.229,1.526,-0.908,66.162,-44.861,151.733
0.144,1.374,-0.811,66.528,-62.439,140.137
0.025,1.280,-0.734,68.665,-80.322,121.033
-0.103,1.172,-0.657,75.806,-91.980,96.863
-0.205,1.021,-0.597,88.074,-94.482,72.449
-0.282,0.892,-0.557,101.746,-88.745,49.011
-0.325,0.800,-0.533,113.831,-74.463,27.893
-0.332,0.704,-0.507,124.573,-53.345,10.742
-0.330,0.563,-0.470,134.766,-28.015,-0.183
-0.304,0.379,-0.430,144.775,-0.244,-3.540
-0.222,0.214,-0.362,150.818,29.541,-0.244
-0.088,0.061,-0.260,152.710,57.495,11.047
0.058,-0.078,-0.144,151.917,77.026,25.024
0.189,-0.222,-0.031,150.513,84.595,34.607
0.281,-0.369,0.061,149.414,78.735,36.621
0.347,-0.516,0.131,148.437,60.913,29.785
0.391,-0.681,0.200,146.057,35.889,16.602
0.438,-0.829,0.256,138.306,7.812,1.099
0.545,-0.918,0.298,124.023,-23.010,-15.015
0.628,-0.966,0.353,106.201,-59.265,-32.288
0.666,-0.995,0.390,89.355,-98.083,-50.354
0.669,-1.024,0.382,72.266,-136.414,-67.383
0.627,-1.072,0.337,55.786,-171.875,-81.299
0.538,-1.106,0.251,40.955,-200.012,-93.323
0.452,-1.110,0.165,28.564,-214.539,-104.736
0.396,-1.074,0.096,20.264,-214.539,-114.563
0.368,-1.033,0.037,14.954,-202.942,-121.094
0.368,-1.013,-0.008,11.108,-184.143,-123.779
0.413,-0.998,-0.028,6.042,-162.354,-121.948
0.484,-0.894,-0.004,-0.305,-142.700,-113.708
0.542,-1.041,-0.116,-6.897,-129.456,-98.938
0.505,-1.006,-0.129,-17.639,-114.990,-90.759
0.438,-0.866,-0.154,-30.151,-100.220,-78.186
0.347,-0.853,-0.250,-43.335,-86.548,-57.251
0.242,-0.830,-0.338,-59.082,-65.918,-35.950
0.087,-0.773,-0.442,-76.050,-37.231,-14.160
-0.009,-0.835,-0.528,-93.262,-0.366,9.033
-0.021,-0.551,-0.515,-110.107,43.701,22.034
-0.094,-1.035,-0.574,-118.286,86.304,47.424
-0.048,-0.401,-0.339,-122.681,121.582,46.692
-0.079,-0.277,-0.260,-120.178,144.836,64.941
0.053,-0.579,-0.306,-109.802,155.884,95.398
0.150,-0.356,-0.056,-102.600,172.546,104.675
0.128,-0.370,-0.140,-87.891,170.349,117.432
0.257,-0.281,0.043,-79.346,167.664,123.962
0.305,-0.269,0.027,-75.500,155.945,133.179
0.314,-0.190,0.057,-80.261,142.090,136.597
0.251,-0.008,0.027,-92.407,124.084,134.155
0.230,0.161,0.023,-105.408,106.445,129.089
0.273,0.291,0.033,-113.220,89.111,120.239
0.201,0.373,0.040,-108.398,69.946,107.788
0.064,0.529,0.042,-90.881,53.162,93.384
-0.063,0.664,0.049,-61.646,45.044,80.383
-0.170,0.723,0.048,-26.184,47.546,73.730
-0.265,0.808,0.015,8.179,60.181,72.632
-0.301,0.859,0.029,38.696,83.557,74.280
-0.308,0.816,0.049,64.087,110.413,77.515
-0.292,0.807,0.068,81.848,133.789,77.820
-0.255,0.882,0.120,88.745,149.353,73.669
-0.193,0.985,0.147,84.961,153.687,66.589
-0.135,1.076,0.139,73.303,147.217,55.664
-0.110,1.200,0.103,55.969,132.812,40.771
-0.093,1.297,0.080,37.720,114.868,24.109
-0.088,1.376,0.047,24.170,95.764,7.996
-0.092,1.493,-0.002,15.564,77.393,-6.104
-0.089,1.598,-0.061,9.094,62.134,-18.738
-0.100,1.670,-0.136,6.104,51.208,-29.724
-0.140,1.705,-0.223,6.287,46.570,-39.429
-0.153,1.745,-0.250,8.362,49.866,-48.340
-0.113,1.732,-0.229,16.479,58.838,-56.274
-0.068,1.670,-0.179,30.090,68.726,-65.674
-0.010,1.732,-0.098,44.189,76.111,-77.026
0.007,1.667,-0.038,59.326,79.163,-77.515
0.043,1.553,-0.018,72.205,80.017,-67.810
0.079,1.528,-0.033,79.895,82.153,-55.542
0.089,1.334,-0.017,82.031,86.487,-42.664
0.108,1.444,0.044,78.979,89.783,-38.757
0.092,1.393,0.126,73.547,91.675,-29.236
0.155,1.352,0.140,65.125,88.440,-14.221
0.132,1.276,0.195,52.307,84.473,-4.517
0.104,1.219,0.207,40.344,73.792,3.113
0.105,1.288,0.260,27.466,63.721,7.324
0.082,1.287,0.254,14.526,50.659,9.094
0.077,1.380,0.276,1.892,35.645,3.906
0.006,1.421,0.279,-7.751,20.203,-4.700
-0.030,1.314,0.240,-13.550,4.944,-13.916
-0.056,1.270,0.193,-19.226,-6.470,-28.870
-0.104,1.236,0.175,-25.696,-11.963,-47.668
-0.118,1.243,0.150,-31.372,-13.184,-68.481
-0.132,1.288,0.118,-34.668,-9.644,-88.989

1.028,1.182,-0.640,-8.789,54.871,32.349
1.133,1.281,-0.681,-7.080,51.270,33.997
1.215,1.362,-0.732,-5.615,45.410,35.461
1.296,1.438,-0.786,-6.348,38.330,36.865
1.402,1.537,-0.827,-9.766,31.128,38.879
1.511,1.635,-0.885,-15.198,23.437,40.955
1.620,1.741,-0.928,-20.996,13.367,44.495
1.685,1.870,-0.988,-25.879,1.648,51.086
1.706,1.972,-1.078,-29.053,-11.230,60.486
1.729,2.105,-1.201,-29.663,-22.705,71.411
1.731,2.239,-1.317,-25.696,-32.104,82.275
1.687,2.320,-1.418,-15.808,-36.438,92.834
1.583,2.343,-1.504,-3.052,-33.203,101.440
1.451,2.238,-1.577,9.766,-20.996,104.919
1.350,2.159,-1.613,18.616,0.061,98.694
1.251,2.030,-1.603,20.508,25.208,83.008
1.198,1.856,-1.609,15.930,46.753,60.730
1.187,1.704,-1.585,5.737,63.904,32.959
1.137,1.595,-1.562,-8.850,73.853,3.662
1.055,1.527,-1.571,-24.658,77.759,-20.813
1.005,1.530,-1.599,-41.199,78.857,-34.912
1.000,1.623,-1.627,-57.861,76.538,-35.400
0.972,1.765,-1.629,-69.580,70.251,-22.644
0.971,1.907,-1.608,-71.960,59.692,3.174
0.943,1.997,-1.559,-63.477,44.861,39.246
0.867,2.028,-1.472,-43.945,27.039,78.796
0.748,1.907,-1.352,-13.306,8.667,117.615
0.627,1.692,-1.193,23.132,-8.179,150.757
0.531,1.424,-1.011,58.960,-25.696,175.293
0.415,1.183,-0.824,88.867,-46.753,188.171
0.237,0.971,-0.676,113.953,-69.580,190.979
0.035,0.796,-0.541,135.559,-90.027,186.218
-0.146,0.622,-0.458,153.748,-104.004,176.147
-0.323,0.444,-0.441,169.617,-110.596,162.292
-0.474,0.312,-0.398,182.495,-105.774,148.376
-0.552,0.180,-0.322,194.458,-89.294,138.550
-0.567,0.008,-0.246,208.557,-66.895,133.789
-0.553,-0.163,-0.145,224.243,-43.335,131.287
-0.515,-0.339,-0.030,241.882,-21.240,129.211
-0.468,-0.551,0.061,262.939,-3.784,126.587
-0.418,-0.878,0.125,284.607,7.996,119.812
-0.359,-1.296,0.159,299.255,16.602,103.638
-0.284,-1.734,0.166,303.284,22.583,70.984
-0.210,-2.125,0.168,292.419,27.832,20.325
-0.145,-2.377,0.148,262.085,32.166,-41.687
-0.070,-2.516,0.106,212.341,33.081,-103.638
0.080,-2.590,0.044,146.851,29.236,-155.273
0.330,-2.535,0.002,72.266,20.020,-191.284
0.641,-2.300,-0.046,-1.892,0.671,-206.360
0.893,-2.033,-0.100,-65.002,-34.485,-194.824
1.060,-1.812,-0.139,-111.023,-85.144,-164.490
1.130,-1.586,-0.225,-140.747,-142.212,-126.831
1.034,-1.529,-0.401,-155.518,-195.801,-88.501
0.767,-1.202,-0.551,-158.813,-234.558,-62.317
0.555,-1.016,-0.478,-149.292,-253.296,-25.757
0.448,-1.077,-0.707,-126.038,-257.690,7.141
0.110,-1.025,-0.755,-102.783,-233.887,19.165
-0.187,-0.850,-0.683,-81.543,-184.143,28.687
-0.349,-0.623,-0.506,-55.176,-122.559,36.743
-0.428,-0.691,-0.488,-23.376,-57.678,48.706
-0.439,-0.754,-0.368,4.211,11.658,49.561
-0.453,-0.615,-0.212,25.757,74.890,47.852
-0.292,-0.666,-0.079,44.800,122.009,57.495
-0.092,-0.739,-0.006,55.664,150.635,66.406
0.016,-0.840,0.015,57.617,164.978,70.862
0.126,-0.879,0.115,48.279,171.082,68.665
0.257,-0.681,0.323,31.677,164.612,65.674
0.334,-0.727,0.235,10.193,136.658,76.538
0.387,-0.678,0.199,-21.790,110.229,89.417
0.380,-0.409,0.291,-57.922,87.280,97.900
0.358,-0.333,0.187,-84.412,57.983,110.229
0.340,-0.132,0.148,-102.173,34.607,114.868
0.219,0.247,0.251,-106.445,19.104,110.535
0.084,0.478,0.277,-91.125,2.319,106.445
0.047,0.590,0.311,-57.861,-14.160,104.004
-0.061,0.689,0.251,-16.724,-25.391,100.220
-0.351,0.745,0.156,24.719,-23.621,96.375
-0.470,0.908,0.178,59.753,-3.174,93.445
-0.523,0.992,0.174,87.952,25.330,90.210
-0.466,1.032,0.241,102.356,61.523,85.815
-0.336,1.179,0.349,103.577,92.773,72.510
-0.132,1.357,0.454,93.262,110.474,51.880
0.035,1.591,0.496,72.693,109.680,28.503
0.181,1.800,0.564,42.786,91.553,8.972
0.250,2.005,0.541,11.353,58.655,-5.005
0.216,2.116,0.431,-18.982,17.395,-12.573
0.132,2.092,0.270,-48.462,-23.499,-13.245
0.032,2.052,0.075,-72.388,-57.556,-13.062
-0.104,2.010,-0.120,-91.248,-79.468,-16.479
-0.234,2.045,-0.213,-104.065,-85.266,-25.818
-0.366,2.120,-0.254,-102.417,-75.134,-42.114
-0.472,2.163,-0.298,-82.642,-50.659,-61.218
-0.504,2.151,-0.298,-52.124,-15.625,-79.224
-0.434,2.121,-0.232,-17.090,24.780,-97.961
-0.324,2.031,-0.135,19.104,61.890,-120.911
-0.245,1.845,-0.060,54.382,86.914,-149.109
-0.100,1.634,-0.007,82.581,102.539,-176.086
0.062,1.199,-0.031,100.220,112.244,-200.989
0.208,1.339,0.181,99.854,117.920,-233.093
0.345,1.048,0.217,91.614,109.375,-228.943
0.602,0.749,0.199,66.223,90.271,-206.360
0.714,0.591,0.142,21.667,67.261,-190.002
0.729,0.670,0.134,-33.386,42.358,-182.739
0.638,0.699,0.024,-87.769,15.747,-171.875
0.698,0.734,-0.096,-131.287,-6.470,-161.438
0.633,0.904,-0.244,-161.072,-20.203,-163.696
0.492,0.883,-0.403,-171.997,-20.752,-167.358
0.513,1.096,-0.346,-168.274,-6.531,-174.561
0.513,1.049,-0.453,-148.682,5.737,-174.988
0.583,1.037,-0.521,-126.221,24.963,-178.040
0.664,1.106,-0.490,-105.774,49.194,-184.998
0.749,1.097,-0.555,-88.440,67.444,-189.453
0.902,1.052,-0.570,-74.219,79.834,-189.636
1.037,1.066,-0.566,-66.589,86.975,-190.613
1.145,1.115,-0.527,-64.758,86.243,-187.744
1.273,1.108,-0.484,-65.857,75.928,-176.819
1.376,1.077,-0.495,-68.970,55.542,-162.842
1.427,1.044,-0.532,-73.730,31.677,-150.208
1.402,1.030,-0.536,-77.148,11.536,-139.832

1.358,0.938,-0.517,-69.519,-15.137,-115.112
1.393,0.834,-0.537,-64.087,-24.414,-103.088
1.387,0.838,-0.503,-59.387,-30.396,-96.680
1.348,0.840,-0.481,-52.246,-35.217,-89.294
1.274,0.809,-0.464,-43.457,-39.978,-78.613
1.190,0.818,-0.434,-35.278,-42.664,-67.383
1.084,0.813,-0.411,-27.222,-44.434,-55.786
0.980,0.795,-0.394,-19.165,-45.654,-45.776
0.871,0.770,-0.376,-12.878,-45.166,-38.147
0.782,0.737,-0.374,-9.338,-43.152,-32.104
0.708,0.707,-0.389,-8.850,-39.246,-29.236
0.653,0.729,-0.387,-10.254,-32.288,-28.931
0.636,0.737,-0.408,-10.986,-23.743,-26.550
0.635,0.722,-0.442,-10.742,-13.855,-22.583
0.653,0.759,-0.433,-9.583,-2.625,-20.813
0.688,0.786,-0.415,-7.019,7.385,-19.043
0.740,0.751,-0.423,-2.991,13.916,-16.357
0.822,0.718,-0.433,-0.427,17.639,-14.954
0.910,0.705,-0.437,0.122,18.433,-15.015
0.977,0.679,-0.457,-0.610,15.930,-14.038
1.046,0.656,-0.482,-2.319,11.841,-11.230
1.098,0.664,-0.493,-4.883,6.714,-7.019
1.111,0.659,-0.507,-5.859,0.793,-1.526
1.117,0.635,-0.520,-6.165,-4.211,5.615
1.110,0.605,-0.537,-6.592,-7.812,11.597
1.079,0.571,-0.558,-7.507,-8.972,14.526
1.047,0.541,-0.555,-8.240,-6.531,15.137
1.055,0.561,-0.524,-9.949,-2.625,15.564
1.060,0.538,-0.523,-10.254,-1.099,18.738
1.025,0.519,-0.517,-9.644,-1.038,23.132
1.002,0.542,-0.500,-9.521,-0.488,26.428
0.954,0.514,-0.512,-7.385,-0.671,30.090
0.906,0.512,-0.504,-5.188,0.122,32.288
0.851,0.520,-0.492,-3.174,1.953,32.410
0.794,0.517,-0.479,-0.427,4.150,32.104
0.752,0.514,-0.459,2.258,6.714,32.471
0.724,0.514,-0.436,4.822,9.399,32.593
0.702,0.509,-0.414,7.324,11.353,31.555
0.688,0.497,-0.397,10.071,12.573,30.151
0.683,0.489,-0.378,11.597,13.245,27.344
0.699,0.488,-0.368,12.390,13.550,24.597
0.712,0.507,-0.351,13.428,12.634,22.644
0.719,0.521,-0.335,15.503,10.559,21.484
0.726,0.513,-0.333,18.311,6.714,20.325
0.729,0.524,-0.325,20.447,2.747,19.470
0.734,0.500,-0.317,23.193,-1.282,19.409
0.748,0.481,-0.306,24.597,-5.737,19.592
0.764,0.486,-0.292,23.987,-11.108,19.592
0.753,0.496,-0.292,22.583,-17.883,19.287
0.741,0.514,-0.285,21.179,-24.536,18.494
0.740,0.533,-0.295,20.142,-30.396,18.372
0.728,0.539,-0.313,18.921,-35.339,18.433
0.717,0.545,-0.326,17.761,-36.621,16.541
0.701,0.564,-0.324,16.968,-34.180,13.062
0.690,0.577,-0.330,17.334,-29.602,9.888
0.689,0.572,-0.326,18.982,-23.499,9.338
0.685,0.557,-0.322,19.958,-16.418,9.949
0.688,0.537,-0.306,20.630,-10.376,10.986
0.708,0.523,-0.304,19.531,-6.775,10.986
0.725,0.514,-0.299,16.907,-4.822,10.376
0.743,0.520,-0.294,13.550,-4.517,9.949
0.732,0.549,-0.292,10.803,-5.615,9.766
0.709,0.577,-0.292,9.705,-7.141,9.949
0.694,0.584,-0.297,10.742,-7.996,10.071
0.663,0.561,-0.295,12.451,-7.874,9.033
0.654,0.550,-0.293,12.695,-6.104,6.775
0.665,0.551,-0.280,11.414,-3.784,4.639
0.700,0.550,-0.274,9.583,-1.831,3.479
0.726,0.563,-0.269,6.592,-0.977,3.235
0.740,0.580,-0.266,3.723,-1.038,2.991
0.748,0.592,-0.262,1.831,-1.282,2.808
0.758,0.593,-0.260,0.488,-2.014,2.686
0.767,0.587,-0.262,-1.160,-3.357,2.197
0.769,0.600,-0.264,-3.296,-4.517,2.075
0.772,0.616,-0.270,-4.944,-5.371,2.502
0.767,0.625,-0.271,-5.249,-5.554,3.296
0.779,0.625,-0.272,-4.150,-5.127,3.784
0.799,0.614,-0.263,-3.296,-4.395,4.150
0.818,0.603,-0.255,-3.906,-4.639,4.028
0.842,0.604,-0.261,-5.493,-6.409,4.578
0.843,0.613,-0.272,-7.507,-8.850,5.310
0.834,0.614,-0.279,-7.874,-10.803,6.287
0.834,0.606,-0.284,-7.751,-11.658,7.324
0.833,0.597,-0.294,-8.240,-11.597,7.385
0.819,0.598,-0.298,-8.728,-11.169,6.531
0.802,0.597,-0.288,-9.521,-9.949,6.165
0.791,0.621,-0.296,-9.644,-9.460,6.409
0.765,0.620,-0.290,-7.080,-9.094,6.287
0.744,0.609,-0.303,-4.150,-7.019,4.883
0.753,0.600,-0.283,-0.854,-4.944,3.662
0.763,0.583,-0.273,2.014,-3.845,2.319
0.774,0.574,-0.267,3.479,-4.639,1.648
0.776,0.558,-0.258,4.272,-6.226,2.075
0.770,0.560,-0.265,3.784,-8.179,3.113
0.752,0.578,-0.255,3.174,-9.644,3.723
0.739,0.579,-0.258,3.357,-10.071,3.235
0.742,0.570,-0.254,4.883,-9.399,2.808
0.747,0.573,-0.238,5.798,-8.179,3.235
0.754,0.577,-0.228,6.287,-8.362,4.944
0.750,0.567,-0.234,7.751,-9.460,6.897
0.748,0.560,-0.210,9.216,-9.705,7.507
0.736,0.562,-0.200,9.949,-11.108,8.179
0.713,0.540,-0.181,10.681,-12.085,8.850
0.704,0.531,-0.189,9.949,-11.963,9.521
0.725,0.519,-0.158,9.277,-11.292,9.521
0.717,0.526,-0.153,7.141,-11.169,8.301
0.724,0.513,-0.156,4.944,-12.512,6.592
0.712,0.532,-0.161,3.296,-12.756,5.371
0.713,0.528,-0.153,2.380,-12.756,4.761
0.698,0.524,-0.167,0.854,-11.719,4.578
0.711,0.510,-0.175,-0.793,-10.010,3.662
0.696,0.518,-0.176,-2.502,-8.301,2.747
0.696,0.514,-0.193,-4.456,-6.287,1.587
0.721,0.527,-0.189,-5.920,-3.662,0.000
0.719,0.542,-0.188,-7.568,-1.038,-1.587
0.732,0.539,-0.217,-7.935,0.977,-1.160
0.756,0.549,-0.242,-6.348,3.052,-0.549
0.748,0.551,-0.239,-4.456,5.493,-0.610
0.723,0.541,-0.237,-3.235,6.836,-1.343

1.220,0.905,-0.776,-19.775,43.884,13.306
1.332,1.053,-0.857,-13.916,60.852,23.010
1.443,1.198,-0.884,-4.639,77.148,38.025
1.511,1.302,-0.875,7.629,85.693,55.237
1.600,1.386,-0.873,20.203,84.351,71.960
1.642,1.472,-0.894,30.029,74.768,87.891
1.636,1.621,-0.945,36.621,62.012,103.394
1.586,1.783,-1.000,43.457,52.795,119.263
1.569,1.886,-1.042,52.795,52.673,135.498
1.595,1.996,-1.044,63.477,60.852,149.780
1.634,2.120,-1.030,74.524,73.242,161.621
1.714,2.227,-0.997,86.609,86.670,175.781
1.830,2.345,-0.928,101.929,96.375,192.261
1.877,2.435,-0.878,121.155,97.412,207.397
1.906,2.477,-0.830,140.503,89.417,222.107
1.878,2.512,-0.774,154.846,71.716,233.398
1.829,2.597,-0.723,160.706,45.410,240.112
1.763,2.728,-0.679,159.485,15.564,242.126
1.566,2.759,-0.730,153.870,-13.489,240.173
1.388,2.724,-0.861,140.808,-31.189,235.168
1.238,2.727,-0.929,118.469,-28.137,224.304
1.026,2.754,-0.966,93.872,-7.935,208.740
0.864,2.819,-0.975,72.083,23.193,195.190
0.674,2.875,-0.974,59.937,58.472,183.350
0.528,2.852,-0.910,58.533,91.064,171.265
0.482,2.734,-0.821,64.209,112.244,160.034
0.395,2.642,-0.732,70.435,116.150,148.682
0.256,2.663,-0.576,74.585,102.234,142.822
0.051,2.713,-0.452,78.918,68.237,148.987
-0.221,2.744,-0.346,82.642,17.395,168.884
-0.556,2.635,-0.335,83.740,-44.250,195.374
-0.941,2.392,-0.422,82.397,-105.042,207.520
-1.344,2.154,-0.521,76.294,-146.484,188.477
-1.641,1.883,-0.632,68.176,-160.217,140.503
-1.724,1.608,-0.681,64.636,-144.897,72.754
-1.651,1.355,-0.627,70.984,-109.741,-0.366
-1.437,1.058,-0.499,89.539,-66.650,-63.965
-1.085,0.690,-0.307,117.310,-27.344,-110.474
-0.749,0.246,-0.090,151.184,-2.625,-138.000
-0.445,-0.318,0.131,187.256,4.822,-147.583
-0.288,-0.899,0.253,215.271,-2.502,-145.508
-0.369,-1.551,0.196,231.628,-16.296,-140.747
-0.491,-2.336,0.099,231.750,-22.217,-133.667
-0.539,-3.200,-0.104,208.313,-20.691,-132.874
-0.562,-3.998,-0.337,162.292,-12.207,-148.682
-0.407,-4.000,-0.597,96.863,3.357,-181.702
0.120,-4.000,-0.863,15.503,15.564,-219.604
1.037,-4.000,-0.933,-73.242,10.193,-252.075
1.943,-3.993,-0.692,-141.663,-26.489,-276.733
2.698,-3.166,-0.474,-161.194,-106.323,-285.889
3.126,-2.361,-0.499,-133.606,-226.562,-275.757
2.865,-1.648,-0.705,-76.294,-357.056,-244.080
1.850,-1.312,-1.155,-12.207,-452.393,-187.439
0.632,-1.249,-1.559,27.588,-465.942,-115.784
-0.350,-1.109,-1.785,24.719,-383.301,-38.086
-0.948,-0.967,-1.856,-10.864,-225.281,38.513
-1.208,-1.250,-1.789,-53.955,-31.067,110.046
-1.142,-0.467,-0.826,-83.557,161.011,146.423
-0.660,-0.502,-0.634,-79.956,284.363,192.261
-0.415,-0.756,-0.401,-63.843,334.290,230.835
-0.172,-0.717,0.248,-43.152,342.590,241.394
-0.060,-0.716,0.544,-8.972,295.044,225.342
-0.110,-0.606,0.783,21.240,217.651,195.923
-0.048,-0.947,0.597,40.771,128.113,173.645
-0.151,-1.044,0.511,38.086,56.763,134.827
-0.178,-0.767,0.547,23.437,13.367,96.558
0.005,-0.764,0.517,11.414,-15.869,81.543
0.083,-0.694,0.496,-1.160,-34.363,71.899
0.035,-0.527,0.518,-13.245,-39.612,71.838
0.092,-0.348,0.554,-20.020,-33.875,76.904
0.063,-0.345,0.489,-20.447,-20.996,79.346
0.077,-0.313,0.467,-21.912,1.404,76.904
0.144,-0.232,0.457,-26.489,28.809,75.073
0.200,-0.100,0.424,-33.813,53.955,75.867
0.245,0.182,0.460,-41.077,74.158,76.904
0.331,0.233,0.469,-44.556,84.290,84.717
0.327,0.258,0.445,-44.678,85.510,86.487
0.214,0.375,0.404,-43.884,83.923,79.102
0.044,0.714,0.375,-40.466,83.557,67.444
-0.075,1.008,0.408,-28.564,83.984,63.232
-0.078,1.033,0.301,-5.188,82.458,63.232
-0.196,1.225,0.408,24.109,86.365,52.063
-0.134,1.313,0.484,54.871,86.853,47.546
-0.050,1.291,0.522,78.796,82.581,43.274
-0.033,1.355,0.653,88.562,78.125,36.743
-0.001,1.391,0.685,84.106,66.040,34.790
-0.056,1.445,0.657,68.176,51.331,33.325
-0.154,1.537,0.586,44.250,39.734,28.076
-0.246,1.638,0.459,15.503,29.114,22.034
-0.422,1.747,0.248,-13.977,19.165,15.747
-0.580,1.802,0.043,-42.419,15.015,6.165
-0.651,1.784,-0.121,-63.904,20.203,-8.240
-0.656,1.858,-0.196,-75.928,33.081,-33.020
-0.511,2.129,-0.085,-77.637,49.133,-64.148
-0.481,1.655,-0.339,-67.322,56.702,-89.722
-0.230,2.092,0.011,-55.359,67.627,-129.883
0.024,2.128,-0.090,-36.011,58.899,-143.005
0.231,1.950,0.004,-13.733,46.936,-143.921
0.241,1.618,-0.024,9.094,33.020,-149.048
0.312,1.778,-0.005,24.780,26.733,-157.410
0.283,1.574,0.059,36.255,31.921,-146.606
0.420,1.393,0.094,41.687,33.752,-131.470
0.457,1.278,0.141,35.400,36.804,-118.225
0.427,1.282,0.245,19.348,40.039,-103.516
0.431,1.299,0.312,0.183,38.452,-86.426
0.440,1.442,0.383,-17.822,33.936,-76.782
0.433,1.454,0.368,-31.860,25.208,-71.289
0.415,1.476,0.333,-44.556,16.479,-72.876
0.405,1.459,0.286,-57.739,9.216,-78.613
0.399,1.395,0.215,-72.144,2.319,-86.304
0.374,1.407,0.147,-87.036,-1.831,-95.337
0.364,1.407,0.097,-98.450,-2.014,-99.854
0.426,1.412,0.066,-103.943,1.099,-99.915
0.479,1.402,0.048,-104.370,5.798,-95.886
0.547,1.374,0.028,-101.563,9.888,-89.783
0.584,1.341,0.021,-96.191,12.451,-86.243
0.624,1.298,0.003,-89.905,12.024,-85.876
0.682,1.223,-0.027,-85.938,8.423,-86.182
0.732,1.153,-0.060,-84.473,2.502,-87.769

0.989,1.461,-0.649,32.532,-4.150,84.656
1.192,1.631,-0.713,34.119,3.479,92.163
1.419,1.790,-0.753,37.354,10.803,100.891
1.621,1.963,-0.756,40.588,14.526,109.619
1.808,2.094,-0.782,41.565,10.742,119.934
1.928,2.188,-0.823,36.072,2.502,129.456
1.926,2.262,-0.870,20.996,-5.371,135.986
1.885,2.354,-0.957,-2.441,-7.751,139.709
1.870,2.451,-1.022,-27.771,-0.977,140.076
1.874,2.664,-1.133,-44.983,11.292,137.268
1.872,2.859,-1.090,-45.227,23.682,135.315
1.904,2.974,-1.058,-32.227,31.860,140.015
1.833,2.928,-1.057,-13.062,32.471,149.963
1.695,2.820,-1.073,3.845,30.090,160.706
1.561,2.663,-1.125,15.869,28.137,163.147
1.286,2.530,-1.138,20.691,28.625,152.710
1.030,2.513,-1.130,21.851,29.480,137.878
0.745,2.451,-1.151,23.437,29.846,125.916
0.531,2.428,-1.130,24.841,29.907,116.882
0.388,2.450,-1.178,28.687,26.123,110.474
0.298,2.504,-1.160,33.936,20.142,104.065
0.200,2.525,-1.193,44.983,10.071,104.309
0.101,2.487,-1.191,58.777,-2.075,109.680
-0.029,2.406,-1.190,72.998,-14.954,117.004
-0.181,2.338,-1.151,86.975,-27.161,122.131
-0.314,2.162,-1.066,99.304,-36.377,124.573
-0.438,1.968,-0.978,111.816,-47.363,122.620
-0.581,1.798,-0.863,123.718,-58.960,112.610
-0.714,1.646,-0.724,134.583,-66.223,95.581
-0.835,1.455,-0.620,147.278,-68.909,72.632
-0.954,1.246,-0.557,164.124,-64.026,44.983
-1.009,0.956,-0.475,186.035,-44.067,17.761
-0.965,0.587,-0.336,212.585,-9.888,-5.371
-0.861,0.065,-0.143,241.272,29.785,-25.085
-0.727,-0.616,0.065,268.127,67.200,-42.786
-0.565,-1.336,0.274,284.180,96.924,-57.251
-0.309,-2.148,0.401,279.419,114.319,-69.519
0.058,-2.984,0.480,241.394,114.502,-79.773
0.428,-3.768,0.503,171.509,92.834,-95.459
0.681,-4.000,0.347,86.670,55.054,-132.935
0.821,-4.000,0.013,-5.920,13.489,-191.528
1.104,-4.000,-0.316,-104.004,-27.222,-249.146
1.567,-3.836,-0.438,-185.730,-70.923,-283.386
2.120,-2.828,-0.431,-217.407,-127.502,-289.795
2.494,-2.158,-0.485,-194.275,-208.008,-268.982
2.401,-1.822,-0.802,-138.916,-300.110,-226.807
1.874,-1.664,-1.208,-79.285,-370.850,-161.865
0.970,-1.089,-1.534,-39.551,-392.334,-87.463
0.027,-0.778,-1.718,-24.902,-348.633,5.798
-0.702,-1.010,-1.848,-24.658,-239.624,89.661
-1.348,-1.020,-1.625,-36.682,-81.299,146.912
-1.336,-0.953,-1.098,-42.542,83.618,190.979
-1.282,-0.950,-0.728,-24.109,211.121,221.008
-0.855,-1.165,-0.252,2.319,288.391,247.009
-0.441,-1.248,0.146,28.564,310.486,243.530
-0.194,-1.435,0.441,43.152,285.583,218.201
0.016,-1.502,0.629,40.527,226.746,184.753
0.172,-1.533,0.689,26.733,153.809,157.043
0.185,-1.434,0.644,7.507,84.106,136.169
0.010,-1.267,0.500,-5.554,31.738,119.568
0.005,-0.770,0.573,-7.812,8.911,108.215
-0.156,-0.836,0.260,3.235,8.423,110.657
-0.044,-0.370,0.866,10.864,41.016,109.863
0.268,-0.354,0.672,25.085,49.683,126.038
0.501,-0.602,0.601,29.968,36.743,143.982
0.373,-0.347,0.763,12.329,28.076,136.475
0.219,-0.051,0.702,-5.432,10.071,122.925
0.073,0.180,0.607,-17.029,-4.150,109.009
-0.056,0.385,0.512,-26.062,-7.019,93.445
-0.206,0.557,0.415,-32.410,-0.977,77.454
-0.305,0.685,0.372,-35.522,16.418,59.998
-0.333,0.762,0.362,-35.400,41.199,41.931
-0.364,0.796,0.350,-33.936,65.613,25.391
-0.336,0.798,0.326,-30.823,85.999,11.108
-0.321,0.866,0.326,-26.489,101.257,-1.099
-0.325,1.038,0.315,-20.691,110.596,-7.385
-0.306,1.284,0.281,-13.733,113.464,-8.789
-0.275,1.562,0.247,-6.042,109.924,-9.094
-0.231,1.766,0.260,0.549,100.220,-10.437
-0.227,1.867,0.273,5.798,83.374,-13.489
-0.296,1.968,0.254,6.836,62.805,-18.250
-0.359,2.047,0.212,2.197,43.579,-22.217
-0.420,2.035,0.169,-7.568,27.649,-26.672
-0.469,1.941,0.128,-19.470,14.832,-35.095
-0.470,1.868,0.070,-32.166,6.470,-48.950
-0.420,1.945,-0.005,-45.288,3.296,-68.054
-0.368,1.867,-0.085,-57.983,2.258,-87.952
-0.260,1.767,-0.218,-67.749,2.869,-106.323
-0.141,1.821,-0.339,-76.416,8.972,-127.686
-0.068,1.805,-0.429,-81.726,21.118,-147.644
-0.018,1.680,-0.500,-80.750,37.537,-160.645
0.084,1.563,-0.503,-76.050,60.303,-167.603
0.280,1.535,-0.444,-72.754,83.740,-167.175
0.419,1.508,-0.348,-70.007,98.572,-159.912
0.561,1.475,-0.260,-66.589,100.830,-146.912
0.672,1.500,-0.170,-63.354,91.614,-131.409
0.659,1.518,-0.123,-58.533,72.327,-117.493
0.602,1.451,-0.120,-53.223,48.523,-105.408
0.555,1.474,-0.124,-50.842,26.123,-100.098
0.524,1.497,-0.089,-51.453,7.446,-99.487
0.503,1.581,-0.082,-54.077,-11.658,-101.196
0.505,1.533,-0.172,-58.777,-31.616,-96.497
0.450,1.620,-0.197,-65.796,-43.640,-94.910
0.346,1.472,-0.275,-70.618,-48.584,-92.651
0.308,1.573,-0.296,-77.515,-46.143,-94.299
0.361,1.364,-0.402,-84.045,-39.246,-89.478
0.543,1.400,-0.358,-92.102,-29.480,-94.055
0.633,1.438,-0.406,-97.229,-23.743,-103.088
0.707,1.039,-0.494,-97.900,-22.095,-110.229
0.672,1.669,-0.385,-100.708,-18.311,-129.883
0.834,1.334,-0.417,-90.027,-8.362,-110.657
0.942,0.986,-0.603,-70.679,-21.912,-94.055
0.833,1.161,-0.461,-65.247,-20.203,-100.220
0.840,1.116,-0.432,-56.885,-21.423,-98.694
0.849,0.881,-0.478,-48.218,-24.841,-88.440
0.839,0.936,-0.407,-48.645,-25.330,-86.304
0.837,0.975,-0.350,-50.842,-27.161,-82.947
0.796,0.895,-0.364,-50.049,-32.715,-75.317
0.730,0.906,-0.349,-49.988,-35.217,-67.749

0.866,1.578,-0.947,-20.386,53.772,37.292
1.144,1.852,-1.122,-22.278,67.688,43.518
1.490,2.141,-1.275,-20.508,79.651,53.101
1.851,2.430,-1.412,-14.465,86.914,65.979
2.181,2.735,-1.543,-3.296,87.036,82.031
2.444,2.978,-1.678,14.832,83.801,100.342
2.634,3.148,-1.839,38.574,81.482,119.446
2.778,3.300,-1.953,64.575,86.670,139.587
2.866,3.328,-1.972,91.980,97.717,162.292
2.971,3.271,-1.916,119.507,107.239,184.509
2.910,3.199,-1.801,144.897,105.530,203.125
2.694,3.132,-1.649,168.274,90.942,218.445
2.387,3.010,-1.498,187.561,70.251,231.445
2.019,2.815,-1.374,198.914,50.293,239.746
1.611,2.570,-1.258,195.129,35.583,241.516
1.233,2.377,-1.147,174.683,29.968,236.816
0.910,2.246,-1.068,143.005,35.400,223.633
0.627,2.146,-1.018,108.398,51.270,203.552
0.501,2.016,-0.977,78.125,72.937,180.603
0.367,1.935,-0.940,55.115,94.604,149.109
0.228,1.889,-0.809,41.992,115.112,115.112
0.166,1.697,-0.698,40.039,125.916,91.309
0.135,1.492,-0.563,42.969,125.427,73.730
0.108,1.281,-0.430,48.889,113.464,59.937
0.108,1.053,-0.314,57.617,90.515,51.636
0.108,0.830,-0.204,66.528,59.875,44.067
0.057,0.643,-0.123,75.073,24.597,34.424
-0.021,0.477,-0.070,83.191,-8.789,23.254
-0.102,0.323,-0.043,90.149,-35.583,11.414
-0.172,0.185,-0.033,94.849,-53.894,-0.061
-0.210,0.085,-0.031,96.680,-63.904,-9.521
-0.260,0.015,-0.036,97.168,-66.406,-19.165
-0.293,-0.036,-0.038,96.375,-59.387,-28.381
-0.295,-0.091,-0.047,95.825,-46.326,-35.828
-0.276,-0.136,-0.024,96.558,-29.236,-40.344
-0.261,-0.225,0.006,97.534,-10.315,-41.504
-0.232,-0.395,0.008,96.558,6.958,-38.025
-0.225,-0.545,0.023,92.285,23.987,-36.316
-0.220,-0.722,0.042,84.290,40.710,-36.377
-0.198,-0.954,0.027,73.608,54.016,-40.344
-0.154,-1.118,0.048,59.021,65.247,-48.950
-0.065,-1.257,0.090,42.725,70.923,-58.105
0.071,-1.419,0.133,26.733,68.665,-69.031
0.227,-1.570,0.161,10.681,57.495,-85.754
0.383,-1.671,0.173,-6.042,37.781,-105.408
0.589,-1.714,0.179,-21.362,9.399,-122.253
0.835,-1.732,0.178,-35.095,-26.672,-134.644
1.089,-1.726,0.171,-44.922,-70.496,-144.165
1.262,-1.692,0.139,-48.950,-119.446,-151.855
1.333,-1.587,0.075,-47.852,-169.678,-152.405
1.339,-1.450,-0.018,-44.678,-216.919,-140.747
1.279,-1.363,-0.143,-40.100,-256.409,-117.798
1.136,-1.291,-0.273,-38.086,-282.349,-91.187
0.904,-1.268,-0.403,-38.147,-288.757,-67.749
0.603,-1.032,-0.501,-41.870,-272.217,-50.110
0.306,-0.997,-0.591,-49.438,-234.375,-22.766
0.155,-1.073,-0.723,-63.538,-175.781,3.296
-0.056,-0.913,-0.736,-85.266,-103.027,18.738
-0.175,-0.768,-0.690,-107.361,-27.039,37.598
-0.154,-0.701,-0.586,-123.291,40.771,55.054
-0.002,-0.604,-0.346,-132.324,93.567,71.289
0.234,-0.404,-0.048,-130.859,118.958,86.121
0.157,-0.461,-0.060,-118.652,115.173,99.426
-0.234,-0.282,-0.021,-107.544,105.713,96.680
-0.503,0.055,0.084,-86.975,108.398,95.215
-0.583,0.425,0.304,-58.472,117.310,99.121
-0.693,0.682,0.351,-34.363,114.929,102.600
-0.516,0.762,0.291,-17.395,100.037,115.845
-0.299,0.530,0.245,-10.742,70.251,135.315
-0.286,0.477,0.116,-23.132,37.109,129.517
-0.098,0.528,0.120,-41.016,7.263,120.422
-0.046,0.347,-0.093,-49.866,-19.836,106.079
-0.119,0.391,-0.050,-53.650,-25.940,85.693
-0.204,0.441,-0.099,-43.762,-12.878,75.378
-0.250,0.477,-0.057,-20.264,16.113,76.050
-0.245,0.576,-0.016,10.254,53.406,82.703
-0.159,0.590,0.042,44.006,86.975,93.567
-0.001,0.586,0.162,73.486,108.521,97.717
0.073,0.545,0.265,93.994,108.276,89.600
0.094,0.567,0.376,101.868,92.224,72.266
0.041,0.653,0.375,99.548,68.176,49.255
-0.019,0.778,0.337,89.172,47.546,25.940
-0.076,0.894,0.274,73.608,37.170,4.395
-0.138,1.039,0.193,58.289,40.466,-18.372
-0.131,1.205,0.131,46.692,59.509,-43.030
-0.057,1.349,0.075,38.086,88.074,-63.843
0.107,1.436,0.031,31.982,117.065,-79.468
0.287,1.483,-0.003,28.198,140.564,-90.698
0.435,1.563,-0.003,26.245,155.701,-95.032
0.574,1.625,-0.004,26.550,158.875,-88.928
0.659,1.650,-0.015,28.076,149.780,-75.073
0.686,1.638,-0.028,28.931,129.028,-56.091
0.690,1.593,-0.017,28.992,98.145,-34.241
0.615,1.500,-0.023,29.846,60.120,-14.282
0.509,1.365,-0.044,30.884,22.400,0.427
0.366,1.335,-0.069,30.090,-7.446,9.460
0.212,1.335,-0.103,28.564,-25.696,13.306
0.089,1.317,-0.146,25.940,-32.410,14.954
-0.017,1.343,-0.197,22.156,-29.114,12.329
-0.084,1.153,-0.231,18.250,-15.320,4.700
-0.091,1.432,-0.115,10.803,1.892,-11.597
-0.057,1.289,-0.171,11.292,14.404,-12.695
0.033,1.121,-0.147,8.789,26.733,-14.954
0.006,0.995,-0.146,5.920,39.551,-23.560
0.017,1.022,-0.066,2.747,53.467,-38.025
0.048,1.048,0.034,2.075,64.392,-49.255
0.120,1.088,0.086,3.418,66.956,-55.176
0.165,1.102,0.052,2.197,61.890,-58.655
0.205,1.131,0.060,-3.967,52.612,-60.425
0.260,1.086,0.067,-12.390,40.649,-61.279
0.253,1.087,0.072,-23.132,25.940,-66.406
0.309,1.003,0.061,-34.912,9.521,-69.946
0.326,0.959,0.028,-48.279,-5.615,-79.163
0.326,0.980,0.020,-61.646,-17.273,-91.370
0.325,0.999,-0.052,-72.937,-26.917,-103.088
0.318,1.048,-0.117,-82.947,-30.640,-114.868
0.348,1.069,-0.167,-91.248,-28.137,-124.756
0.409,1.065,-0.220,-97.656,-22.339,-132.385
0.473,1.083,-0.251,-103.516,-14.343,-137.817

0.929,1.095,-0.485,-90.332,-18.127,-107.849
0.907,1.074,-0.492,-85.022,-12.024,-102.905
0.916,1.035,-0.503,-80.688,-5.066,-100.281
0.929,1.035,-0.485,-77.759,2.380,-95.764
0.958,1.034,-0.458,-74.036,7.263,-87.036
0.980,1.010,-0.449,-70.007,8.301,-75.928
0.973,0.980,-0.445,-66.772,5.798,-66.589
0.939,0.961,-0.437,-64.575,1.282,-60.364
0.899,0.960,-0.412,-63.354,-3.784,-56.396
0.872,0.943,-0.421,-62.195,-9.705,-55.176
0.865,0.935,-0.429,-60.974,-14.771,-55.481
0.871,0.941,-0.432,-59.937,-19.348,-53.040
0.866,0.933,-0.445,-58.044,-24.658,-48.157
0.854,0.909,-0.464,-55.420,-30.090,-42.847
0.822,0.882,-0.479,-53.162,-34.241,-38.269
0.783,0.867,-0.495,-51.086,-37.109,-34.119
0.762,0.871,-0.509,-48.157,-37.659,-28.442
0.734,0.862,-0.532,-43.945,-35.706,-20.081
0.679,0.823,-0.555,-38.086,-30.701,-12.390
0.654,0.792,-0.566,-32.593,-22.278,-9.094
0.654,0.757,-0.562,-28.137,-11.719,-9.216
0.674,0.716,-0.558,-25.391,-2.197,-10.437
0.698,0.693,-0.542,-24.597,5.676,-12.268
0.740,0.695,-0.526,-23.254,10.925,-14.404
0.780,0.692,-0.508,-21.851,12.634,-14.282
0.803,0.677,-0.495,-19.897,10.376,-11.536
0.809,0.661,-0.478,-17.700,5.127,-8.118
0.812,0.646,-0.462,-15.930,-2.075,-6.104
0.797,0.622,-0.467,-14.587,-9.888,-4.700
0.775,0.636,-0.459,-13.489,-18.127,-3.906
0.738,0.642,-0.449,-10.986,-25.146,-2.319
0.711,0.611,-0.449,-7.935,-30.396,0.427
0.702,0.574,-0.452,-5.615,-33.936,1.221
0.700,0.557,-0.455,-5.859,-36.194,0.244
0.689,0.563,-0.450,-7.141,-36.804,-1.160
0.667,0.579,-0.448,-8.240,-36.194,-1.831
0.648,0.577,-0.453,-7.568,-34.058,-2.136
0.653,0.561,-0.467,-6.592,-29.480,-2.197
0.663,0.551,-0.477,-6.409,-23.071,-2.319
0.664,0.555,-0.476,-6.775,-15.503,-2.686
0.658,0.568,-0.461,-6.653,-7.751,-2.808
0.664,0.560,-0.451,-6.104,-0.671,-2.869
0.685,0.559,-0.437,-5.005,5.493,-3.174
0.710,0.564,-0.421,-3.906,10.132,-3.052
0.725,0.563,-0.403,-2.075,12.024,-2.930
0.721,0.562,-0.377,0.183,11.536,-3.052
0.706,0.557,-0.349,2.563,9.277,-3.479
0.689,0.540,-0.324,4.517,5.188,-4.456
0.705,0.504,-0.329,5.676,0.549,-6.104
0.728,0.488,-0.346,3.540,-3.296,-8.057
0.737,0.504,-0.356,0.122,-6.226,-9.094
0.739,0.529,-0.363,-2.441,-7.751,-8.789
0.724,0.547,-0.364,-3.052,-8.423,-8.301
0.702,0.551,-0.357,-1.892,-8.423,-8.301
0.677,0.546,-0.340,-0.610,-8.362,-8.789
0.642,0.537,-0.318,0.549,-7.996,-9.705
0.615,0.518,-0.300,1.465,-7.935,-11.475
0.634,0.477,-0.318,1.587,-7.629,-13.550
0.669,0.444,-0.348,-1.343,-6.165,-16.418
0.703,0.436,-0.374,-6.348,-3.174,-19.165
0.742,0.442,-0.405,-11.475,0.732,-21.729
0.781,0.452,-0.445,-15.930,5.859,-24.231
0.823,0.476,-0.475,-18.494,11.230,-26.611
0.870,0.515,-0.493,-17.700,15.991,-27.100
0.905,0.536,-0.497,-13.428,19.409,-25.391
0.936,0.534,-0.494,-7.324,20.630,-22.095
0.957,0.524,-0.480,-0.671,19.714,-17.273
0.952,0.517,-0.457,4.944,16.357,-12.268
0.918,0.503,-0.441,9.338,10.681,-8.789
0.879,0.489,-0.429,12.146,5.127,-7.446
0.843,0.493,-0.413,14.038,0.854,-7.385
0.813,0.495,-0.396,15.686,-1.831,-7.263
0.792,0.487,-0.385,16.479,-3.357,-7.263
0.781,0.478,-0.376,16.663,-4.028,-7.507
0.775,0.478,-0.362,16.235,-3.967,-7.874
0.769,0.479,-0.353,15.198,-3.601,-7.996
0.775,0.476,-0.351,14.465,-3.113,-7.446
0.789,0.467,-0.356,13.794,-2.014,-6.897
0.806,0.472,-0.358,12.512,-0.671,-6.470
0.826,0.480,-0.357,11.658,0.610,-5.493
0.839,0.481,-0.359,11.230,1.526,-3.967
0.846,0.475,-0.368,11.047,2.075,-2.991
0.850,0.474,-0.377,10.559,2.869,-2.380
0.856,0.484,-0.380,10.254,4.272,-1.587
0.866,0.488,-0.386,9.827,6.042,0.061
0.871,0.485,-0.392,10.742,7.751,1.770
0.875,0.489,-0.388,11.475,9.277,3.357
0.868,0.490,-0.382,12.329,10.071,4.456
0.860,0.481,-0.377,13.611,10.193,5.371
0.852,0.471,-0.374,14.587,9.583,5.859
0.849,0.463,-0.369,14.221,8.911,6.714
0.849,0.456,-0.370,13.672,7.812,7.690
0.844,0.453,-0.376,12.817,6.287,8.179
0.834,0.456,-0.384,11.780,4.700,8.057
0.818,0.469,-0.385,11.292,4.089,7.507
0.816,0.472,-0.386,11.658,4.150,7.263
0.807,0.467,-0.389,12.146,4.150,7.507
0.799,0.463,-0.391,12.512,4.700,7.507
0.786,0.465,-0.389,12.573,5.554,7.263
0.772,0.473,-0.386,12.817,6.836,6.958
0.766,0.472,-0.383,13.489,8.423,7.080
0.768,0.459,-0.379,14.465,10.071,7.507
0.773,0.453,-0.364,14.526,11.230,7.568
0.769,0.454,-0.350,13.794,11.047,8.179
0.763,0.446,-0.348,12.939,9.521,8.789
0.757,0.438,-0.352,11.475,7.812,8.240
0.751,0.439,-0.356,9.705,6.775,6.897
0.744,0.447,-0.357,7.812,6.226,5.981
0.744,0.447,-0.366,6.287,6.165,5.554
0.751,0.451,-0.378,5.127,6.775,4.944
0.757,0.459,-0.384,4.639,7.874,4.700
0.769,0.460,-0.391,4.944,8.789,4.578
0.775,0.458,-0.394,5.493,9.583,3.845
0.782,0.459,-0.394,5.615,10.376,3.601
0.786,0.460,-0.393,5.920,10.437,3.967
0.788,0.461,-0.388,6.409,9.949,4.028
0.785,0.468,-0.385,6.348,8.606,3.906
0.776,0.473,-0.386,6.714,6.775,4.089
0.764,0.476,-0.385,7.507,5.249,4.211

1.547,1.121,-0.561,-43.274,-60.913,84.473
1.682,1.367,-0.746,-50.354,-84.839,97.656
1.817,1.709,-0.930,-56.030,-96.436,113.037
1.985,2.049,-1.143,-55.176,-92.102,129.578
2.210,2.340,-1.354,-45.898,-70.129,146.423
2.490,2.575,-1.497,-28.564,-33.325,161.987
2.780,2.782,-1.547,-5.432,8.789,178.162
3.003,2.964,-1.533,20.386,42.786,196.716
3.146,3.093,-1.484,47.974,60.913,214.417
3.270,3.160,-1.383,72.693,59.692,228.333
3.356,3.171,-1.219,90.881,35.645,239.380
3.315,3.097,-1.087,99.609,-9.094,249.634
3.135,2.962,-1.011,95.703,-62.683,259.216
2.821,2.789,-1.032,78.247,-110.168,268.372
2.393,2.667,-1.098,52.246,-138.977,278.625
1.890,2.577,-1.172,23.499,-143.005,287.292
1.367,2.467,-1.247,-0.244,-124.939,294.800
0.922,2.302,-1.301,-18.860,-90.332,301.147
0.631,2.135,-1.370,-32.654,-48.767,300.171
0.431,1.964,-1.389,-41.809,-10.254,283.569
0.246,1.828,-1.370,-44.739,15.869,255.127
0.102,1.764,-1.298,-42.236,24.902,223.633
-0.021,1.742,-1.192,-33.508,15.137,195.496
-0.122,1.729,-1.083,-18.127,-11.414,175.232
-0.215,1.675,-1.004,2.319,-50.598,165.527
-0.318,1.610,-0.934,25.818,-94.421,163.391
-0.445,1.505,-0.834,50.049,-135.925,166.199
-0.618,1.303,-0.749,75.317,-171.387,170.471
-0.828,1.003,-0.638,100.952,-194.519,167.969
-1.019,0.696,-0.499,124.146,-204.468,152.710
-1.205,0.365,-0.372,143.799,-204.407,122.986
-1.366,-0.052,-0.274,161.011,-195.251,78.735
-1.469,-0.467,-0.162,173.462,-174.805,23.254
-1.478,-0.849,-0.099,180.969,-147.339,-36.865
-1.501,-1.275,-0.113,184.937,-114.868,-96.436
-1.513,-1.828,-0.097,182.190,-72.998,-140.564
-1.305,-2.296,-0.041,165.833,-23.560,-159.180
-0.988,-2.895,-0.056,145.508,17.822,-153.381
-0.674,-3.524,-0.009,127.747,49.683,-154.175
-0.357,-3.906,0.036,105.652,69.153,-176.941
-0.047,-4.000,-0.053,81.116,76.172,-193.909
0.372,-4.000,-0.090,46.265,76.538,-213.623
0.845,-3.958,-0.101,4.700,63.599,-234.741
1.282,-3.608,-0.123,-28.870,35.156,-246.643
1.868,-2.839,0.258,-53.711,-11.780,-253.479
2.255,-2.118,0.234,-53.894,-94.971,-229.370
2.453,-1.364,0.283,-39.856,-199.036,-174.255
2.475,-0.993,0.162,-17.822,-309.509,-106.018
1.486,-1.418,-1.040,2.625,-403.015,-38.391
-0.186,-2.868,-2.295,-13.245,-386.108,-12.329
-0.630,1.175,0.171,-73.975,-223.816,-94.360
-1.531,1.169,-0.635,-76.965,-134.705,23.804
-0.505,-1.432,-1.249,-47.913,-58.594,219.482
-0.502,-1.035,-0.668,-64.758,98.450,205.261
-0.901,-0.703,-0.356,-67.688,210.144,185.425
-0.399,-0.105,0.163,-48.035,261.169,173.706
0.077,-0.417,0.361,-16.785,264.099,178.589
0.277,-0.708,0.477,1.892,231.445,160.156
0.370,-0.755,0.643,4.028,171.753,129.517
0.525,-0.733,0.648,-4.211,98.511,106.995
0.521,-0.656,0.583,-20.569,29.541,97.839
0.411,-0.496,0.522,-39.429,-25.635,98.389
0.316,-0.282,0.418,-52.063,-61.829,104.004
0.165,-0.047,0.304,-56.519,-77.271,109.497
-0.003,0.131,0.170,-54.199,-73.608,113.892
-0.092,0.303,0.116,-46.631,-50.537,115.112
-0.158,0.469,0.072,-34.241,-18.005,112.671
-0.192,0.568,0.052,-17.944,16.174,106.689
-0.190,0.629,0.073,-0.061,49.377,98.755
-0.170,0.640,0.132,19.348,76.355,89.844
-0.181,0.668,0.215,39.673,95.459,81.360
-0.221,0.683,0.239,58.411,107.666,74.646
-0.205,0.708,0.253,73.486,115.601,69.763
-0.194,0.792,0.288,84.595,123.840,63.477
-0.196,0.898,0.360,94.910,131.470,58.289
-0.178,0.952,0.412,104.919,134.949,56.885
-0.201,1.009,0.405,112.976,133.057,53.955
-0.265,1.104,0.360,115.723,129.944,47.241
-0.295,1.226,0.337,113.525,128.479,37.231
-0.312,1.328,0.359,107.971,129.089,24.780
-0.310,1.357,0.401,101.990,127.502,10.864
-0.345,1.338,0.387,95.703,122.314,-4.578
-0.444,1.375,0.277,86.853,118.164,-21.179
-0.367,1.542,0.309,73.669,119.324,-33.813
-0.307,1.509,0.198,63.477,115.112,-40.771
-0.212,1.655,0.312,53.833,108.276,-52.795
-0.177,1.710,0.317,49.194,89.783,-57.251
-0.158,1.631,0.306,47.546,66.284,-56.763
-0.166,1.534,0.283,46.631,49.377,-63.904
-0.188,1.446,0.252,46.143,42.664,-81.116
-0.186,1.386,0.193,41.626,46.509,-103.455
-0.105,1.385,0.159,30.579,59.998,-125.366
0.012,1.360,0.154,15.198,78.308,-143.005
0.147,1.251,0.159,-2.319,95.520,-154.114
0.302,1.196,0.171,-23.315,110.168,-158.813
0.485,1.254,0.244,-45.410,122.925,-158.081
0.634,1.284,0.266,-61.340,130.859,-152.039
0.759,1.381,0.312,-70.923,135.071,-146.606
0.840,1.476,0.351,-72.998,132.751,-139.954
0.894,1.488,0.342,-68.481,122.803,-126.160
0.939,1.491,0.338,-63.843,108.887,-110.168
0.916,1.513,0.322,-59.387,91.125,-97.839
0.853,1.489,0.282,-56.519,71.960,-89.111
0.796,1.499,0.290,-55.603,54.626,-84.106
0.765,1.463,0.305,-53.955,39.490,-83.862
0.789,1.362,0.281,-51.819,26.123,-88.745
0.816,1.290,0.245,-53.101,16.357,-100.220
0.824,1.282,0.221,-58.105,10.925,-114.441
0.855,1.265,0.193,-64.514,8.850,-123.718
0.892,1.216,0.143,-71.838,9.155,-126.404
0.891,1.165,0.079,-80.017,12.146,-125.488
0.860,1.114,-0.006,-87.036,19.104,-123.169
0.820,1.077,-0.089,-91.858,31.067,-119.873
0.793,1.053,-0.158,-93.018,46.692,-115.662
0.784,1.039,-0.208,-90.759,63.660,-110.229
0.825,1.016,-0.225,-84.473,77.820,-103.699
0.893,0.988,-0.242,-76.172,85.999,-98.572
0.920,0.956,-0.255,-67.444,86.365,-96.069
0.911,0.958,-0.247,-59.814,79.834,-94.604

0.508,1.199,-1.364,76.233,205.322,7.324
0.618,1.375,-1.586,85.022,232.910,9.521
0.799,1.559,-1.787,93.079,263.245,13.733
1.040,1.760,-1.965,101.440,292.358,20.630
1.275,1.991,-2.096,111.816,315.186,30.518
1.469,2.257,-2.179,126.526,328.491,43.884
1.635,2.523,-2.212,147.461,331.970,57.861
1.783,2.746,-2.228,173.462,325.745,69.702
1.905,2.905,-2.244,201.538,311.462,78.308
2.035,3.040,-2.285,225.586,291.931,84.351
2.169,3.209,-2.344,241.150,269.409,89.539
2.333,3.378,-2.437,249.939,246.277,94.971
2.496,3.443,-2.556,256.714,223.389,101.563
2.620,3.378,-2.646,263.428,201.111,109.375
2.727,3.307,-2.629,271.118,180.603,116.577
2.801,3.207,-2.544,281.311,159.180,122.070
2.715,3.033,-2.451,292.175,132.874,126.953
2.444,2.858,-2.256,298.096,109.619,131.287
2.002,2.676,-2.030,295.959,97.351,133.972
1.518,2.431,-1.837,281.860,101.074,136.292
1.141,2.174,-1.640,250.549,121.826,134.644
0.828,2.025,-1.525,202.576,153.503,126.099
0.581,1.927,-1.479,150.024,186.890,113.892
0.366,1.812,-1.339,112.915,217.285,99.304
0.197,1.784,-1.230,93.445,237.732,77.332
0.155,1.907,-1.153,97.900,241.089,47.729
0.099,1.924,-0.964,136.292,221.313,22.766
0.060,1.587,-0.799,194.519,178.894,5.615
0.129,1.099,-0.645,243.774,120.056,-13.672
0.009,0.726,-0.526,267.639,52.185,-44.250
-0.217,0.446,-0.454,274.597,-9.521,-74.341
-0.301,0.113,-0.350,269.897,-50.476,-95.398
-0.263,-0.128,-0.236,248.291,-67.871,-100.647
-0.121,-0.242,-0.116,212.830,-69.031,-87.463
0.129,-0.253,0.013,170.898,-62.622,-60.059
0.192,-0.292,0.062,129.883,-60.242,-26.611
0.189,-0.341,0.076,98.083,-60.059,-4.456
0.171,-0.451,0.058,84.595,-55.359,-4.944
0.075,-0.655,0.057,91.003,-47.058,-29.236
0.081,-0.999,0.043,109.680,-34.790,-64.514
0.210,-1.541,0.025,131.653,-23.315,-96.252
0.343,-2.272,-0.063,145.447,-18.738,-125.610
0.548,-2.883,-0.177,138.550,-23.865,-154.846
0.660,-3.620,-0.294,107.483,-40.771,-174.377
0.923,-3.984,-0.485,49.255,-71.960,-193.970
1.174,-4.000,-0.731,-20.752,-116.821,-203.796
1.497,-3.976,-0.949,-93.506,-168.152,-204.590
1.850,-3.417,-1.157,-152.466,-230.530,-197.510
2.060,-2.565,-1.340,-185.608,-296.997,-184.021
1.901,-1.843,-1.648,-184.448,-353.821,-160.583
1.486,-1.000,-1.515,-152.344,-376.282,-129.700
0.694,-0.834,-1.691,-98.877,-366.577,-71.899
-0.253,-1.664,-1.639,-50.476,-293.457,-16.968
-0.093,0.463,-1.396,-40.283,-187.439,-10.742
-0.823,-0.597,-1.239,-16.724,-68.237,114.929
-0.846,-1.089,-0.894,1.709,70.496,187.500
-0.539,-0.994,-0.551,11.963,167.969,199.890
-0.309,-0.720,-0.024,28.870,243.958,214.478
-0.110,-0.759,0.451,55.664,273.437,220.825
0.110,-0.952,0.717,77.759,258.362,212.524
0.293,-1.177,0.941,80.200,215.759,193.054
0.390,-1.369,0.981,58.105,148.926,161.194
0.352,-1.440,0.885,14.038,74.707,130.005
0.217,-1.314,0.713,-37.659,10.254,110.657
0.027,-1.054,0.539,-78.247,-31.311,100.586
-0.139,-0.836,0.373,-97.107,-46.265,94.666
-0.283,-0.602,0.272,-97.595,-34.363,88.867
-0.312,-0.400,0.287,-84.106,-4.089,86.365
-0.211,-0.315,0.317,-65.674,28.259,89.050
-0.136,-0.240,0.371,-51.575,54.932,92.102
-0.068,-0.094,0.481,-46.692,71.472,94.788
0.005,0.070,0.530,-50.720,73.181,98.267
0.003,0.297,0.584,-62.622,61.523,95.825
-0.044,0.493,0.548,-75.989,41.199,89.050
-0.032,0.687,0.630,-81.177,20.813,72.754
-0.290,0.909,0.523,-74.219,-0.061,50.659
-0.260,0.851,0.571,-54.016,-15.564,41.565
-0.360,0.797,0.417,-29.297,-16.174,23.560
-0.499,0.895,0.530,-7.629,2.136,8.972
-0.418,0.811,0.634,10.986,24.475,6.348
-0.422,0.720,0.657,18.860,41.870,-0.305
-0.401,0.869,0.669,5.737,58.838,-13.367
-0.317,1.064,0.745,-16.235,75.928,-31.006
-0.228,1.297,0.732,-35.583,86.609,-58.838
-0.200,1.686,0.585,-52.002,90.820,-88.623
-0.066,1.946,0.474,-68.909,92.163,-104.980
0.133,1.964,0.374,-83.252,85.571,-109.009
0.206,1.912,0.411,-95.520,71.289,-108.276
0.364,1.776,0.132,-107.910,45.044,-97.656
0.460,1.608,-0.006,-125.427,17.517,-90.027
0.494,1.596,-0.264,-145.813,-5.676,-88.013
0.509,1.519,-0.551,-161.499,-25.879,-84.778
0.546,1.500,-0.757,-172.363,-35.278,-84.351
0.529,1.536,-0.873,-172.974,-34.180,-86.121
0.513,1.468,-1.027,-160.767,-24.841,-87.402
0.499,1.439,-1.124,-141.785,-5.127,-90.454
0.502,1.498,-1.092,-120.789,23.560,-92.529
0.576,1.339,-1.114,-96.619,52.734,-92.041
0.666,1.191,-1.146,-76.050,81.787,-97.229
0.765,1.167,-1.040,-66.833,109.558,-107.117
0.960,1.137,-0.945,-63.477,126.648,-113.159
1.193,1.015,-0.850,-66.589,128.906,-116.943
1.251,1.516,-0.736,-79.102,112.915,-116.821
1.329,1.147,-0.764,-83.191,85.754,-77.820
1.520,1.154,-0.752,-94.360,52.307,-49.988
1.282,0.852,-0.905,-107.788,18.433,-31.372
1.511,1.547,-0.422,-120.117,-13.855,-29.541
1.097,1.269,-0.683,-115.662,-63.538,-10.376
1.167,1.359,-0.578,-110.474,-100.586,7.263
1.005,1.142,-0.722,-102.478,-134.460,21.484
0.901,1.151,-0.806,-97.717,-161.316,15.198
0.763,1.207,-0.786,-97.778,-175.171,1.343
0.639,1.241,-0.844,-93.018,-182.861,-11.169
0.531,1.308,-0.825,-85.022,-179.993,-21.362
0.505,1.325,-0.804,-73.303,-168.457,-26.794
0.467,1.396,-0.713,-57.617,-153.137,-31.860
0.448,1.405,-0.612,-38.452,-137.512,-32.349
0.456,1.233,-0.579,-20.264,-126.160,-31.372
0.416,1.173,-0.456,-10.376,-113.708,-38.757

1.196,1.385,-0.619,56.885,102.966,70.740
1.285,1.630,-0.681,59.570,127.197,84.412
1.442,1.880,-0.707,63.049,142.639,99.304
1.540,2.138,-0.745,68.787,143.555,114.319
1.539,2.363,-0.805,77.454,133.850,130.249
1.449,2.575,-0.866,87.524,125.061,146.973
1.358,2.703,-0.955,98.694,127.075,162.354
1.369,2.783,-1.045,108.459,144.592,176.941
1.470,2.928,-1.129,114.319,171.875,192.322
1.545,3.134,-1.237,118.225,196.289,208.740
1.543,3.311,-1.372,125.000,212.952,222.046
1.544,3.437,-1.554,134.827,226.135,231.262
1.604,3.536,-1.768,144.958,239.197,236.511
1.700,3.675,-1.953,157.227,247.498,241.211
1.690,3.676,-2.164,177.551,246.399,244.385
1.735,3.570,-2.372,202.393,244.202,244.934
1.807,3.466,-2.520,223.938,246.887,243.347
1.936,3.314,-2.515,242.432,253.174,242.493
2.011,3.064,-2.382,257.629,258.179,244.263
1.943,2.770,-2.121,264.160,257.751,245.422
1.703,2.410,-1.782,257.080,255.127,245.850
1.375,2.129,-1.469,238.708,252.014,245.789
0.889,1.991,-1.249,214.966,251.831,239.746
0.552,1.903,-0.996,199.158,261.597,230.286
0.277,1.737,-0.778,193.726,274.170,216.553
0.074,1.626,-0.555,191.956,283.936,193.848
-0.025,1.452,-0.359,190.491,282.288,167.175
-0.084,1.227,-0.254,185.669,263.550,137.024
-0.103,1.010,-0.207,178.650,233.398,100.525
-0.080,0.844,-0.199,173.096,195.129,63.110
-0.128,0.823,-0.189,170.044,155.029,26.062
-0.052,0.623,-0.156,178.406,121.216,-7.080
0.139,0.337,-0.049,187.561,98.572,-24.536
0.270,0.086,-0.001,185.547,73.486,-20.203
0.377,-0.049,0.058,171.143,47.852,-5.615
0.320,-0.241,0.084,148.804,23.682,15.198
0.034,-0.505,-0.035,126.953,0.916,23.315
-0.247,-0.822,-0.150,116.394,0.183,4.272
-0.374,-1.327,-0.252,117.981,28.503,-37.964
-0.312,-2.006,-0.415,120.728,72.937,-90.637
-0.066,-2.729,-0.652,114.136,116.150,-139.282
0.318,-3.333,-0.901,93.018,143.616,-166.138
0.713,-3.847,-1.143,52.856,142.273,-164.673
1.001,-4.000,-1.454,-7.202,113.831,-157.349
1.278,-4.000,-1.756,-81.909,73.975,-164.978
1.548,-3.991,-1.974,-155.884,28.015,-179.199
1.859,-3.226,-2.037,-208.008,-26.672,-190.247
2.351,-1.994,-1.861,-220.398,-96.252,-190.369
1.973,-2.147,-2.166,-183.044,-167.847,-184.387
1.391,-0.958,-1.968,-132.629,-200.928,-208.130
0.817,-0.559,-1.946,-64.697,-200.745,-164.307
0.070,-0.297,-1.950,-17.944,-136.292,-114.685
-0.427,-0.310,-1.707,8.362,-21.545,-43.091
-0.316,-0.640,-1.350,16.602,107.971,37.781
0.057,-0.729,-0.785,9.949,219.727,88.379
0.466,-0.486,0.067,2.014,286.560,119.141
0.777,-0.728,0.490,0.244,276.184,151.489
0.902,-0.995,0.891,-4.150,217.834,161.804
0.736,-0.900,1.233,-8.484,138.428,144.226
0.531,-0.734,1.354,-11.292,45.471,122.437
0.357,-0.587,1.305,-18.555,-44.189,97.717
0.142,-0.489,1.111,-32.593,-113.403,73.608
-0.013,-0.236,0.937,-54.077,-151.978,55.054
-0.098,0.044,0.724,-79.834,-161.926,46.204
-0.242,0.295,0.469,-103.088,-144.836,41.992
-0.362,0.497,0.253,-119.995,-96.863,41.992
-0.322,0.546,0.095,-125.366,-26.184,46.204
-0.207,0.476,-0.027,-120.178,54.321,48.279
-0.089,0.450,-0.043,-107.483,131.104,47.913
0.062,0.389,0.033,-85.571,190.491,48.340
0.270,0.307,0.137,-58.533,224.792,51.941
0.417,0.267,0.242,-34.912,230.225,55.054
0.466,0.296,0.357,-14.771,212.524,54.932
0.494,0.425,0.441,2.197,179.443,54.382
0.476,0.550,0.488,17.883,135.559,54.626
0.358,0.522,0.471,34.607,87.646,55.420
0.216,0.491,0.443,50.964,45.898,54.138
0.062,0.529,0.427,64.697,19.165,47.241
-0.066,0.630,0.420,75.562,9.216,38.086
-0.150,0.680,0.410,83.130,12.878,29.175
-0.203,0.763,0.404,87.891,29.602,17.395
-0.127,0.862,0.487,87.646,56.824,4.395
0.024,0.931,0.537,82.886,82.825,-7.874
0.171,1.048,0.551,71.045,100.342,-20.264
0.416,1.105,0.585,51.697,104.614,-26.855
0.583,1.194,0.605,31.921,89.172,-28.198
0.662,1.322,0.579,16.418,55.725,-25.818
0.653,1.387,0.504,7.385,11.169,-20.630
0.616,1.369,0.372,4.395,-31.921,-16.907
0.524,1.425,0.285,4.822,-63.904,-19.958
0.477,1.496,0.288,11.108,-78.857,-30.762
0.462,1.529,0.306,24.841,-79.041,-44.495
0.450,1.571,0.359,42.847,-67.261,-59.021
0.584,1.571,0.415,59.814,-49.805,-65.979
0.761,1.527,0.441,67.993,-37.659,-63.293
0.903,1.454,0.513,66.040,-35.706,-55.420
0.997,1.327,0.571,56.458,-46.448,-44.067
0.962,1.202,0.581,42.114,-67.627,-34.912
0.838,1.095,0.564,24.597,-87.708,-35.034
0.690,1.050,0.552,5.066,-95.337,-42.542
0.524,1.096,0.561,-14.099,-87.830,-59.631
0.437,1.375,0.619,-30.762,-68.909,-81.970
0.539,1.290,0.604,-43.396,-50.537,-91.553
0.742,1.313,0.639,-54.871,-35.950,-104.370
0.868,1.351,0.686,-65.552,-33.875,-118.408
0.950,1.320,0.682,-75.439,-48.523,-124.878
0.983,1.215,0.589,-84.778,-74.890,-122.803
0.833,1.166,0.432,-93.262,-100.464,-123.169
0.635,1.132,0.261,-100.586,-111.450,-124.573
0.488,1.083,0.112,-108.582,-103.088,-126.892
0.403,1.060,-0.009,-117.493,-78.186,-132.874
0.402,1.052,-0.065,-125.977,-44.617,-143.616
0.528,1.110,-0.043,-132.263,-11.841,-156.128
0.713,1.204,0.041,-132.751,10.315,-166.687
0.888,1.242,0.105,-126.282,15.686,-171.143
1.031,1.199,0.119,-115.906,4.578,-168.213
1.109,1.157,0.113,-107.056,-16.235,-161.743
1.120,1.103,0.074,-102.600,-43.213,-154.907
1.065,1.034,-0.005,-102.722,-70.618,-147.461

1.205,1.332,-0.549,-31.738,44.861,97.351
1.453,1.554,-0.554,-31.006,52.124,103.516
1.731,1.803,-0.528,-31.677,49.255,110.474
2.007,2.059,-0.453,-32.898,34.363,121.338
2.234,2.308,-0.374,-33.447,5.676,137.024
2.363,2.473,-0.381,-34.302,-35.767,153.198
2.330,2.567,-0.456,-38.025,-81.970,166.016
2.155,2.639,-0.564,-45.776,-118.774,177.673
2.013,2.758,-0.624,-56.396,-134.155,189.392
1.887,2.931,-0.662,-66.956,-128.723,196.228
