aX,aY,aZ,gX,gY,gZ
1.468,-1.440,0.687,16.785,-16.357,-0.427
1.586,-2.103,0.656,16.296,-12.878,-7.141
1.672,-2.789,0.548,7.690,2.014,-20.630
1.794,-3.062,0.325,-14.465,33.569,-37.354
1.901,-2.878,0.192,-52.002,82.275,-44.922
1.894,-2.775,0.126,-85.510,131.165,-31.738
1.754,-2.734,-0.022,-100.525,172.974,-2.075
1.544,-2.559,-0.090,-107.117,209.961,29.541
1.382,-2.277,-0.072,-106.689,236.816,56.702
1.216,-2.012,-0.063,-95.764,244.568,78.796
0.982,-1.625,-0.073,-83.191,232.056,93.811
0.712,-1.059,-0.051,-77.698,203.979,98.022
0.544,-0.454,-0.004,-74.341,162.720,90.454
0.358,0.033,0.063,-66.101,108.093,68.787
0.066,0.479,0.078,-53.162,44.678,27.039
-0.214,0.776,0.079,-37.964,-12.207,-35.034
-0.290,0.949,0.035,-22.705,-49.194,-105.408
-0.173,1.081,0.003,-17.090,-61.401,-170.959
0.160,1.246,-0.067,-25.330,-51.147,-224.060
0.608,1.507,-0.191,-47.302,-25.024,-258.484
1.098,1.892,-0.365,-76.477,11.597,-270.630
1.492,2.411,-0.433,-101.868,50.476,-258.179
1.718,2.787,-0.471,-109.375,75.195,-226.013
1.869,2.978,-0.456,-100.708,73.303,-186.523
1.888,3.012,-0.421,-82.886,41.809,-152.893
1.739,2.958,-0.406,-63.110,-8.423,-128.052
1.493,2.847,-0.442,-44.189,-59.265,-105.591
1.338,2.605,-0.417,-24.292,-94.421,-83.801
1.203,2.417,-0.493,-6.958,-112.000,-70.740
0.961,2.208,-0.378,5.371,-109.558,-53.711
0.935,1.973,-0.333,21.240,-94.910,-29.541
0.979,1.675,-0.288,38.757,-70.007,-1.099
1.052,1.455,-0.213,48.767,-45.105,22.278
1.095,1.258,-0.141,53.406,-27.161,41.199
1.093,1.088,-0.129,55.847,-18.005,56.946
1.052,0.984,-0.092,54.993,-12.085,73.547
1.025,0.850,-0.075,55.664,-8.728,93.445
1.000,0.748,-0.048,57.007,-6.348,106.995
0.969,0.633,-0.026,59.143,-4.395,115.784
0.958,0.540,0.009,61.157,-2.930,120.544
0.985,0.456,0.035,61.951,-2.502,121.460
1.009,0.404,0.054,62.927,-3.845,120.605
1.016,0.350,0.056,63.049,-5.981,119.629
1.022,0.355,0.097,62.378,-7.874,120.056
0.991,0.349,0.123,62.805,-11.536,123.596
0.957,0.298,0.140,64.392,-15.747,127.136
0.888,0.262,0.136,65.369,-18.738,125.977
0.784,0.208,0.120,64.941,-19.775,118.835
0.742,0.171,0.149,62.378,-17.517,106.201
0.669,0.160,0.212,58.044,-14.709,93.384
1.040,-0.053,0.328,54.932,-13.489,91.309
1.185,-0.256,0.229,49.866,-20.203,81.543
1.040,-0.299,0.184,33.142,-28.320,68.176
1.171,-0.232,0.207,8.484,-33.936,51.392
1.199,-0.190,0.164,-1.953,-39.307,33.569
1.134,-0.111,0.097,-1.404,-43.884,10.986
1.086,-0.085,0.056,5.493,-42.969,-4.944
1.074,-0.101,0.060,17.944,-36.011,-14.648
1.099,-0.122,0.135,30.396,-25.879,-20.081
1.166,-0.219,0.212,39.795,-17.883,-15.869
1.262,-0.326,0.291,41.199,-17.395,-6.470
1.285,-0.389,0.319,34.546,-25.513,5.371
1.230,-0.383,0.293,22.766,-41.382,13.916
1.149,-0.369,0.297,9.460,-59.631,18.127
1.019,-0.339,0.236,1.709,-77.087,15.503
0.836,-0.287,0.196,-2.686,-85.938,6.226
0.746,-0.261,0.192,-2.625,-82.764,-2.808
0.736,-0.296,0.187,1.343,-69.031,-7.507
0.813,-0.333,0.207,4.272,-49.072,-8.301
0.884,-0.369,0.247,4.639,-29.968,-7.935
0.984,-0.407,0.276,3.235,-15.747,-7.019
1.010,-0.436,0.267,-0.427,-8.972,-7.202
1.192,-0.462,0.347,-4.822,-8.240,-10.254
1.185,-0.403,0.316,-7.568,-15.259,-18.127
1.198,-0.377,0.361,-9.827,-24.780,-20.996
1.227,-0.404,0.319,-10.742,-34.180,-17.334
1.204,-0.361,0.326,-13.245,-38.330,-13.184
1.164,-0.358,0.292,-14.954,-38.574,-5.859
1.110,-0.301,0.280,-14.709,-34.851,-0.671
1.061,-0.284,0.270,-12.207,-27.832,2.075
1.056,-0.293,0.259,-8.118,-18.005,2.258
1.023,-0.269,0.257,-5.493,-7.874,-1.038
1.006,-0.253,0.253,-3.174,1.221,-3.479
0.999,-0.228,0.265,-1.160,9.827,-4.761
1.007,-0.228,0.278,0.244,16.479,-3.845
1.038,-0.219,0.299,1.038,19.775,-2.563
1.050,-0.200,0.323,-0.366,18.738,-0.244
1.047,-0.187,0.328,-1.892,13.550,2.625
1.008,-0.151,0.324,-3.845,6.348,4.883
0.957,-0.120,0.305,-4.944,0.305,5.981
0.883,-0.085,0.279,-5.249,-2.075,5.920
0.842,-0.062,0.257,-4.456,-0.427,5.737
0.824,-0.041,0.252,-3.418,5.554,5.188
0.823,-0.025,0.261,-2.197,12.695,3.479
0.830,-0.018,0.262,-0.977,18.860,1.892
0.837,-0.002,0.275,-0.305,23.560,0.549
0.855,0.001,0.280,-0.061,26.367,0.122
0.889,0.006,0.285,-0.305,26.733,0.244
0.916,0.015,0.293,-1.526,24.048,0.671
0.927,0.033,0.295,-2.625,18.799,0.977
0.914,0.049,0.283,-2.991,12.268,1.038
0.895,0.059,0.267,-2.625,7.080,0.916
0.880,0.067,0.251,-1.526,4.089,-0.244
0.869,0.074,0.239,-0.610,3.723,-1.282
0.864,0.083,0.235,0.122,6.042,-2.136
0.883,0.081,0.236,1.221,9.460,-2.930
0.912,0.078,0.246,2.197,13.184,-3.296
0.944,0.087,0.259,2.380,15.442,-3.296
0.954,0.094,0.259,2.869,15.381,-3.357
0.950,0.101,0.258,3.357,14.343,-3.357
0.947,0.107,0.260,3.723,13.306,-3.601
0.953,0.108,0.263,4.272,12.817,-3.784
0.961,0.109,0.267,4.761,12.512,-4.150
0.968,0.111,0.267,4.761,11.597,-4.456
0.980,0.119,0.267,4.211,10.315,-4.456
0.985,0.133,0.266,3.479,9.155,-3.296
0.976,0.150,0.263,3.174,8.484,-1.953
0.967,0.156,0.258,3.540,8.240,-0.977
0.959,0.160,0.255,4.456,8.728,-0.488

1.416,-1.552,0.441,5.005,-5.371,-14.343
1.595,-2.191,0.394,7.263,-1.282,-22.583
1.800,-2.787,0.259,1.953,11.169,-32.715
1.923,-2.937,0.079,-17.700,36.560,-43.518
2.063,-2.693,-0.019,-43.030,75.500,-41.931
2.214,-2.536,-0.066,-51.880,116.150,-22.034
2.175,-2.459,-0.059,-38.025,151.794,7.019
1.990,-2.340,-0.016,-15.076,179.382,43.030
1.814,-2.087,0.061,5.554,191.589,81.055
1.602,-1.691,0.198,23.926,183.472,112.793
1.351,-1.311,0.381,39.673,153.381,131.958
1.026,-0.947,0.498,51.331,106.567,133.606
0.666,-0.675,0.582,54.749,54.565,114.929
0.356,-0.361,0.620,42.847,4.272,80.200
-0.008,0.008,0.624,18.005,-39.063,29.236
-0.383,0.380,0.501,-12.817,-68.665,-32.532
-0.547,0.723,0.328,-47.607,-75.500,-98.755
-0.447,0.981,0.166,-80.261,-57.434,-160.461
-0.209,1.247,0.007,-107.910,-22.522,-206.177
0.238,1.543,-0.139,-128.784,16.174,-232.117
0.682,1.823,-0.270,-140.137,45.166,-240.051
1.043,2.061,-0.393,-144.043,52.063,-234.863
1.285,2.250,-0.542,-141.968,35.095,-221.802
1.383,2.403,-0.661,-134.338,4.395,-207.520
1.338,2.518,-0.746,-120.056,-27.283,-191.040
1.301,2.569,-0.772,-100.403,-50.171,-169.434
1.234,2.582,-0.742,-77.942,-58.838,-144.775
1.190,2.499,-0.653,-54.565,-55.237,-117.676
1.193,2.335,-0.584,-31.189,-44.495,-92.896
1.196,2.142,-0.472,-13.062,-29.480,-72.510
1.280,1.820,-0.340,0.610,-16.541,-51.636
1.305,1.708,-0.412,7.507,-9.644,-37.476
1.190,1.656,-0.184,6.775,-0.122,-11.780
1.270,1.339,-0.267,16.479,0.854,24.597
1.087,1.227,-0.286,22.522,5.493,48.584
1.056,1.095,-0.279,23.193,13.733,68.054
1.072,0.983,-0.196,28.320,20.447,84.045
1.090,0.821,-0.175,35.950,19.287,92.590
1.127,0.679,-0.135,40.833,13.489,96.619
1.122,0.563,-0.107,42.847,4.639,98.328
1.104,0.454,-0.085,43.823,-3.235,98.450
1.104,0.413,-0.039,44.617,-7.568,96.619
1.069,0.303,-0.027,48.340,-9.583,95.337
1.109,0.365,0.078,51.147,-9.827,93.628
1.190,0.337,0.144,55.725,-14.954,96.619
1.187,0.245,0.101,59.692,-27.893,100.342
1.120,0.256,0.136,55.237,-40.955,99.304
1.123,0.283,0.172,49.683,-52.917,101.990
1.153,0.156,0.152,49.377,-63.538,110.291
1.162,0.137,0.197,46.143,-71.899,111.328
1.180,0.042,0.195,42.603,-80.811,108.398
1.133,0.043,0.170,36.682,-88.989,102.417
1.073,0.049,0.217,27.161,-90.515,94.421
1.086,-0.058,0.156,22.034,-87.891,86.975
1.086,-0.044,0.160,13.672,-74.524,73.242
1.066,-0.031,0.143,5.493,-53.040,59.082
1.059,-0.001,0.154,0.671,-27.344,48.035
1.097,-0.009,0.174,-2.991,-2.930,43.457
1.115,-0.032,0.195,-5.432,14.038,41.382
1.141,-0.069,0.221,-7.080,21.362,40.405
1.135,-0.107,0.227,-9.338,18.555,38.818
1.100,-0.129,0.231,-12.451,7.996,36.011
1.104,-0.165,0.234,-14.587,-6.592,33.508
1.116,-0.190,0.246,-16.663,-24.353,31.250
1.081,-0.250,0.234,-18.738,-42.480,31.067
1.012,-0.229,0.181,-20.935,-56.946,28.931
0.902,-0.240,0.161,-22.827,-62.866,25.024
0.822,-0.235,0.119,-22.339,-58.655,18.738
0.711,-0.181,0.109,-19.531,-46.204,7.385
0.700,-0.214,0.115,-13.672,-27.832,-2.258
0.788,-0.261,0.138,-7.019,-7.385,-10.498
0.926,-0.326,0.202,-3.113,8.423,-16.785
1.082,-0.364,0.262,-3.845,13.550,-15.259
1.186,-0.377,0.318,-7.324,5.798,-9.460
1.257,-0.369,0.338,-11.108,-10.925,-4.028
1.233,-0.348,0.324,-13.611,-31.860,-1.038
1.155,-0.322,0.291,-14.343,-50.049,-0.305
1.048,-0.294,0.253,-13.550,-58.899,-0.122
0.930,-0.265,0.212,-11.719,-55.908,-0.366
0.844,-0.241,0.187,-8.423,-40.955,-2.502
0.847,-0.225,0.185,-4.395,-17.395,-6.348
0.944,-0.217,0.227,-0.305,7.019,-10.986
1.056,-0.221,0.268,3.174,22.766,-14.954
1.162,-0.198,0.312,5.554,25.757,-15.991
1.204,-0.180,0.338,6.470,17.334,-12.146
1.178,-0.163,0.333,6.714,2.625,-5.859
1.096,-0.146,0.308,7.141,-11.780,-0.610
1.005,-0.131,0.276,7.690,-21.790,2.686
0.931,-0.110,0.254,8.179,-25.208,3.052
0.875,-0.082,0.244,9.216,-22.522,1.404
0.849,-0.061,0.249,10.437,-15.381,-0.488
0.854,-0.075,0.263,12.390,-6.836,-2.563
0.851,-0.044,0.270,12.939,1.038,-4.761
0.866,-0.034,0.271,12.939,7.507,-6.226
0.886,-0.042,0.280,11.780,12.329,-7.935
0.920,-0.020,0.292,10.132,14.893,-9.277
0.947,0.001,0.305,7.812,14.465,-9.216
0.958,0.024,0.307,6.531,10.864,-8.362
0.968,0.039,0.305,6.531,6.104,-7.446
0.963,0.048,0.298,6.653,1.221,-6.226
0.944,0.056,0.285,6.775,-2.014,-4.883
0.921,0.073,0.274,6.897,-3.052,-4.028
0.911,0.086,0.274,6.653,-1.709,-3.662
0.905,0.094,0.277,7.019,0.854,-3.906
0.906,0.104,0.281,6.897,4.272,-3.784
0.920,0.118,0.293,6.409,7.324,-3.113
0.925,0.136,0.303,5.676,8.606,-2.747
0.932,0.146,0.305,5.432,8.240,-2.808
0.938,0.150,0.298,4.944,5.859,-3.052
0.948,0.154,0.300,4.456,2.258,-3.174
0.939,0.163,0.295,3.723,-1.587,-3.235
0.919,0.175,0.285,3.235,-4.761,-3.174
0.896,0.178,0.273,3.357,-6.042,-2.930
0.885,0.173,0.268,3.540,-5.005,-3.052
0.896,0.164,0.271,3.601,-2.869,-3.540
0.914,0.156,0.278,3.174,-1.221,-4.944
0.929,0.154,0.281,2.563,-0.793,-6.165
0.939,0.156,0.285,1.587,-1.282,-6.836
0.948,0.158,0.288,0.854,-2.197,-6.409

1.503,-0.963,0.533,41.443,2.563,-9.521
1.600,-1.243,0.506,47.546,14.648,-11.902
1.660,-1.559,0.431,50.171,31.860,-13.123
1.713,-1.862,0.323,47.668,55.420,-10.864
1.752,-2.111,0.210,39.490,84.290,-4.578
1.722,-2.211,0.096,27.649,114.441,6.042
1.704,-2.191,-0.001,15.564,142.212,23.437
1.813,-2.173,-0.047,6.592,160.339,45.410
1.825,-2.058,-0.037,4.761,159.424,61.401
1.697,-1.818,-0.021,8.423,141.602,67.810
1.534,-1.620,0.015,14.954,114.929,72.327
1.331,-1.413,-0.010,19.775,84.473,78.430
0.998,-1.084,-0.011,16.357,59.082,82.031
0.669,-0.765,0.023,3.784,44.067,85.083
0.354,-0.417,0.023,-13.916,36.499,84.961
0.007,0.016,0.023,-36.377,33.936,74.280
-0.331,0.473,0.026,-58.533,34.668,48.462
-0.556,0.849,0.019,-74.219,37.170,5.493
-0.615,1.105,-0.002,-81.604,40.466,-53.528
-0.504,1.292,0.015,-85.693,40.405,-116.760
-0.202,1.410,0.048,-89.966,33.386,-170.410
0.159,1.493,0.032,-94.604,20.325,-208.496
0.499,1.627,-0.012,-100.647,4.517,-227.112
0.798,1.771,-0.054,-104.553,-10.315,-226.929
0.988,1.935,-0.097,-102.112,-23.560,-217.468
1.106,2.062,-0.119,-93.384,-31.494,-203.918
1.197,2.122,-0.149,-79.102,-31.921,-188.110
1.265,2.162,-0.149,-64.453,-24.231,-170.349
1.317,2.153,-0.148,-52.002,-12.451,-149.353
1.344,2.099,-0.154,-42.114,-0.183,-126.465
1.401,2.023,-0.148,-34.973,11.841,-102.539
1.470,1.904,-0.128,-29.663,18.738,-77.454
1.501,1.773,-0.123,-25.330,17.273,-52.856
1.505,1.630,-0.125,-21.912,8.850,-30.212
1.460,1.526,-0.108,-18.433,-4.272,-10.376
1.404,1.404,-0.124,-13.672,-20.386,7.812
1.260,1.292,-0.181,-7.263,-33.936,25.696
1.173,1.202,-0.196,-0.061,-38.818,43.152
1.131,1.081,-0.201,9.277,-36.255,60.791
1.058,0.990,-0.225,19.958,-28.748,75.745
1.022,0.889,-0.199,28.625,-18.066,89.722
1.003,0.764,-0.183,36.621,-8.606,102.295
1.008,0.670,-0.142,41.687,-1.526,110.962
1.024,0.556,-0.135,45.288,0.854,115.540
1.042,0.478,-0.118,45.593,0.610,114.319
1.069,0.437,-0.079,43.884,-2.197,109.802
1.098,0.423,-0.034,41.870,-9.277,106.140
1.109,0.403,-0.003,40.527,-21.362,105.469
1.139,0.380,0.013,39.978,-35.889,106.201
1.119,0.369,0.012,39.978,-51.086,106.323
1.081,0.313,-0.005,39.307,-64.392,110.107
1.010,0.282,-0.004,36.743,-71.899,114.258
0.939,0.245,0.002,34.119,-71.960,118.530
0.912,0.199,0.012,33.508,-65.674,119.690
0.875,0.151,0.011,32.776,-53.467,113.464
0.822,0.135,0.018,31.677,-37.292,99.792
0.827,0.123,0.056,31.555,-18.921,82.947
0.933,0.092,0.128,32.043,-3.784,68.054
1.019,0.050,0.182,31.067,1.343,58.105
1.053,-0.007,0.212,29.602,-4.089,49.500
1.115,-0.089,0.251,27.222,-15.259,40.833
1.119,-0.156,0.269,21.179,-28.564,35.706
1.043,-0.201,0.244,11.353,-41.382,32.898
0.947,-0.251,0.216,0.977,-47.241,28.809
0.911,-0.248,0.172,-7.568,-42.480,19.043
0.823,-0.235,0.149,-14.587,-28.625,5.859
0.907,-0.267,0.158,-18.799,-8.362,-5.249
1.051,-0.260,0.201,-20.630,11.292,-14.832
1.195,-0.264,0.225,-22.583,20.630,-14.221
1.258,-0.245,0.235,-23.376,17.212,-9.521
1.272,-0.225,0.251,-21.423,4.822,-5.249
1.251,-0.222,0.264,-16.907,-12.573,-2.319
1.172,-0.227,0.251,-11.169,-32.532,-0.122
1.026,-0.242,0.204,-5.493,-48.950,-0.671
0.885,-0.286,0.154,-0.183,-53.955,-5.310
0.805,-0.342,0.130,2.563,-43.945,-14.832
0.810,-0.389,0.133,1.282,-21.851,-25.085
0.952,-0.414,0.178,-4.639,4.700,-30.151
1.148,-0.412,0.244,-12.573,24.597,-27.893
1.304,-0.363,0.286,-20.996,29.663,-19.226
1.352,-0.288,0.299,-28.015,19.104,-8.118
1.321,-0.211,0.277,-31.067,-0.183,-0.061
1.210,-0.148,0.233,-29.419,-19.592,3.784
1.068,-0.110,0.183,-24.902,-32.776,4.211
0.953,-0.079,0.141,-18.738,-35.583,2.441
0.867,-0.061,0.122,-12.024,-27.954,0.122
0.830,-0.061,0.124,-5.310,-13.855,-2.502
0.852,-0.067,0.142,0.366,1.282,-5.676
0.896,-0.074,0.170,4.333,12.878,-10.376
0.949,-0.075,0.205,6.042,18.494,-13.794
0.987,-0.065,0.236,6.836,17.944,-14.099
1.042,-0.104,0.252,6.104,12.512,-11.475
1.023,-0.048,0.279,3.357,3.479,-8.606
1.017,-0.059,0.249,1.709,-6.409,-2.869
0.972,-0.029,0.231,-0.427,-13.550,-1.038
0.944,-0.009,0.225,-1.892,-16.479,-1.221
0.933,0.009,0.211,-1.343,-17.090,-2.258
0.908,0.041,0.212,-0.305,-15.076,-3.540
0.910,0.045,0.208,1.892,-11.230,-4.395
0.918,0.050,0.215,4.272,-6.104,-5.432
0.937,0.055,0.229,5.737,-0.610,-5.615
0.953,0.060,0.236,6.348,3.967,-4.639
0.968,0.070,0.241,6.287,7.324,-3.601
0.986,0.085,0.255,6.348,9.094,-3.601
1.002,0.103,0.268,6.348,8.667,-3.662
1.010,0.115,0.275,6.592,5.798,-3.357
1.002,0.127,0.276,6.775,1.648,-2.808
0.993,0.134,0.274,6.470,-1.770,-1.587
0.972,0.140,0.269,5.737,-4.089,-0.366
0.945,0.147,0.262,4.639,-4.639,0.183
0.922,0.151,0.253,3.662,-3.174,-0.122
0.906,0.156,0.246,2.380,-0.610,-1.282
0.907,0.166,0.246,0.793,3.357,-2.380
0.915,0.169,0.244,-0.732,7.568,-3.113
0.925,0.171,0.237,-1.953,10.864,-3.357
0.943,0.177,0.234,-3.357,13.123,-3.540
0.966,0.186,0.235,-4.578,13.550,-3.723
0.985,0.188,0.234,-4.639,11.719,-3.784
0.997,0.193,0.232,-4.700,8.362,-3.418

1.195,-1.596,0.503,17.273,5.493,-4.761
1.134,-2.090,0.472,15.381,27.588,-14.343
1.072,-2.394,0.320,8.423,65.125,-27.893
1.123,-2.326,0.184,-8.972,117.859,-38.879
1.514,-2.260,0.129,-29.846,173.950,-38.635
1.934,-2.178,0.090,-42.786,214.417,-35.400
2.175,-2.008,0.100,-47.974,230.103,-25.452
2.336,-2.004,0.093,-44.006,216.614,0.793
2.332,-2.043,0.048,-33.630,180.542,34.729
2.217,-1.974,0.007,-24.292,137.146,64.453
1.970,-1.682,-0.083,-17.578,95.459,87.341
1.558,-1.217,-0.121,-9.644,57.800,102.234
1.128,-0.738,-0.142,4.395,28.381,106.201
0.755,-0.258,-0.165,25.574,7.080,94.910
0.490,0.088,-0.081,49.622,-8.911,71.472
0.349,0.312,0.078,71.411,-25.574,42.664
0.387,0.543,0.325,83.252,-43.823,5.432
0.470,0.816,0.587,81.238,-62.439,-37.903
0.442,1.061,0.715,63.354,-80.566,-75.378
0.266,1.345,0.630,29.846,-91.003,-105.896
0.106,1.609,0.404,-13.977,-79.773,-135.864
0.087,1.865,0.036,-61.707,-42.480,-166.626
0.254,2.099,-0.316,-105.469,14.282,-193.542
0.595,2.352,-0.597,-138.794,73.853,-206.665
0.937,2.606,-0.759,-154.480,111.084,-199.585
1.224,2.837,-0.694,-146.057,110.352,-173.218
1.404,2.916,-0.566,-112.549,68.481,-138.550
1.342,2.786,-0.478,-67.444,-2.563,-104.370
1.066,2.526,-0.506,-26.001,-78.735,-71.350
0.586,2.262,-0.562,0.183,-132.202,-42.847
0.323,1.990,-0.510,12.390,-142.273,-23.560
0.230,1.709,-0.412,16.968,-116.150,-16.357
0.293,1.516,-0.368,13.489,-77.454,-13.489
0.451,1.370,-0.367,3.967,-38.513,-4.333
0.567,1.368,-0.334,-7.935,-5.920,3.540
0.662,1.342,-0.373,-10.742,17.090,16.296
0.791,1.315,-0.392,-5.005,33.630,30.029
0.930,1.231,-0.401,7.141,42.358,43.457
1.044,1.144,-0.372,22.461,42.175,54.382
1.175,1.043,-0.277,37.720,34.241,66.956
1.218,0.901,-0.248,52.002,16.174,84.106
1.165,0.769,-0.223,61.279,-5.798,101.990
1.030,0.672,-0.224,63.904,-24.353,113.892
0.901,0.606,-0.205,63.538,-33.142,119.507
0.799,0.546,-0.178,60.913,-31.006,121.826
0.818,0.511,-0.144,57.373,-19.836,121.582
0.871,0.486,-0.104,53.223,-4.211,118.042
0.923,0.494,-0.065,48.645,10.071,111.877
0.987,0.506,-0.021,43.640,19.470,107.727
1.046,0.515,0.020,41.077,19.775,105.347
1.077,0.525,0.061,40.283,10.315,104.065
1.078,0.494,0.089,42.419,-6.775,102.234
1.053,0.417,0.098,45.715,-28.625,98.450
0.994,0.329,0.090,47.607,-49.744,90.698
0.912,0.256,0.083,45.898,-63.171,78.247
0.822,0.195,0.077,41.321,-63.721,62.134
0.791,0.112,0.083,35.095,-48.340,45.532
0.883,0.044,0.112,25.208,-21.057,31.555
1.096,-0.029,0.159,11.597,7.751,22.156
1.270,-0.029,0.193,-5.615,24.597,17.761
1.381,0.006,0.212,-20.081,23.743,18.127
1.364,0.061,0.221,-27.954,5.615,15.564
1.229,0.122,0.176,-26.306,-19.409,12.451
1.098,0.088,0.151,-16.113,-41.504,7.324
0.889,0.035,0.083,-3.357,-53.650,-4.822
0.902,-0.078,0.116,9.338,-48.523,-16.357
1.014,-0.238,0.157,17.761,-35.889,-27.527
1.101,-0.312,0.230,16.541,-25.513,-34.241
1.221,-0.377,0.275,9.155,-22.034,-30.701
1.276,-0.378,0.299,-1.404,-28.381,-23.254
1.246,-0.355,0.307,-11.292,-41.748,-14.771
1.155,-0.338,0.271,-18.372,-56.396,-9.888
1.005,-0.302,0.219,-21.545,-64.331,-10.925
0.945,-0.324,0.202,-19.653,-59.875,-16.785
0.991,-0.359,0.234,-15.991,-43.945,-23.865
1.105,-0.366,0.259,-14.282,-27.466,-29.541
1.204,-0.380,0.272,-12.939,-17.029,-33.325
1.287,-0.369,0.291,-13.062,-12.695,-33.936
1.303,-0.333,0.292,-13.245,-16.296,-31.433
1.253,-0.291,0.257,-11.536,-23.560,-28.442
1.200,-0.257,0.231,-6.348,-30.273,-26.245
1.117,-0.243,0.207,0.366,-33.142,-25.269
1.041,-0.242,0.179,6.775,-30.945,-23.804
1.012,-0.248,0.178,11.353,-23.071,-20.630
1.031,-0.254,0.181,13.855,-12.146,-17.151
1.052,-0.255,0.192,13.611,-2.441,-15.015
1.096,-0.233,0.212,11.719,4.883,-14.282
1.121,-0.204,0.243,8.789,7.996,-13.367
1.148,-0.174,0.258,6.348,6.409,-11.536
1.147,-0.140,0.266,4.028,1.221,-7.751
1.122,-0.104,0.268,2.380,-5.920,-2.808
1.072,-0.067,0.255,1.587,-13.245,2.563
1.006,-0.043,0.233,1.770,-18.494,7.446
0.945,-0.019,0.214,2.502,-20.264,9.888
0.890,-0.002,0.201,3.357,-18.188,10.376
0.845,0.018,0.193,4.089,-12.939,9.583
0.833,0.028,0.196,4.883,-5.798,8.423
0.832,0.031,0.207,5.188,1.587,7.446
0.850,0.035,0.214,4.089,8.362,6.958
0.867,0.051,0.225,2.136,12.573,5.981
0.905,0.068,0.232,-0.549,14.099,4.395
0.947,0.092,0.234,-3.296,12.268,3.967
0.958,0.129,0.224,-5.066,6.836,4.822
0.943,0.167,0.208,-5.676,0.732,5.371
0.910,0.191,0.186,-5.066,-3.967,5.310
0.871,0.205,0.167,-3.540,-5.920,4.578
0.850,0.214,0.161,-2.075,-4.211,3.113
0.834,0.215,0.159,-0.916,0.061,1.221
0.850,0.209,0.163,-0.427,5.798,-0.732
0.880,0.217,0.180,-0.977,11.230,-1.709
0.912,0.223,0.192,-1.648,14.282,-2.319
0.939,0.218,0.200,-1.953,13.855,-3.113
0.964,0.217,0.205,-2.502,10.925,-3.418
0.975,0.219,0.205,-3.357,5.981,-3.357
0.969,0.221,0.200,-3.601,0.427,-3.174
0.961,0.217,0.195,-3.601,-3.967,-2.991
0.944,0.214,0.185,-3.967,-6.714,-2.502
0.923,0.214,0.175,-4.150,-6.958,-2.319
0.908,0.221,0.168,-4.700,-4.761,-2.808

1.481,-1.572,0.380,12.939,31.311,-6.470
1.643,-2.123,0.293,21.729,47.546,-18.555
1.823,-2.272,0.215,21.301,79.468,-33.447
2.148,-2.213,0.226,14.343,119.629,-32.410
2.359,-2.157,0.249,9.827,148.010,-5.127
2.287,-2.202,0.213,11.169,152.405,41.687
2.037,-2.377,0.180,20.630,138.306,94.604
1.720,-2.563,0.229,33.508,119.324,134.094
1.392,-2.593,0.297,45.593,99.548,154.785
1.102,-2.568,0.269,56.091,80.200,160.889
0.838,-2.338,0.229,59.204,65.979,150.818
0.602,-1.798,0.284,52.185,59.570,127.686
0.457,-1.252,0.385,44.495,52.246,100.464
0.347,-0.912,0.408,40.283,35.095,70.007
0.238,-0.424,0.368,30.640,9.888,26.062
0.108,0.206,0.400,15.076,-15.198,-33.386
0.104,0.683,0.399,3.845,-40.955,-97.961
0.225,1.053,0.290,-6.226,-58.777,-163.269
0.374,1.429,0.160,-26.245,-61.768,-224.426
0.621,1.797,-0.030,-55.115,-48.096,-268.433
0.977,2.131,-0.320,-88.135,-20.508,-295.105
1.372,2.539,-0.588,-122.375,15.930,-306.641
1.670,2.945,-0.803,-151.733,51.208,-298.462
1.863,3.229,-0.937,-167.358,71.045,-267.761
1.884,3.400,-1.020,-168.457,64.453,-222.839
1.786,3.465,-1.052,-155.151,36.255,-177.979
1.573,3.379,-1.026,-131.348,-0.488,-141.907
1.421,3.206,-0.920,-101.746,-34.241,-112.122
1.242,2.881,-0.961,-70.984,-58.167,-82.458
1.091,2.724,-0.780,-47.119,-61.584,-58.655
1.048,2.455,-0.663,-23.376,-54.565,-37.842
1.062,2.174,-0.536,6.409,-43.091,-14.160
1.032,1.901,-0.456,24.170,-27.832,8.850
1.082,1.669,-0.382,45.227,-15.625,41.138
1.095,1.445,-0.294,58.777,-4.822,73.059
1.079,1.281,-0.256,69.641,1.099,99.670
1.108,1.186,-0.104,76.111,1.892,119.934
0.947,0.991,-0.170,80.811,-2.930,138.123
1.015,0.730,-0.201,83.252,-2.380,149.658
1.018,0.904,0.125,83.435,-0.916,151.489
1.115,0.718,0.090,90.027,-13.184,162.964
1.123,0.613,0.078,88.013,-29.358,166.443
0.977,0.546,0.042,77.942,-40.100,167.419
0.953,0.544,0.091,65.613,-43.396,169.861
0.891,0.516,0.044,55.725,-43.457,171.936
0.865,0.579,0.126,44.861,-36.621,174.805
0.851,0.559,0.118,35.767,-28.931,179.382
0.754,0.562,0.115,29.663,-22.461,181.274
0.717,0.588,0.155,23.010,-15.503,179.382
0.632,0.566,0.135,20.447,-12.329,172.241
0.589,0.557,0.134,18.311,-10.986,158.325
0.618,0.428,0.125,17.029,-12.512,139.832
0.677,0.371,0.105,13.977,-16.541,109.497
0.731,0.302,0.099,9.399,-18.860,76.599
0.837,0.234,0.122,7.263,-19.836,47.607
1.007,0.109,0.120,5.249,-19.531,26.733
1.114,0.032,0.095,-0.305,-17.944,11.414
1.105,0.020,0.079,-7.812,-13.489,-1.587
1.158,-0.020,0.093,-12.634,-3.540,-6.958
1.221,-0.014,0.119,-14.893,4.822,-7.080
1.241,-0.078,0.142,-13.550,4.761,-7.996
1.172,-0.024,0.116,-8.118,-3.113,-15.320
1.117,-0.115,0.100,1.526,-14.771,-21.301
1.029,-0.131,0.120,11.719,-27.283,-30.090
0.933,-0.211,0.146,21.545,-38.696,-36.011
0.942,-0.390,0.177,28.381,-44.800,-38.452
1.035,-0.516,0.244,24.231,-44.861,-36.743
1.119,-0.588,0.271,8.911,-46.021,-27.893
1.215,-0.598,0.276,-9.705,-52.795,-18.066
1.206,-0.529,0.268,-27.588,-65.735,-17.151
1.092,-0.410,0.215,-37.048,-80.933,-25.513
0.955,-0.323,0.155,-35.217,-91.003,-40.405
0.837,-0.302,0.108,-24.353,-89.050,-55.603
0.788,-0.317,0.110,-11.230,-73.181,-65.002
0.815,-0.345,0.146,-0.549,-48.096,-67.749
0.932,-0.407,0.186,6.226,-21.301,-67.139
1.027,-0.437,0.227,6.409,-1.892,-65.491
1.193,-0.466,0.270,0.916,6.714,-60.913
1.299,-0.417,0.300,-9.460,2.319,-52.856
1.270,-0.338,0.269,-18.738,-13.123,-44.678
1.178,-0.259,0.205,-23.376,-30.884,-38.635
1.050,-0.199,0.140,-22.522,-42.847,-35.522
0.908,-0.152,0.093,-17.578,-45.410,-34.546
0.766,-0.108,0.067,-10.681,-38.330,-34.668
0.748,-0.113,0.111,-3.052,-21.484,-35.828
0.873,-0.137,0.175,2.869,-1.343,-35.828
1.015,-0.150,0.236,4.883,10.986,-33.142
1.152,-0.151,0.284,3.357,11.414,-29.114
1.255,-0.127,0.327,0.244,2.136,-22.827
1.262,-0.085,0.335,-1.953,-13.794,-15.686
1.204,-0.037,0.315,-2.686,-30.334,-9.277
1.099,-0.011,0.276,-1.282,-41.626,-4.639
0.986,0.000,0.230,0.732,-43.518,-2.930
0.910,0.011,0.207,2.502,-34.607,-2.625
0.881,0.027,0.202,3.845,-17.639,-3.357
0.908,0.043,0.213,4.761,1.404,-5.371
0.947,0.048,0.221,4.333,18.616,-8.545
1.003,0.071,0.233,2.930,30.640,-11.230
1.036,0.115,0.237,0.854,36.499,-11.536
1.064,0.147,0.239,-0.488,37.292,-10.010
1.075,0.165,0.235,-0.977,34.485,-7.446
1.075,0.199,0.233,-1.831,29.724,-4.761
1.051,0.207,0.208,-2.441,24.048,-1.221
1.042,0.230,0.197,-2.380,18.982,1.892
1.018,0.249,0.190,-1.709,15.381,4.028
1.005,0.253,0.185,-0.122,12.756,5.188
1.000,0.245,0.188,1.709,11.536,5.737
1.001,0.240,0.194,3.296,11.169,5.981
1.006,0.230,0.202,3.723,10.681,5.859
1.005,0.227,0.207,3.784,9.399,5.249
1.000,0.232,0.210,3.967,7.996,4.395
0.998,0.231,0.208,4.272,7.324,2.930
0.995,0.223,0.210,4.578,7.385,1.709
0.998,0.219,0.213,4.761,8.362,1.343
1.001,0.220,0.217,4.089,10.132,1.770
1.013,0.221,0.222,3.540,11.841,2.136
1.024,0.217,0.226,3.113,12.024,2.380
1.009,0.223,0.222,2.747,10.254,2.563
0.999,0.230,0.219,2.869,8.057,3.601

1.423,-1.365,0.461,8.850,14.771,14.832
1.550,-1.754,0.292,8.667,17.395,12.268
1.576,-2.039,0.139,1.892,30.396,3.906
1.662,-2.198,-0.015,-6.470,54.993,2.075
1.757,-2.185,-0.110,-10.010,85.693,10.132
1.990,-2.220,-0.125,-1.770,114.441,29.602
2.110,-2.310,-0.085,21.057,130.737,51.147
2.019,-2.477,-0.033,52.612,135.620,80.017
1.926,-2.646,0.083,79.895,131.104,121.338
1.655,-2.721,0.197,96.680,116.333,155.640
1.318,-2.669,0.303,99.121,96.863,169.189
0.993,-2.453,0.386,83.130,75.928,162.109
0.623,-2.070,0.440,53.101,56.519,136.597
0.260,-1.569,0.449,17.151,38.391,97.473
-0.088,-0.978,0.332,-18.066,22.400,47.180
-0.364,-0.263,0.157,-53.040,8.545,-13.916
-0.495,0.459,0.012,-81.238,-0.793,-82.642
-0.415,1.070,-0.120,-98.999,-7.690,-150.085
-0.144,1.501,-0.218,-108.215,-13.489,-215.698
0.314,1.803,-0.309,-114.075,-18.066,-274.658
0.953,2.098,-0.457,-120.789,-20.874,-321.838
1.563,2.484,-0.615,-130.859,-21.362,-350.342
1.959,2.912,-0.702,-138.794,-19.958,-350.708
2.009,3.209,-0.772,-138.550,-20.508,-321.838
1.962,3.304,-0.836,-127.075,-19.226,-279.907
1.901,3.272,-0.868,-111.145,-13.123,-241.272
1.869,3.224,-0.843,-96.497,-6.958,-207.092
1.851,3.140,-0.786,-82.581,-4.578,-175.171
1.794,2.998,-0.741,-66.467,-6.653,-144.287
1.723,2.818,-0.728,-48.767,-9.705,-113.281
1.647,2.627,-0.684,-29.480,-9.033,-82.031
1.539,2.438,-0.604,-8.423,-5.127,-49.011
1.448,2.225,-0.505,14.587,-0.061,-13.977
1.299,1.996,-0.431,38.452,4.700,21.484
1.290,1.812,-0.262,58.838,12.390,58.533
1.403,1.299,-0.114,82.031,17.517,90.149
1.221,1.166,-0.092,94.299,6.714,95.215
1.053,1.008,-0.059,91.736,-8.057,111.389
1.080,0.865,-0.049,83.984,-18.188,122.925
0.951,0.756,-0.063,79.895,-17.700,130.737
0.999,0.700,-0.061,71.960,-8.423,141.174
1.085,0.660,-0.021,65.308,1.526,152.405
1.179,0.574,0.003,60.730,6.714,162.048
1.214,0.529,-0.014,57.068,3.601,163.147
1.161,0.520,-0.023,50.720,-2.197,160.461
1.098,0.560,-0.022,45.654,-8.850,158.875
1.125,0.542,-0.016,46.021,-16.357,161.743
1.048,0.628,0.020,49.500,-24.536,169.006
1.078,0.592,-0.015,57.434,-31.494,184.143
1.077,0.509,0.000,67.383,-37.292,188.843
1.000,0.519,0.047,72.388,-43.091,178.833
1.085,0.302,0.044,76.477,-48.584,167.297
1.008,0.247,0.065,74.585,-52.795,145.691
0.926,0.232,0.087,69.275,-55.298,121.399
0.833,0.208,0.097,64.880,-54.321,100.952
0.813,0.075,0.099,61.096,-48.767,83.801
0.866,-0.001,0.127,50.171,-39.124,69.885
0.911,-0.054,0.132,33.447,-32.288,62.439
0.896,-0.081,0.113,16.235,-28.259,55.176
0.906,-0.101,0.104,1.892,-23.437,47.424
0.850,-0.098,0.088,-9.766,-17.212,38.391
0.764,-0.040,0.072,-16.418,-9.216,27.344
0.769,-0.052,0.070,-16.541,1.038,13.977
0.759,-0.030,0.079,-10.986,10.742,-4.333
0.845,-0.120,0.103,-1.099,17.151,-20.020
1.055,-0.249,0.205,7.141,18.250,-29.602
1.227,-0.367,0.263,7.141,8.301,-26.245
1.259,-0.429,0.252,-0.732,-11.902,-17.883
1.221,-0.435,0.238,-13.184,-33.020,-11.536
1.100,-0.391,0.211,-24.841,-52.246,-11.353
0.901,-0.381,0.101,-30.457,-65.491,-17.456
0.691,-0.334,0.023,-31.128,-64.087,-33.630
0.645,-0.326,0.003,-24.902,-45.959,-54.443
0.819,-0.357,0.040,-12.939,-20.142,-73.608
1.082,-0.405,0.151,-1.709,-2.319,-85.815
1.336,-0.497,0.261,5.371,-1.892,-84.106
1.464,-0.530,0.304,4.211,-20.630,-70.313
1.449,-0.557,0.274,-1.282,-50.110,-52.429
1.318,-0.548,0.207,-8.972,-75.073,-36.499
1.132,-0.509,0.136,-17.578,-85.571,-25.879
0.952,-0.448,0.065,-23.682,-76.538,-23.499
0.869,-0.372,0.039,-25.391,-49.866,-28.137
0.890,-0.317,0.053,-22.705,-15.198,-34.485
1.010,-0.283,0.091,-16.235,16.602,-38.879
1.128,-0.240,0.149,-8.118,38.025,-41.077
1.243,-0.230,0.185,0.793,44.495,-39.551
1.329,-0.236,0.222,8.667,37.109,-34.790
1.339,-0.221,0.233,12.878,20.142,-26.978
1.278,-0.210,0.226,14.038,-0.977,-17.395
1.167,-0.192,0.194,12.512,-18.555,-9.644
1.040,-0.165,0.164,10.071,-28.320,-4.944
0.955,-0.133,0.152,7.202,-28.015,-2.869
0.900,-0.094,0.162,4.822,-20.630,-2.197
0.880,-0.068,0.178,3.113,-9.644,-1.953
0.888,-0.054,0.202,1.282,1.770,-1.831
0.911,-0.030,0.220,-1.770,11.780,-0.977
0.932,-0.001,0.231,-5.127,18.738,-0.427
0.957,0.024,0.237,-8.606,22.278,-1.099
0.980,0.055,0.239,-11.658,21.729,-2.563
0.988,0.096,0.230,-13.794,18.311,-3.235
0.981,0.132,0.217,-15.076,13.855,-3.418
0.969,0.157,0.204,-15.381,9.705,-3.357
0.944,0.181,0.180,-14.832,7.568,-3.113
0.936,0.209,0.158,-14.587,9.399,-1.038
0.937,0.232,0.149,-13.489,14.282,1.221
0.964,0.232,0.154,-11.963,19.714,1.221
0.995,0.240,0.170,-10.803,22.827,-1.221
1.009,0.252,0.180,-10.010,21.729,-2.991
1.012,0.265,0.184,-8.728,18.188,-2.930
1.004,0.270,0.185,-7.446,13.855,-2.014
0.995,0.258,0.181,-5.798,9.460,-1.465
0.979,0.243,0.172,-5.249,6.165,-1.831
0.977,0.243,0.168,-5.493,3.479,-2.258
0.968,0.240,0.159,-6.409,1.770,-2.869
0.966,0.244,0.149,-7.324,1.465,-3.052
0.963,0.240,0.146,-7.996,1.648,-3.174
0.976,0.234,0.150,-7.690,2.197,-3.906
0.992,0.237,0.161,-7.629,2.441,-4.517
1.001,0.240,0.166,-6.897,1.160,-4.395

1.673,-1.146,0.281,37.231,-37.781,14.526
1.706,-1.646,0.199,46.875,-19.531,19.897
1.746,-2.200,0.058,56.335,14.099,21.606
1.782,-2.522,-0.108,61.951,66.040,19.165
1.884,-2.495,-0.165,60.913,129.517,25.024
2.104,-2.475,-0.186,58.899,178.772,50.354
2.104,-2.557,-0.181,65.063,197.021,80.383
1.929,-2.688,-0.223,74.951,186.829,108.948
1.575,-2.591,-0.210,80.078,160.645,131.653
1.291,-2.432,-0.138,82.031,130.554,149.048
1.100,-2.212,-0.072,82.275,99.731,155.457
0.857,-1.845,0.032,73.975,70.129,148.926
0.596,-1.469,0.131,58.472,41.748,135.254
0.337,-1.028,0.157,37.109,15.991,114.807
0.097,-0.471,0.183,8.972,-1.465,85.449
-0.181,0.154,0.212,-20.569,-10.681,48.950
-0.421,0.759,0.207,-46.631,-12.207,7.080
-0.460,1.322,0.221,-65.918,-4.089,-43.701
-0.334,1.741,0.271,-77.454,9.888,-99.304
0.007,1.922,0.274,-84.900,20.020,-152.649
0.584,1.992,0.268,-92.896,23.010,-201.599
1.140,2.073,0.239,-106.323,14.160,-240.051
1.549,2.204,0.096,-122.742,-3.357,-260.254
1.682,2.430,-0.094,-139.526,-17.334,-260.071
1.521,2.634,-0.320,-152.344,-18.738,-241.333
1.258,2.749,-0.517,-160.034,-4.517,-208.862
1.031,2.773,-0.665,-158.875,21.973,-173.279
1.005,2.763,-0.713,-150.391,52.002,-143.372
1.116,2.718,-0.642,-136.414,69.641,-120.056
1.233,2.674,-0.492,-116.394,64.758,-98.511
1.280,2.538,-0.370,-89.294,36.377,-76.721
1.256,2.352,-0.334,-59.753,-6.104,-55.725
1.262,2.009,-0.271,-32.837,-48.889,-38.086
1.026,1.779,-0.381,-15.198,-86.121,-32.288
0.645,1.764,-0.340,-4.822,-101.990,-22.095
0.587,1.681,-0.374,12.817,-97.168,-0.061
0.522,1.351,-0.459,35.156,-73.242,31.799
0.589,1.314,-0.334,44.189,-33.264,55.298
0.766,1.082,-0.274,52.917,0.427,84.473
0.803,0.937,-0.267,57.007,20.081,105.225
0.837,0.841,-0.258,51.758,31.982,117.615
0.890,0.783,-0.236,46.753,38.391,122.925
0.961,0.740,-0.212,42.725,40.100,123.657
1.057,0.694,-0.174,41.016,36.194,120.850
1.102,0.618,-0.165,41.443,26.917,115.112
1.056,0.595,-0.174,42.664,14.221,106.995
1.027,0.769,-0.134,44.556,5.737,106.750
1.247,0.569,-0.091,58.655,1.343,124.512
1.104,0.553,-0.117,73.242,-9.094,128.662
1.055,0.582,-0.080,79.468,-14.099,135.803
1.037,0.601,-0.001,84.900,-15.442,140.564
1.028,0.581,0.031,92.590,-20.325,147.339
0.990,0.520,0.065,96.191,-28.931,151.917
0.907,0.441,0.093,94.849,-41.992,152.222
0.807,0.382,0.098,89.722,-57.312,146.423
0.709,0.330,0.094,82.642,-71.716,133.606
0.660,0.297,0.095,74.768,-81.360,112.488
0.609,0.247,0.072,68.604,-85.205,83.862
0.544,0.177,0.038,63.721,-80.383,51.331
0.537,0.090,0.030,58.899,-63.232,18.066
0.704,-0.009,0.066,52.246,-35.156,-8.850
0.896,-0.067,0.111,41.748,-7.263,-27.222
1.091,-0.112,0.174,27.649,12.512,-33.508
1.265,-0.143,0.234,9.644,19.653,-24.170
1.306,-0.208,0.245,-8.789,13.367,-6.104
1.243,-0.145,0.203,-24.170,-1.160,8.850
1.088,-0.098,0.150,-32.776,-14.465,20.691
0.941,-0.076,0.058,-31.982,-21.362,22.400
0.720,-0.005,0.003,-24.048,-18.372,9.583
0.648,-0.023,-0.010,-10.986,-4.211,-5.920
0.720,-0.089,0.010,2.197,14.709,-24.536
0.842,-0.133,0.070,11.475,28.931,-41.870
1.085,-0.248,0.164,14.771,33.691,-47.485
1.294,-0.347,0.216,8.667,24.780,-38.940
1.370,-0.372,0.216,-4.089,3.479,-25.452
1.326,-0.363,0.177,-18.799,-19.836,-13.306
1.233,-0.293,0.137,-31.555,-38.269,-7.080
1.075,-0.214,0.089,-38.025,-47.729,-8.301
0.929,-0.149,0.040,-37.903,-45.105,-13.977
0.900,-0.130,0.013,-33.386,-29.419,-21.973
0.936,-0.133,0.011,-26.917,-5.920,-29.297
1.003,-0.120,0.042,-22.217,16.663,-33.264
1.124,-0.120,0.089,-18.738,31.738,-32.410
1.237,-0.113,0.144,-16.785,33.447,-28.748
1.328,-0.124,0.187,-16.052,20.325,-24.414
1.349,-0.112,0.194,-16.541,-2.808,-19.043
1.275,-0.090,0.169,-17.334,-29.175,-13.611
1.181,-0.071,0.132,-18.188,-50.049,-8.240
1.070,-0.059,0.096,-19.470,-60.364,-4.150
0.957,-0.034,0.050,-20.752,-57.983,-3.357
0.880,-0.003,0.025,-21.118,-43.335,-5.554
0.864,0.043,0.034,-20.020,-21.362,-10.132
0.910,0.076,0.068,-16.724,0.977,-14.404
1.031,0.093,0.119,-12.573,18.311,-16.479
1.134,0.101,0.162,-8.240,25.024,-16.113
1.194,0.114,0.189,-4.822,20.386,-13.367
1.195,0.129,0.195,-2.563,7.385,-9.399
1.144,0.142,0.179,-0.427,-8.362,-5.859
1.058,0.149,0.153,1.648,-22.278,-3.967
0.977,0.149,0.132,2.991,-30.640,-4.272
0.930,0.143,0.118,3.906,-32.349,-5.615
0.899,0.142,0.110,3.540,-28.320,-6.897
0.875,0.137,0.103,2.441,-20.325,-8.789
0.881,0.127,0.102,-0.122,-9.460,-10.620
0.900,0.136,0.104,-4.211,1.831,-11.047
0.921,0.157,0.102,-8.301,12.634,-9.949
0.957,0.177,0.100,-11.841,20.569,-8.606
1.000,0.196,0.104,-13.733,25.269,-8.118
1.039,0.213,0.105,-14.038,25.085,-8.484
1.072,0.240,0.107,-13.245,19.897,-8.362
1.078,0.258,0.102,-10.925,10.742,-7.141
1.054,0.271,0.090,-7.385,0.549,-5.127
1.009,0.278,0.077,-3.174,-7.690,-3.540
0.965,0.274,0.062,0.916,-12.085,-2.441
0.931,0.261,0.059,4.822,-11.963,-1.648
0.913,0.247,0.068,7.568,-8.972,-1.526
0.909,0.232,0.079,8.850,-4.150,-2.502
0.912,0.227,0.091,8.667,0.671,-3.357
0.943,0.231,0.113,7.629,4.822,-3.662

1.588,-1.841,0.231,15.503,-14.221,-4.883
1.815,-2.522,0.120,17.151,4.456,-15.503
2.100,-3.025,-0.001,15.015,40.588,-33.630
2.516,-2.912,-0.094,-0.610,90.637,-44.067
2.868,-2.477,-0.064,-25.269,137.451,-30.090
2.884,-2.402,-0.153,-32.654,161.682,15.503
2.615,-2.455,-0.265,-21.851,166.748,80.750
2.131,-2.363,-0.250,-7.751,167.053,139.709
1.657,-2.191,-0.190,11.353,166.809,174.133
1.313,-1.945,-0.078,34.424,165.100,185.242
1.065,-1.627,0.078,54.199,157.593,179.077
0.792,-1.316,0.244,62.256,138.855,162.109
0.613,-1.027,0.347,55.908,105.896,142.273
0.353,-0.504,0.384,32.715,59.998,117.004
0.062,0.172,0.476,-3.052,11.719,77.820
-0.249,0.818,0.494,-31.677,-31.250,25.574
-0.501,1.325,0.554,-48.523,-67.627,-32.959
-0.604,1.657,0.628,-55.115,-93.262,-99.060
-0.401,1.803,0.583,-57.495,-105.469,-170.044
-0.007,1.840,0.427,-68.481,-107.117,-235.535
0.319,2.073,0.210,-99.915,-103.638,-282.837
0.568,2.308,-0.107,-141.113,-93.994,-304.504
0.734,2.479,-0.492,-178.894,-73.120,-305.603
0.879,2.586,-0.840,-208.313,-41.870,-294.861
0.980,2.644,-1.106,-222.351,-7.812,-276.550
1.096,2.803,-1.163,-221.802,22.034,-250.793
1.219,2.851,-1.092,-204.895,37.903,-216.431
1.324,2.824,-1.013,-175.415,31.250,-177.368
1.377,2.706,-0.916,-143.372,6.348,-140.198
1.322,2.470,-0.923,-110.657,-28.625,-109.009
1.164,2.184,-0.964,-82.642,-60.181,-82.764
1.001,1.975,-0.980,-64.087,-75.928,-59.204
0.801,1.679,-0.863,-49.744,-72.876,-38.452
0.985,1.639,-1.037,-34.119,-61.035,-24.292
0.886,1.590,-0.868,-15.686,-31.921,3.357
0.901,1.196,-1.038,9.949,-7.507,39.001
0.948,1.545,-0.736,22.156,23.193,53.833
0.943,1.110,-0.688,52.185,48.035,90.637
1.077,0.922,-0.636,78.918,60.181,115.479
1.099,0.839,-0.539,91.003,66.345,128.479
1.128,0.738,-0.570,101.074,65.247,142.334
1.142,0.562,-0.419,108.093,65.430,155.579
1.215,0.634,-0.325,110.718,55.847,158.447
1.193,0.524,-0.288,115.662,40.466,166.565
1.144,0.493,-0.244,116.333,22.217,170.959
1.134,0.457,-0.213,114.380,8.423,173.706
1.112,0.448,-0.179,112.732,-0.549,172.913
1.078,0.499,-0.120,110.168,-6.104,170.105
1.030,0.536,-0.078,109.436,-10.132,167.297
0.992,0.590,-0.018,108.215,-13.306,167.114
0.971,0.529,0.021,106.750,-19.958,171.265
0.935,0.442,0.039,103.760,-30.640,170.410
0.873,0.403,0.073,97.534,-43.457,161.133
0.812,0.318,0.063,90.393,-57.678,144.104
0.756,0.186,0.020,81.726,-66.345,117.737
0.739,0.069,-0.016,67.810,-61.279,86.243
0.788,0.012,-0.014,50.293,-43.213,53.650
0.884,-0.006,-0.001,32.715,-16.418,25.635
0.974,0.005,0.003,18.066,13.184,6.287
1.069,0.045,0.021,6.958,40.588,-2.991
1.147,0.110,0.068,1.770,59.143,-4.578
1.155,0.160,0.102,3.174,63.965,-3.357
1.178,0.046,0.155,10.681,56.946,-1.892
1.165,0.034,0.183,17.212,41.687,-0.916
1.127,-0.100,0.179,21.729,21.790,4.883
1.124,-0.151,0.177,20.569,3.662,8.728
1.107,-0.211,0.162,16.174,-13.306,11.658
1.067,-0.237,0.122,10.254,-28.809,7.568
1.005,-0.208,0.087,5.127,-38.513,-3.235
0.939,-0.161,0.060,2.747,-41.809,-16.541
1.007,-0.195,0.082,4.578,-38.208,-27.344
1.093,-0.236,0.110,4.150,-31.006,-28.259
1.140,-0.215,0.106,0.427,-27.344,-20.508
1.139,-0.156,0.089,-2.930,-26.917,-12.878
1.113,-0.120,0.059,-1.526,-27.283,-11.719
1.065,-0.079,0.045,3.723,-27.832,-18.127
1.032,-0.069,0.047,11.475,-27.405,-29.236
1.095,-0.138,0.096,19.043,-25.024,-38.635
1.150,-0.181,0.140,19.653,-24.109,-39.185
1.143,-0.184,0.146,13.977,-27.100,-31.555
1.094,-0.155,0.136,7.202,-31.921,-23.132
1.049,-0.129,0.118,1.648,-35.461,-18.921
1.010,-0.097,0.100,-1.709,-36.865,-20.264
0.979,-0.042,0.087,-2.136,-35.522,-24.719
0.968,-0.025,0.080,-0.366,-31.128,-29.785
0.967,-0.029,0.078,1.526,-23.437,-33.752
1.030,-0.016,0.096,1.160,-13.489,-32.227
1.111,0.009,0.132,-0.610,-7.568,-26.062
1.139,0.033,0.150,-1.770,-8.179,-19.653
1.140,0.050,0.141,-2.075,-13.916,-15.991
1.106,0.078,0.133,-1.587,-20.630,-14.954
1.066,0.103,0.128,0.549,-26.062,-15.137
1.028,0.108,0.130,2.991,-27.893,-14.771
1.002,0.082,0.133,4.211,-25.452,-13.184
0.986,0.061,0.125,2.930,-19.043,-9.155
0.979,0.068,0.128,-0.732,-10.864,-4.578
0.973,0.099,0.139,-5.249,-3.235,-2.869
0.974,0.128,0.151,-8.423,2.502,-3.540
0.968,0.146,0.144,-10.071,6.775,-5.127
1.004,0.178,0.149,-10.681,9.216,-4.639
1.007,0.206,0.153,-10.864,8.667,-3.357
0.986,0.233,0.142,-9.644,6.226,-3.113
0.951,0.252,0.130,-8.667,3.601,-3.235
0.925,0.243,0.122,-7.019,1.709,-3.784
0.922,0.217,0.110,-6.897,1.221,-4.456
0.926,0.222,0.092,-9.216,2.686,-4.028
0.923,0.246,0.078,-12.085,4.822,-3.296
0.919,0.276,0.066,-13.916,8.179,-3.296
0.917,0.303,0.060,-14.465,11.780,-4.517
0.912,0.313,0.054,-13.184,14.221,-6.714
0.921,0.309,0.055,-10.925,15.686,-9.216
0.956,0.292,0.059,-8.423,15.625,-11.658
0.995,0.281,0.066,-7.202,13.062,-12.939
1.015,0.293,0.072,-6.836,7.812,-11.597
1.019,0.306,0.071,-6.470,0.732,-8.301
1.003,0.301,0.063,-4.822,-6.470,-5.737
0.976,0.299,0.052,-2.686,-11.475,-4.639
0.950,0.299,0.041,-1.038,-13.733,-4.211
0.936,0.306,0.046,1.343,-12.634,-4.150

1.462,-1.667,0.204,6.042,22.278,-18.494
1.596,-2.081,0.095,11.780,47.119,-31.311
1.720,-2.306,0.001,16.785,81.543,-44.556
1.878,-2.448,-0.078,22.949,118.042,-46.021
2.091,-2.360,-0.140,32.410,149.780,-29.968
2.185,-2.436,-0.162,50.415,166.382,3.479
2.275,-2.704,-0.169,76.477,164.978,43.640
2.176,-2.856,-0.128,96.985,149.658,80.566
1.851,-2.696,-0.010,102.783,127.014,108.215
1.453,-2.347,0.101,99.426,96.130,131.714
1.038,-2.014,0.144,90.454,62.805,143.066
0.622,-1.629,0.122,71.777,33.325,137.024
0.209,-1.041,0.141,40.405,11.230,109.802
-0.005,-0.336,0.199,3.235,-3.967,63.721
-0.113,0.317,0.135,-26.001,-15.991,-0.977
-0.105,0.871,0.159,-46.509,-21.851,-82.703
0.137,1.272,0.240,-62.378,-23.437,-157.471
0.650,1.533,0.231,-74.951,-27.344,-217.896
1.311,1.793,0.183,-92.163,-30.823,-263.428
1.740,2.141,0.090,-117.065,-34.912,-289.185
1.951,2.459,-0.076,-141.968,-36.804,-289.551
1.973,2.698,-0.291,-161.926,-34.180,-270.996
1.801,2.837,-0.531,-175.293,-28.259,-244.324
1.571,2.892,-0.712,-179.626,-21.423,-215.454
1.365,2.934,-0.788,-174.316,-17.883,-187.866
1.189,2.921,-0.786,-160.645,-21.606,-161.926
1.051,2.801,-0.777,-141.785,-32.837,-136.169
1.033,2.631,-0.716,-121.887,-44.250,-113.281
1.065,2.473,-0.586,-102.356,-56.091,-96.069
0.943,2.114,-0.701,-82.764,-71.838,-77.637
0.836,2.034,-0.585,-74.707,-75.256,-61.890
0.790,1.862,-0.626,-67.688,-70.007,-38.818
0.729,1.699,-0.686,-52.307,-57.739,-4.639
0.653,1.617,-0.670,-40.649,-35.706,27.527
0.660,1.502,-0.624,-22.400,-12.390,58.228
0.637,1.325,-0.621,-1.099,6.042,78.979
0.664,1.183,-0.555,19.592,18.555,90.393
0.791,1.002,-0.493,37.109,25.330,99.854
0.710,0.796,-0.482,50.476,25.574,106.750
0.801,0.700,-0.396,57.678,26.733,110.168
0.816,0.601,-0.342,63.904,30.029,112.732
0.820,0.471,-0.284,68.542,33.020,114.319
0.919,0.323,-0.202,69.031,35.156,112.671
1.033,0.407,-0.070,70.679,34.485,109.070
1.100,0.325,0.029,76.294,26.367,110.718
1.197,0.165,0.035,82.642,11.230,114.136
1.285,0.091,0.063,82.520,-1.648,109.131
1.276,0.067,0.079,80.078,-12.451,100.464
1.163,0.005,0.056,76.965,-20.630,97.046
1.117,0.026,0.097,72.083,-23.621,97.229
1.052,0.023,0.114,67.993,-24.353,99.670
1.020,-0.068,0.132,65.308,-22.339,101.929
0.969,-0.063,0.128,60.608,-21.240,98.694
0.931,-0.059,0.137,54.077,-19.043,94.238
0.965,-0.106,0.110,46.692,-17.029,84.167
1.035,-0.225,0.047,37.781,-14.343,67.688
1.056,-0.235,0.003,27.588,-8.606,44.434
1.103,-0.195,-0.020,18.982,1.038,23.132
1.234,-0.207,-0.015,14.404,13.916,8.423
1.333,-0.205,-0.017,14.954,26.489,-1.709
1.362,-0.179,0.004,18.982,35.400,-4.700
1.374,-0.167,0.044,22.827,39.734,0.977
1.356,-0.152,0.078,24.658,37.720,14.282
1.292,-0.122,0.097,22.888,28.564,30.151
1.224,-0.109,0.072,19.531,14.832,42.969
1.189,-0.145,0.047,15.686,0.793,49.683
1.125,-0.141,0.010,9.644,-12.634,48.462
1.029,-0.091,-0.019,3.235,-23.621,42.725
0.966,-0.043,-0.031,-2.563,-30.151,37.109
0.907,0.006,-0.053,-6.897,-31.311,32.959
0.846,0.049,-0.045,-9.705,-27.222,29.175
0.792,0.123,-0.056,-10.437,-18.860,25.330
0.759,0.156,-0.066,-8.240,-7.080,24.048
0.731,0.179,-0.065,-4.944,5.188,22.278
0.752,0.195,-0.062,-2.441,18.799,19.043
0.821,0.196,-0.043,-1.099,30.334,14.221
0.885,0.227,-0.016,-0.183,36.987,6.104
0.937,0.249,-0.001,0.305,37.354,-0.732
0.986,0.269,0.011,0.244,32.166,-3.906
1.036,0.298,0.021,0.488,23.315,-4.456
1.041,0.329,0.022,1.770,12.451,-4.822
1.009,0.348,0.007,4.150,2.686,-5.310
0.992,0.349,-0.006,7.263,-2.991,-6.165
0.971,0.340,-0.018,10.498,-4.211,-7.263
0.962,0.340,-0.017,13.367,-1.465,-7.446
0.953,0.346,-0.008,15.930,3.845,-5.920
0.950,0.347,0.001,17.822,9.949,-3.540
0.937,0.340,0.004,19.226,15.259,-2.075
0.936,0.346,0.012,19.653,18.799,-1.587
0.934,0.368,0.021,19.653,19.714,-2.441
0.919,0.372,0.017,19.104,17.578,-3.967
0.944,0.345,0.010,18.799,13.672,-7.019
0.982,0.331,0.011,17.334,9.338,-10.864
1.000,0.326,0.009,15.991,3.601,-15.076
1.016,0.327,0.009,15.442,-1.953,-17.090
1.021,0.323,0.014,15.686,-7.385,-15.869
1.013,0.321,0.014,16.235,-11.475,-11.963
1.006,0.311,0.016,17.395,-13.672,-6.592
0.977,0.300,0.014,17.517,-13.367,-1.953
0.936,0.298,0.017,16.968,-10.864,1.465
0.891,0.290,0.016,16.174,-6.714,3.113
0.867,0.283,0.020,14.587,-0.793,3.418
0.876,0.282,0.032,12.573,5.249,2.441
0.884,0.296,0.045,10.193,9.094,0.427
0.909,0.296,0.052,8.545,10.010,-1.343
0.948,0.292,0.056,7.019,7.385,-2.747
0.988,0.280,0.057,6.104,2.441,-3.601
1.011,0.281,0.052,5.310,-4.272,-4.395
1.015,0.287,0.048,5.371,-11.475,-4.944
1.006,0.287,0.045,6.226,-18.433,-4.761
0.988,0.274,0.040,7.568,-24.170,-3.662
0.949,0.262,0.042,9.277,-27.100,-3.174
0.915,0.242,0.045,10.681,-26.917,-2.625
0.895,0.215,0.050,11.108,-24.048,-1.831
0.876,0.196,0.051,10.132,-19.470,-2.319
0.848,0.173,0.047,8.179,-12.695,-4.456
0.845,0.162,0.047,4.883,-3.967,-8.057
0.853,0.161,0.047,0.916,5.432,-12.268
0.866,0.157,0.047,-2.441,14.954,-16.846

1.893,-1.596,0.242,26.550,-31.250,-19.043
2.200,-2.084,0.131,28.137,-49.866,-27.893
2.430,-2.295,0.007,29.175,-58.289,-42.358
2.405,-2.325,-0.071,30.762,-51.819,-48.706
2.342,-2.619,-0.190,41.199,-26.794,-30.701
2.004,-2.873,-0.340,55.298,16.174,6.042
1.570,-3.006,-0.435,65.125,72.083,59.204
1.389,-3.077,-0.432,71.411,128.235,110.718
1.331,-3.036,-0.411,73.792,169.922,138.672
1.256,-2.824,-0.318,67.017,190.308,141.663
1.146,-2.460,-0.155,53.345,188.477,135.437
1.121,-1.945,0.035,36.560,163.025,128.906
0.987,-1.443,0.134,22.522,118.591,115.723
0.762,-0.955,0.210,7.996,65.308,95.093
0.498,-0.460,0.310,-8.850,13.916,61.218
0.205,0.002,0.415,-22.766,-26.367,6.409
0.033,0.340,0.475,-34.546,-51.941,-65.002
0.168,0.569,0.475,-53.772,-62.988,-140.137
0.509,0.747,0.292,-88.379,-64.392,-207.825
0.891,1.016,-0.016,-136.169,-58.350,-262.939
1.272,1.415,-0.391,-188.721,-45.410,-295.105
1.591,1.833,-0.746,-229.858,-28.503,-303.406
1.867,2.212,-1.037,-250.061,-10.742,-293.091
1.954,2.532,-1.138,-247.314,1.526,-269.287
1.917,2.718,-1.073,-222.900,4.028,-237.000
1.820,2.727,-0.912,-182.434,-6.287,-202.026
1.679,2.633,-0.729,-137.817,-27.954,-170.593
1.421,2.479,-0.594,-98.206,-57.007,-145.996
1.212,2.297,-0.597,-68.542,-84.351,-125.244
1.021,2.193,-0.455,-51.331,-95.947,-109.436
1.115,1.988,-0.354,-39.795,-99.854,-102.539
1.041,1.686,-0.425,-37.476,-99.670,-99.304
0.981,1.595,-0.436,-53.406,-86.121,-91.187
0.956,1.673,-0.385,-72.998,-58.105,-70.435
0.888,1.639,-0.459,-75.378,-29.358,-33.752
0.875,1.603,-0.504,-70.801,2.502,6.470
0.838,1.506,-0.550,-57.434,33.508,37.720
0.874,1.424,-0.496,-40.100,58.594,59.082
0.924,1.232,-0.462,-20.264,70.557,76.538
0.917,1.094,-0.485,-4.578,69.153,86.609
0.906,0.932,-0.453,4.333,61.462,94.360
0.901,0.818,-0.448,10.803,49.744,97.778
0.782,0.722,-0.486,15.442,39.124,95.947
0.825,0.837,-0.355,19.165,33.386,93.750
0.884,0.557,-0.373,28.503,25.696,102.295
0.846,0.510,-0.464,38.391,20.020,102.844
0.877,0.588,-0.377,41.016,20.081,103.943
0.944,0.540,-0.368,50.049,18.494,112.366
1.023,0.500,-0.341,62.988,16.907,119.019
1.091,0.493,-0.292,73.303,14.526,121.216
1.161,0.440,-0.262,84.412,7.812,121.704
1.214,0.419,-0.202,92.590,-1.465,121.033
1.257,0.397,-0.122,98.694,-14.587,122.131
1.239,0.326,-0.089,103.821,-32.288,125.244
1.208,0.368,-0.023,104.919,-49.011,124.817
1.106,0.331,0.022,105.713,-62.378,125.305
1.058,0.258,-0.006,107.056,-72.144,122.925
1.016,0.194,-0.028,101.318,-71.350,113.647
1.049,0.159,-0.011,91.187,-59.631,101.501
1.089,0.128,0.001,78.796,-42.603,89.722
1.151,0.118,0.022,64.941,-25.024,78.674
1.265,0.139,0.069,51.453,-10.010,70.984
1.339,0.169,0.102,41.138,-1.831,68.298
1.334,0.168,0.115,34.668,-1.160,70.740
1.292,0.161,0.117,29.968,-4.700,77.148
1.170,0.160,0.101,26.306,-10.437,83.313
1.026,0.143,0.052,25.513,-14.343,83.923
0.925,0.114,0.008,27.466,-12.329,75.500
0.880,0.095,-0.001,30.762,-3.174,58.350
0.938,0.038,0.014,34.241,10.742,37.598
1.058,-0.040,0.039,34.363,24.658,21.179
1.237,-0.102,0.072,28.870,32.837,13.855
1.358,-0.121,0.096,20.264,31.006,12.878
1.398,-0.105,0.107,11.841,20.325,14.282
1.366,-0.079,0.106,5.981,4.028,17.761
1.270,-0.043,0.089,3.540,-12.512,22.644
1.134,-0.028,0.073,3.662,-25.635,27.161
0.953,-0.016,0.010,6.653,-31.433,27.710
0.835,-0.031,-0.009,11.719,-25.452,20.264
0.664,-0.048,-0.070,17.334,-10.193,4.944
0.674,-0.057,-0.073,22.278,14.526,-9.766
0.822,-0.131,-0.020,25.146,39.490,-22.461
1.034,-0.162,0.074,24.231,52.856,-30.823
1.315,-0.211,0.182,19.592,45.471,-26.917
1.436,-0.227,0.218,11.475,14.465,-15.442
1.386,-0.199,0.200,2.747,-29.419,-5.005
1.264,-0.157,0.141,-4.272,-72.510,2.686
1.061,-0.110,0.043,-6.226,-105.103,4.700
0.832,-0.065,-0.036,-3.906,-118.591,-0.366
0.685,-0.038,-0.090,3.784,-110.779,-10.620
0.669,-0.018,-0.082,15.869,-87.585,-24.414
0.750,-0.002,-0.025,31.677,-60.730,-38.757
0.885,-0.018,0.036,49.866,-42.053,-50.354
0.988,-0.052,0.083,68.176,-37.048,-58.777
1.077,-0.105,0.143,84.717,-43.945,-63.721
1.198,-0.215,0.214,95.886,-58.594,-62.805
1.265,-0.315,0.259,96.008,-77.393,-52.185
1.216,-0.340,0.272,83.862,-97.717,-33.264
1.127,-0.332,0.254,66.772,-112.549,-14.404
1.000,-0.308,0.219,49.866,-117.004,-1.953
0.841,-0.261,0.188,35.339,-107.666,3.052
0.763,-0.219,0.174,25.879,-85.571,1.770
0.760,-0.173,0.198,21.240,-53.711,-4.395
0.809,-0.128,0.240,20.386,-20.203,-13.306
0.881,-0.103,0.276,21.790,7.324,-20.508
0.962,-0.095,0.309,23.987,26.855,-24.536
1.051,-0.093,0.341,25.269,36.499,-25.818
1.122,-0.102,0.370,25.269,36.255,-24.780
1.154,-0.099,0.396,21.729,28.625,-20.447
1.143,-0.100,0.397,14.954,16.663,-12.329
1.090,-0.091,0.375,5.798,4.272,-3.113
1.006,-0.065,0.344,-3.906,-3.662,4.517
0.915,-0.029,0.311,-12.085,-5.127,8.667
0.853,0.009,0.282,-17.334,-0.183,8.789
0.832,0.035,0.268,-19.348,9.705,6.226
0.834,0.059,0.264,-18.921,20.935,2.441
0.865,0.079,0.276,-16.602,30.518,-0.732
0.910,0.089,0.291,-14.099,36.316,-2.319
0.940,0.091,0.299,-11.902,37.598,-2.686

1.617,-2.290,0.239,27.588,1.282,-20.996
2.042,-2.619,0.125,37.842,14.893,-50.476
2.310,-2.567,0.041,36.011,42.114,-72.327
2.478,-2.509,-0.122,26.428,76.416,-52.917
2.532,-2.597,-0.360,19.043,108.093,0.427
2.409,-2.739,-0.482,20.630,144.470,57.739
2.212,-2.714,-0.432,26.611,176.941,109.985
1.947,-2.667,-0.285,40.894,187.927,147.705
1.631,-2.660,-0.176,59.631,173.767,170.288
1.279,-2.538,-0.060,69.336,141.235,179.199
0.935,-2.341,-0.054,65.369,102.905,171.082
0.638,-1.801,0.010,40.833,72.632,143.860
0.382,-1.173,0.151,9.827,45.959,107.483
0.080,-0.594,0.207,-13.062,22.644,63.171
-0.092,-0.071,0.317,-30.457,11.597,6.653
-0.144,0.270,0.446,-41.382,11.353,-53.223
-0.014,0.518,0.517,-53.101,12.939,-111.877
0.157,0.745,0.534,-76.721,15.259,-168.518
0.409,0.995,0.412,-112.183,15.381,-216.431
0.760,1.291,0.141,-155.457,18.616,-255.127
1.174,1.644,-0.214,-203.918,30.029,-281.067
1.504,2.095,-0.535,-252.197,45.288,-286.804
1.696,2.476,-0.879,-289.185,54.138,-275.696
1.781,2.750,-1.199,-307.495,51.514,-257.568
1.866,2.998,-1.377,-305.908,40.283,-239.624
1.881,3.154,-1.422,-281.677,19.592,-219.849
1.792,3.185,-1.408,-240.295,-7.812,-192.139
1.693,3.132,-1.283,-189.880,-35.034,-158.630
1.584,2.984,-1.130,-134.521,-58.044,-126.709
1.517,2.569,-1.075,-82.458,-73.792,-96.130
1.323,2.320,-0.925,-49.805,-74.890,-72.083
1.244,2.124,-0.705,-31.006,-63.965,-46.082
1.169,1.849,-0.660,-13.184,-51.575,-16.174
1.134,1.665,-0.543,-2.747,-34.607,11.414
1.068,1.475,-0.502,4.822,-18.799,37.231
1.002,1.259,-0.480,17.639,-6.836,65.125
0.920,1.176,-0.377,27.649,4.761,83.130
1.067,1.198,-0.253,40.222,7.019,99.121
1.107,0.885,-0.221,62.439,-2.625,122.253
1.009,0.782,-0.217,77.148,-18.616,128.723
0.920,0.704,-0.212,84.961,-35.400,126.709
0.778,0.596,-0.258,94.910,-41.870,127.686
0.662,0.542,-0.228,99.304,-34.485,125.854
0.910,0.533,-0.088,107.239,-18.555,129.272
0.976,0.309,-0.129,119.019,-10.254,133.606
1.105,0.375,-0.048,121.338,-5.737,128.906
1.206,0.389,0.009,120.972,-6.836,126.648
1.221,0.307,-0.007,125.488,-16.968,129.028
1.231,0.214,-0.011,125.366,-29.053,128.174
1.170,0.177,-0.028,121.155,-37.170,120.422
1.147,0.247,0.093,116.028,-40.161,112.732
1.181,0.292,0.160,115.845,-48.767,113.403
1.094,0.193,0.156,115.173,-60.242,120.483
1.027,0.159,0.163,108.582,-72.144,120.850
0.912,0.170,0.143,98.511,-79.834,112.610
0.810,0.098,0.121,87.585,-77.148,103.088
0.811,0.061,0.109,72.937,-65.552,89.722
0.913,-0.008,0.107,57.434,-46.448,73.792
1.023,0.003,0.129,38.330,-25.208,59.509
1.072,0.008,0.136,18.921,-9.338,52.917
1.100,0.034,0.108,1.160,1.526,51.880
1.093,0.064,0.073,-12.695,10.193,51.086
1.060,0.104,0.045,-20.691,17.395,48.706
1.001,0.144,0.019,-22.400,23.315,43.701
0.942,0.146,-0.008,-18.860,28.748,35.767
0.971,0.095,0.013,-13.245,35.583,26.733
1.053,0.021,0.051,-10.620,41.382,21.362
1.148,-0.048,0.087,-12.695,39.856,20.325
1.212,-0.097,0.107,-18.250,31.067,21.362
1.204,-0.126,0.099,-25.574,15.930,22.461
1.108,-0.125,0.067,-32.288,-0.793,21.179
0.984,-0.098,0.030,-36.499,-12.756,17.822
0.860,-0.090,-0.016,-36.926,-16.907,11.963
0.741,-0.092,-0.074,-34.729,-10.193,3.052
0.657,-0.212,-0.099,-31.006,8.545,-7.446
0.759,-0.255,-0.102,-27.771,36.926,-22.034
1.093,-0.324,0.013,-29.541,64.331,-26.245
1.342,-0.372,0.070,-36.011,68.298,-22.278
1.440,-0.296,0.163,-43.091,48.767,-15.137
1.550,-0.326,0.165,-44.800,11.292,-3.540
1.500,-0.290,0.150,-43.701,-32.166,1.099
1.330,-0.231,0.094,-40.955,-73.181,-0.793
1.128,-0.231,0.031,-34.119,-100.647,-4.150
0.937,-0.235,-0.056,-25.757,-107.178,-8.728
0.754,-0.251,-0.109,-17.944,-91.248,-15.442
0.729,-0.275,-0.102,-10.559,-55.420,-23.254
0.896,-0.294,-0.024,-4.700,-12.451,-29.419
1.099,-0.290,0.067,-1.892,18.738,-30.334
1.244,-0.280,0.117,-0.854,29.663,-25.085
1.339,-0.270,0.137,-0.732,22.949,-16.235
1.330,-0.238,0.142,-0.732,5.371,-9.338
1.251,-0.197,0.124,-0.366,-13.916,-4.822
1.131,-0.167,0.088,1.465,-29.785,-2.991
1.006,-0.144,0.054,3.601,-36.194,-3.479
0.919,-0.115,0.045,6.287,-32.104,-6.653
0.888,-0.094,0.064,9.155,-20.752,-10.193
0.881,-0.075,0.088,11.230,-7.629,-12.695
0.893,-0.061,0.109,11.902,4.944,-14.282
0.926,-0.043,0.122,11.169,15.259,-14.832
0.962,-0.038,0.142,9.644,21.484,-15.076
1.008,-0.009,0.169,7.812,22.217,-15.991
1.051,0.019,0.198,5.920,17.395,-14.648
1.076,0.028,0.188,3.845,7.446,-9.521
1.046,0.070,0.169,1.465,-3.479,-4.944
0.995,0.093,0.131,0.000,-11.597,-1.465
0.947,0.104,0.095,-0.427,-14.954,0.488
0.902,0.121,0.070,-0.549,-12.878,-0.427
0.890,0.147,0.068,-0.122,-6.836,-2.625
0.889,0.157,0.071,1.099,0.793,-4.028
0.896,0.165,0.074,1.953,8.118,-5.310
0.922,0.173,0.084,2.380,13.977,-5.859
0.943,0.172,0.092,2.563,17.334,-6.531
0.959,0.166,0.093,2.502,18.066,-7.446
0.975,0.168,0.096,1.770,17.029,-7.935
0.987,0.160,0.092,0.488,14.526,-8.057
1.016,0.155,0.089,-1.465,10.864,-7.812
1.047,0.169,0.089,-3.967,5.371,-6.531
1.045,0.193,0.086,-5.920,-2.502,-5.066
1.026,0.205,0.074,-6.042,-10.986,-4.150

1.687,-1.375,0.316,11.230,7.263,-7.446
1.830,-1.710,0.267,17.883,17.090,-8.301
1.897,-2.089,0.151,26.489,34.180,-6.958
1.916,-2.420,-0.043,34.729,61.646,-1.404
1.911,-2.500,-0.275,36.316,98.816,12.878
1.973,-2.463,-0.435,34.119,137.512,40.283
2.108,-2.444,-0.480,33.752,168.030,75.928
2.150,-2.508,-0.492,40.161,179.260,108.887
1.924,-2.365,-0.403,46.753,169.373,132.996
1.718,-2.007,-0.266,49.927,142.212,157.227
1.407,-1.680,-0.224,57.251,101.501,172.546
1.017,-1.147,-0.173,60.608,61.035,166.138
0.638,-0.600,-0.044,59.265,24.963,153.992
0.296,-0.155,0.012,59.937,-6.592,134.277
-0.160,0.298,0.116,56.763,-25.452,102.112
-0.392,0.652,0.267,51.392,-28.198,59.753
-0.470,0.960,0.494,44.006,-16.602,8.545
-0.330,1.181,0.686,29.236,2.014,-43.396
-0.055,1.353,0.777,2.197,22.034,-91.675
0.260,1.554,0.760,-38.879,38.208,-132.019
0.518,1.807,0.635,-87.891,49.744,-158.813
0.691,2.064,0.372,-133.972,58.716,-172.180
0.774,2.267,0.008,-172.546,71.655,-175.232
0.863,2.392,-0.343,-202.759,91.492,-169.861
0.999,2.500,-0.560,-222.046,111.511,-156.860
1.145,2.641,-0.587,-224.792,116.028,-136.047
1.231,2.724,-0.493,-208.069,94.849,-110.107
1.137,2.630,-0.438,-173.279,47.485,-84.167
0.921,2.448,-0.486,-135.620,-10.559,-61.951
0.835,2.296,-0.321,-104.370,-60.547,-47.668
0.535,1.911,-0.593,-75.012,-105.103,-36.743
0.324,1.971,-0.423,-61.096,-124.695,-31.006
0.225,1.710,-0.510,-49.683,-122.681,-24.780
0.168,1.590,-0.471,-39.185,-101.929,-18.250
0.247,1.428,-0.455,-29.114,-74.402,-4.395
0.335,1.339,-0.404,-20.996,-46.509,10.742
0.372,1.226,-0.438,-12.634,-24.414,29.358
0.439,1.166,-0.404,-5.371,-5.005,46.265
0.517,1.111,-0.407,3.845,9.949,58.289
0.653,1.061,-0.382,14.893,20.874,66.650
0.778,0.967,-0.346,26.550,25.024,70.557
0.930,1.002,-0.280,36.682,20.508,72.144
0.994,0.859,-0.313,45.288,8.301,77.454
1.013,0.947,-0.265,49.133,-4.395,79.773
0.980,0.918,-0.265,53.284,-15.930,87.463
0.895,0.845,-0.320,61.462,-24.780,93.506
0.872,0.852,-0.265,63.904,-24.963,90.271
0.864,0.832,-0.214,66.528,-22.644,86.243
0.897,0.789,-0.221,73.669,-22.461,88.379
0.902,0.744,-0.187,75.317,-21.851,88.928
0.937,0.737,-0.162,75.500,-24.231,85.388
1.029,0.716,-0.074,75.134,-28.992,80.322
1.031,0.635,-0.057,76.477,-42.419,73.059
0.970,0.598,-0.049,75.439,-59.570,62.134
0.857,0.545,-0.043,72.937,-73.669,50.171
0.820,0.437,-0.025,70.068,-80.139,39.368
0.807,0.309,0.001,64.270,-79.224,29.663
0.837,0.100,0.022,53.162,-70.557,21.729
0.961,-0.056,0.016,35.461,-52.490,15.442
1.073,-0.164,0.031,11.719,-27.100,9.644
1.174,-0.121,0.043,-12.634,-2.136,-0.183
1.320,-0.064,0.088,-30.334,14.954,-7.141
1.358,-0.026,0.045,-34.546,17.456,-14.648
1.284,0.068,0.031,-29.907,8.789,-22.522
1.267,0.158,0.110,-16.113,-6.653,-26.428
1.167,0.061,0.117,8.240,-31.128,-26.978
0.989,-0.035,0.061,31.128,-55.664,-27.649
0.910,-0.232,0.035,46.448,-68.115,-29.785
0.891,-0.414,0.068,50.293,-64.209,-31.616
0.912,-0.580,0.094,39.368,-50.232,-26.367
1.023,-0.705,0.103,17.212,-32.166,-21.301
1.139,-0.681,0.121,-11.047,-16.785,-22.156
1.210,-0.601,0.118,-36.743,-10.620,-22.339
1.239,-0.446,0.099,-52.246,-14.832,-25.269
1.204,-0.305,0.084,-54.077,-26.550,-31.128
1.137,-0.233,0.055,-42.908,-40.649,-32.715
1.082,-0.224,0.053,-26.184,-51.575,-27.893
1.021,-0.246,0.072,-9.766,-56.946,-21.362
0.978,-0.301,0.068,4.272,-56.396,-16.296
0.941,-0.382,0.044,13.306,-49.438,-14.465
0.923,-0.451,0.023,16.052,-37.964,-19.165
0.966,-0.490,0.032,12.939,-24.048,-29.236
1.080,-0.493,0.064,6.836,-9.460,-40.161
1.181,-0.449,0.094,-1.160,0.916,-46.143
1.295,-0.396,0.126,-7.812,5.737,-44.556
1.373,-0.325,0.151,-12.085,4.089,-36.987
1.375,-0.240,0.158,-12.939,-4.028,-27.649
1.324,-0.163,0.140,-10.681,-15.015,-19.775
1.251,-0.112,0.124,-4.944,-25.330,-14.526
1.162,-0.082,0.111,3.052,-32.410,-12.695
1.058,-0.068,0.094,10.864,-34.180,-12.634
0.952,-0.059,0.071,17.273,-30.212,-13.000
0.887,-0.060,0.063,21.790,-19.897,-14.160
0.856,-0.064,0.067,24.292,-5.676,-15.442
0.864,-0.062,0.089,24.658,9.705,-17.151
0.898,-0.058,0.125,23.376,22.827,-18.677
0.944,-0.057,0.155,20.508,30.945,-18.250
0.976,-0.037,0.177,15.808,32.715,-16.479
0.990,-0.016,0.186,10.803,29.480,-14.282
1.002,0.002,0.190,5.737,23.315,-12.512
0.999,0.029,0.183,0.916,15.137,-10.864
0.998,0.062,0.179,-2.563,6.592,-8.484
0.984,0.087,0.168,-5.066,-0.854,-5.920
0.955,0.096,0.144,-5.493,-6.653,-4.822
0.924,0.106,0.120,-5.188,-9.644,-5.249
0.898,0.124,0.104,-4.089,-9.583,-6.531
0.880,0.126,0.091,-2.075,-6.836,-7.935
0.875,0.118,0.087,0.427,-1.648,-10.193
0.882,0.108,0.091,1.770,5.249,-12.512
0.911,0.101,0.109,3.174,11.902,-14.099
0.952,0.094,0.131,3.479,16.724,-14.526
0.980,0.086,0.150,3.296,18.433,-14.526
0.996,0.086,0.165,2.441,17.212,-14.709
0.994,0.092,0.170,1.770,13.916,-14.404
0.995,0.094,0.175,1.343,10.742,-13.733
1.000,0.087,0.185,1.648,7.690,-13.916
1.024,0.063,0.193,2.136,4.211,-14.526
1.043,0.050,0.196,1.648,0.366,-14.221
1.043,0.046,0.195,1.038,-4.089,-12.878

1.795,-1.150,0.154,24.719,5.615,-5.432
1.883,-1.321,0.070,34.668,5.737,-1.892
1.898,-1.555,-0.004,47.180,13.000,7.324
1.855,-1.921,-0.161,62.012,25.696,23.621
1.804,-2.204,-0.322,72.510,46.082,42.175
1.786,-2.421,-0.403,78.430,71.228,60.303
1.770,-2.531,-0.472,82.031,91.553,79.712
1.732,-2.559,-0.504,82.031,99.548,102.051
1.663,-2.585,-0.516,81.299,92.957,123.901
1.470,-2.579,-0.530,82.397,75.989,138.062
1.170,-2.382,-0.476,81.604,57.434,144.348
0.866,-2.037,-0.329,77.332,41.199,150.513
0.568,-1.683,-0.229,70.801,25.574,156.311
0.291,-1.407,-0.150,61.096,16.846,149.658
0.065,-0.942,-0.070,43.152,19.836,131.226
-0.221,-0.369,0.078,15.564,27.039,108.704
-0.493,0.184,0.199,-11.536,36.438,80.505
-0.573,0.654,0.275,-37.354,48.340,44.373
-0.648,1.036,0.297,-61.584,60.913,-10.071
-0.573,1.300,0.332,-84.839,72.693,-77.026
-0.234,1.424,0.291,-110.840,78.430,-141.663
0.205,1.542,0.200,-140.076,74.646,-197.388
0.640,1.715,0.105,-169.678,61.707,-239.136
0.970,1.820,-0.107,-192.871,41.687,-262.085
1.175,1.957,-0.343,-210.266,22.278,-268.982
1.303,2.129,-0.542,-220.825,10.193,-263.550
1.387,2.288,-0.671,-219.604,8.301,-250.427
1.469,2.408,-0.716,-205.322,17.944,-231.201
1.555,2.505,-0.660,-180.054,32.532,-205.627
1.616,2.535,-0.558,-145.996,44.373,-175.354
1.649,2.482,-0.468,-109.192,47.607,-145.325
1.682,2.349,-0.413,-74.463,40.649,-117.981
1.701,2.181,-0.350,-46.814,26.062,-94.543
1.675,2.004,-0.282,-27.405,6.348,-74.219
1.569,1.822,-0.259,-16.052,-16.418,-53.955
1.464,1.632,-0.237,-11.475,-37.415,-34.363
1.295,1.446,-0.280,-10.986,-53.650,-18.921
1.236,1.315,-0.252,-14.771,-60.608,-5.798
1.118,1.235,-0.268,-17.761,-61.401,7.751
1.011,1.075,-0.335,-16.052,-58.655,25.391
0.995,1.117,-0.404,-13.245,-49.805,41.321
1.065,0.705,-0.365,-5.371,-34.912,63.843
1.033,0.936,-0.373,3.723,-23.499,77.576
1.075,0.951,-0.327,11.963,-8.118,98.022
1.288,0.771,-0.311,27.405,-0.732,123.535
1.194,0.723,-0.375,38.696,-0.183,135.620
1.255,0.605,-0.361,44.250,0.122,141.174
1.275,0.611,-0.324,48.218,-0.854,138.611
1.224,0.518,-0.329,56.641,-7.019,135.376
1.196,0.493,-0.294,60.547,-15.076,128.601
1.221,0.450,-0.252,62.134,-23.560,121.582
1.261,0.386,-0.223,63.965,-32.837,117.920
1.281,0.324,-0.244,63.599,-42.847,115.601
1.266,0.373,-0.198,60.913,-50.903,112.488
1.153,0.391,-0.181,62.256,-57.373,115.601
1.114,0.299,-0.189,65.979,-57.983,126.404
1.014,0.257,-0.169,66.650,-51.208,133.850
0.885,0.225,-0.136,66.528,-38.818,132.935
0.791,0.191,-0.112,68.726,-23.071,121.155
0.706,0.131,-0.097,71.411,-4.639,102.722
0.801,0.036,-0.057,71.960,15.442,83.435
0.922,-0.022,-0.000,69.092,30.212,61.890
1.037,-0.202,0.020,62.683,35.461,42.725
1.161,-0.271,0.031,48.584,34.302,29.724
1.150,-0.275,0.018,28.015,26.917,23.865
1.195,-0.253,0.060,10.742,16.174,24.475
1.216,-0.210,0.066,0.122,0.183,24.475
1.085,-0.150,0.045,-4.272,-19.470,20.447
0.899,-0.172,-0.008,-2.380,-35.461,12.695
0.786,-0.169,-0.038,3.296,-38.086,0.366
0.731,-0.171,-0.006,10.803,-28.870,-10.986
0.751,-0.340,-0.019,21.484,-16.479,-21.545
0.892,-0.454,0.017,23.743,-1.587,-33.752
1.046,-0.486,0.052,16.113,8.545,-37.170
1.213,-0.558,0.098,4.517,6.714,-31.738
1.318,-0.527,0.122,-10.193,-8.240,-23.499
1.329,-0.498,0.150,-23.499,-33.997,-9.094
1.238,-0.439,0.118,-33.447,-66.956,-0.305
1.058,-0.387,0.023,-37.354,-93.506,0.610
0.859,-0.310,-0.065,-33.142,-104.492,-7.751
0.698,-0.279,-0.111,-21.606,-96.558,-22.705
0.645,-0.296,-0.108,-6.714,-72.510,-38.757
0.673,-0.336,-0.078,5.554,-38.330,-48.889
0.740,-0.402,-0.061,12.695,-2.563,-49.438
0.863,-0.438,-0.023,13.489,29.968,-46.509
1.068,-0.461,0.021,10.864,54.016,-41.931
1.250,-0.432,0.061,5.920,60.547,-36.804
1.376,-0.379,0.103,2.319,47.241,-31.799
1.420,-0.332,0.103,1.160,19.104,-27.039
1.344,-0.295,0.058,2.808,-14.648,-23.315
1.229,-0.256,0.006,5.554,-44.128,-19.897
1.088,-0.226,-0.045,10.498,-64.575,-17.578
0.939,-0.217,-0.088,17.090,-71.899,-18.127
0.838,-0.196,-0.105,22.461,-65.369,-20.386
0.783,-0.177,-0.098,27.466,-48.645,-22.339
0.771,-0.179,-0.062,31.372,-26.367,-24.353
0.790,-0.198,-0.020,32.471,-2.991,-25.940
0.833,-0.211,0.010,30.151,18.494,-25.818
0.885,-0.207,0.047,24.780,35.400,-25.269
0.947,-0.198,0.087,17.700,46.570,-24.780
1.055,-0.192,0.129,10.193,50.415,-23.376
1.156,-0.152,0.167,2.197,44.678,-20.081
1.193,-0.103,0.175,-4.456,28.809,-15.686
1.179,-0.060,0.160,-7.690,8.118,-12.085
1.137,-0.039,0.121,-8.789,-11.353,-10.193
1.068,-0.029,0.079,-7.507,-25.696,-9.277
1.023,-0.010,0.054,-5.554,-33.264,-8.118
0.986,0.014,0.040,-3.906,-33.936,-6.836
0.950,0.041,0.044,-1.465,-29.602,-6.897
0.932,0.047,0.058,1.648,-22.156,-7.507
0.920,0.037,0.066,4.089,-13.428,-8.667
0.910,0.026,0.065,5.310,-4.333,-9.216
0.937,0.035,0.083,4.944,5.432,-7.935
0.965,0.047,0.108,3.662,13.794,-6.226
0.976,0.056,0.125,2.808,19.043,-5.798
0.982,0.059,0.134,2.319,21.606,-7.080
0.979,0.060,0.141,1.648,21.851,-9.216
0.989,0.050,0.147,0.793,20.447,-12.024
1.019,0.029,0.156,-0.549,17.700,-14.771

1.575,-1.569,0.065,16.968,15.137,0.000
1.694,-1.947,0.003,25.757,33.447,-4.700
1.787,-2.253,-0.092,35.400,57.922,-11.658
1.800,-2.336,-0.159,41.077,85.266,-14.893
1.788,-2.349,-0.201,40.955,105.835,-2.686
1.706,-2.425,-0.305,37.476,108.582,26.733
1.461,-2.489,-0.367,32.898,99.426,61.646
1.172,-2.521,-0.354,29.114,84.167,94.971
0.950,-2.499,-0.263,28.381,64.758,121.704
0.749,-2.281,-0.165,30.640,44.556,134.888
0.634,-2.040,-0.082,35.339,26.489,135.925
0.606,-1.860,-0.015,40.222,10.681,125.854
0.550,-1.571,0.046,40.161,1.587,102.905
0.438,-1.128,0.137,33.264,1.099,78.125
0.375,-0.615,0.230,21.606,5.615,60.364
0.336,-0.080,0.333,7.874,10.132,49.255
0.299,0.365,0.412,-4.700,9.888,37.842
0.157,0.654,0.403,-14.832,3.723,18.738
-0.022,0.833,0.342,-27.893,-3.052,-10.315
-0.061,1.001,0.287,-47.180,-4.944,-52.002
0.052,1.150,0.181,-70.251,-2.319,-109.009
0.346,1.265,0.025,-95.093,4.028,-175.537
0.817,1.384,-0.092,-124.329,11.780,-236.023
1.330,1.541,-0.224,-157.410,11.719,-274.536
1.691,1.671,-0.393,-187.988,0.366,-287.598
1.906,1.756,-0.583,-210.144,-16.418,-279.907
1.961,1.851,-0.799,-220.703,-31.433,-259.827
1.887,2.001,-0.945,-218.567,-34.790,-233.093
1.754,2.149,-0.991,-204.224,-22.156,-200.806
1.619,2.245,-0.987,-179.260,0.610,-165.955
1.513,2.265,-0.975,-148.804,26.184,-134.094
1.442,2.238,-0.936,-118.103,48.645,-107.910
1.329,2.195,-0.895,-90.637,62.866,-85.144
1.611,2.102,-0.714,-67.505,69.458,-63.965
1.324,2.050,-0.582,-44.189,57.922,-48.889
1.484,1.802,-0.564,-24.048,32.104,-28.931
1.307,1.725,-0.463,-12.573,4.517,-14.038
1.251,1.507,-0.519,-3.357,-24.597,8.667
1.064,1.408,-0.511,1.038,-44.128,27.527
0.969,1.270,-0.531,4.089,-51.880,48.950
0.796,1.165,-0.573,7.385,-47.302,67.993
0.710,1.067,-0.565,8.972,-29.846,86.304
0.695,0.991,-0.553,13.550,-5.798,99.670
0.766,0.930,-0.523,21.240,18.005,108.948
0.915,0.816,-0.470,31.616,35.889,117.065
1.031,0.766,-0.445,40.588,42.419,119.629
1.175,0.704,-0.410,51.392,39.063,123.535
1.295,0.670,-0.391,61.951,28.870,129.700
1.455,0.612,-0.365,73.730,14.465,139.099
1.555,0.566,-0.320,86.609,-3.845,147.827
1.564,0.529,-0.289,99.365,-26.062,155.701
1.507,0.516,-0.242,111.267,-49.072,164.001
1.418,0.497,-0.192,123.596,-68.542,171.814
1.303,0.460,-0.159,135.742,-82.947,176.208
1.143,0.439,-0.131,145.813,-90.576,178.101
0.984,0.417,-0.074,152.832,-91.125,179.321
0.880,0.381,-0.006,156.921,-87.036,179.138
0.825,0.282,0.036,158.081,-80.811,173.889
0.800,0.179,0.083,154.541,-72.876,158.386
0.804,0.072,0.128,145.508,-64.819,134.705
0.837,-0.030,0.157,132.141,-58.716,107.117
0.823,-0.102,0.159,115.173,-55.054,76.538
0.795,-0.145,0.156,96.497,-49.622,46.509
0.779,-0.182,0.162,77.576,-39.429,23.743
0.730,-0.223,0.142,59.204,-23.804,10.742
0.680,-0.255,0.118,42.175,-1.465,4.211
0.710,-0.302,0.109,28.381,27.832,-0.793
0.841,-0.342,0.141,17.883,58.838,-5.554
0.974,-0.359,0.186,10.437,79.590,-11.292
1.087,-0.369,0.221,5.981,84.167,-15.686
1.150,-0.364,0.246,3.418,71.838,-19.409
1.117,-0.331,0.227,4.333,47.058,-25.696
1.085,-0.395,0.203,8.484,21.179,-34.302
0.973,-0.422,0.144,11.475,0.488,-45.898
1.012,-0.538,0.125,13.916,-8.057,-54.749
1.128,-0.603,0.161,10.193,-10.071,-60.608
1.201,-0.663,0.185,-0.671,-14.099,-56.396
1.254,-0.692,0.167,-16.357,-21.545,-46.387
1.253,-0.685,0.139,-33.813,-29.907,-37.476
1.200,-0.658,0.110,-49.561,-34.180,-31.677
1.140,-0.601,0.057,-60.608,-33.569,-28.564
1.048,-0.493,0.013,-65.674,-28.259,-29.297
0.966,-0.388,-0.014,-62.256,-17.639,-33.386
0.891,-0.315,-0.037,-51.147,-3.418,-40.955
0.902,-0.321,-0.041,-35.645,15.503,-50.049
1.047,-0.361,0.012,-21.851,35.461,-56.580
1.272,-0.394,0.095,-13.367,43.640,-56.396
1.391,-0.420,0.143,-9.583,31.738,-50.720
1.415,-0.430,0.142,-9.277,6.531,-42.419
1.367,-0.417,0.113,-10.864,-21.790,-35.278
1.258,-0.399,0.074,-12.634,-44.434,-30.334
1.153,-0.377,0.036,-14.526,-56.152,-27.283
1.060,-0.350,0.003,-15.991,-55.664,-25.085
1.003,-0.312,-0.009,-17.456,-45.166,-22.766
0.986,-0.249,0.004,-18.127,-28.564,-19.897
1.001,-0.209,0.033,-16.174,-11.047,-17.334
1.015,-0.187,0.061,-12.024,3.052,-16.052
1.032,-0.182,0.087,-7.141,13.550,-15.991
1.058,-0.188,0.105,-2.991,19.775,-15.198
1.088,-0.180,0.125,-0.854,21.851,-13.062
1.101,-0.155,0.147,-0.488,19.165,-10.254
1.090,-0.141,0.148,-0.122,12.390,-7.874
1.066,-0.133,0.140,0.000,5.066,-5.066
1.025,-0.109,0.126,-1.099,-0.122,-1.099
0.976,-0.086,0.108,-3.052,-2.075,3.845
0.935,-0.071,0.090,-5.127,-0.122,6.226
0.912,-0.046,0.085,-7.507,4.395,5.066
0.920,-0.045,0.081,-8.972,9.888,4.272
0.910,-0.001,0.081,-11.230,15.198,2.075
0.919,0.020,0.085,-12.634,20.386,0.671
0.920,0.029,0.078,-12.939,25.024,0.061
0.940,0.042,0.085,-13.123,30.029,0.000
0.961,0.044,0.083,-13.062,33.264,-0.488
0.989,0.042,0.087,-13.245,33.569,-1.343
1.025,0.042,0.088,-13.611,30.701,-2.380
1.048,0.054,0.084,-14.099,24.780,-2.686
1.045,0.064,0.076,-14.160,16.296,-2.869
1.035,0.063,0.065,-13.428,7.568,-2.869
1.012,0.060,0.051,-12.695,0.061,-3.235

1.517,-1.319,-0.092,60.120,28.137,53.467
1.552,-1.549,-0.201,66.711,41.809,64.087
1.515,-1.626,-0.305,70.313,59.692,70.190
1.427,-1.666,-0.341,74.646,80.872,75.806
1.403,-1.871,-0.404,87.158,101.257,83.557
1.445,-2.127,-0.447,103.088,119.629,84.717
1.499,-2.347,-0.367,115.540,132.568,81.421
1.549,-2.507,-0.249,123.901,134.338,82.214
1.507,-2.498,-0.169,122.375,125.793,90.637
1.377,-2.395,-0.129,109.619,109.802,102.478
1.215,-2.212,-0.152,88.379,91.736,110.962
0.997,-1.826,-0.176,57.068,76.782,109.497
0.718,-1.353,-0.198,27.344,65.430,97.046
0.449,-0.875,-0.152,6.409,58.594,76.233
0.352,-0.478,-0.141,-7.751,54.016,52.734
0.299,-0.033,-0.109,-22.949,48.889,24.963
0.166,0.399,-0.029,-43.213,38.391,-5.066
-0.003,0.784,0.009,-67.383,23.132,-39.124
-0.062,1.069,-0.000,-94.666,12.695,-80.688
0.101,1.329,-0.061,-123.535,12.207,-126.709
0.306,1.591,-0.050,-154.114,18.799,-172.058
0.664,1.799,-0.066,-183.228,26.001,-207.581
1.139,1.969,-0.123,-207.703,30.334,-230.103
1.584,2.164,-0.133,-225.159,28.198,-236.633
1.844,2.325,-0.164,-230.469,13.916,-225.769
1.926,2.455,-0.225,-223.572,-9.399,-204.163
1.860,2.510,-0.315,-205.383,-32.776,-179.687
1.735,2.522,-0.390,-181.702,-48.157,-156.494
1.598,2.510,-0.435,-156.555,-54.199,-134.094
1.464,2.466,-0.467,-131.775,-53.528,-112.488
1.324,2.379,-0.526,-108.643,-49.316,-91.064
1.298,2.289,-0.535,-88.379,-39.856,-70.679
1.168,2.155,-0.465,-69.153,-30.212,-52.063
1.414,1.892,-0.479,-48.401,-36.133,-36.743
1.151,1.839,-0.443,-34.363,-49.011,-18.188
1.097,1.637,-0.495,-19.409,-66.040,7.324
0.963,1.536,-0.518,-5.127,-76.355,28.076
0.840,1.367,-0.514,10.803,-78.369,50.293
0.807,1.217,-0.503,25.757,-72.937,69.031
0.747,1.089,-0.483,37.109,-63.477,81.421
0.736,1.002,-0.454,46.143,-51.514,94.299
0.800,0.917,-0.396,54.504,-37.842,108.398
0.813,0.846,-0.376,62.256,-26.123,121.094
0.638,0.775,-0.470,66.833,-14.771,135.010
0.911,0.505,-0.400,65.674,11.414,148.926
1.094,0.835,-0.152,64.453,37.415,141.968
1.280,0.557,-0.314,77.698,24.597,143.677
1.276,0.523,-0.248,73.120,9.644,148.437
1.237,0.534,-0.254,64.819,-14.954,149.902
1.129,0.494,-0.293,63.110,-36.865,149.292
1.010,0.450,-0.363,61.279,-49.866,142.334
1.005,0.663,-0.178,61.096,-52.795,132.812
0.998,0.502,-0.203,73.364,-62.866,136.108
0.987,0.527,-0.201,82.275,-71.350,134.216
0.892,0.539,-0.142,85.815,-72.510,130.493
0.752,0.479,-0.133,93.689,-69.885,127.441
0.627,0.362,-0.126,100.159,-57.556,122.742
0.553,0.297,-0.081,101.746,-36.682,111.511
0.566,0.212,-0.014,100.525,-12.756,95.825
0.669,0.078,0.027,95.703,8.118,77.454
0.834,-0.033,0.084,84.290,22.888,58.777
1.007,-0.087,0.128,67.078,25.757,43.762
1.107,-0.127,0.148,48.096,14.526,30.579
1.130,-0.172,0.139,31.067,-4.150,18.799
1.073,-0.176,0.091,14.221,-21.851,11.047
0.952,-0.138,0.021,1.648,-33.447,4.639
0.821,-0.104,-0.044,-2.869,-32.471,-3.052
0.755,-0.093,-0.082,-0.122,-17.944,-12.939
0.841,-0.151,-0.057,7.507,3.296,-23.804
0.930,-0.176,-0.017,15.747,21.606,-33.020
1.019,-0.259,0.024,21.667,30.701,-38.574
1.058,-0.250,0.057,23.743,28.381,-44.922
1.201,-0.385,0.113,26.245,20.203,-42.908
1.293,-0.428,0.181,20.325,5.859,-35.950
1.293,-0.466,0.192,7.874,-16.846,-23.254
1.199,-0.452,0.171,-6.775,-42.603,-15.625
1.024,-0.406,0.117,-19.836,-61.584,-15.015
0.853,-0.383,0.033,-28.503,-67.505,-22.888
0.725,-0.321,-0.001,-31.006,-56.152,-39.124
0.682,-0.293,-0.006,-28.381,-30.212,-56.396
0.736,-0.307,0.013,-22.034,3.052,-68.481
0.901,-0.341,0.067,-16.235,33.875,-75.378
1.176,-0.362,0.172,-12.634,53.772,-75.500
1.459,-0.381,0.273,-12.756,51.758,-65.918
1.611,-0.365,0.332,-16.663,23.926,-47.363
1.573,-0.341,0.302,-21.790,-21.301,-28.870
1.442,-0.339,0.216,-26.123,-66.162,-17.761
1.232,-0.309,0.105,-29.663,-97.229,-14.709
0.998,-0.261,0.027,-31.250,-106.934,-18.860
0.820,-0.214,-0.020,-30.518,-93.872,-26.062
0.744,-0.187,-0.041,-26.978,-62.988,-34.119
0.745,-0.169,-0.026,-21.667,-22.705,-39.734
0.804,-0.133,0.027,-15.381,16.968,-41.626
0.915,-0.135,0.067,-9.399,50.598,-40.466
1.080,-0.174,0.125,-5.188,72.449,-37.415
1.243,-0.164,0.188,-2.991,76.599,-34.607
1.347,-0.162,0.225,-2.502,62.805,-30.334
1.333,-0.141,0.206,-2.869,36.865,-27.771
1.268,-0.063,0.196,-3.540,9.583,-26.550
1.204,-0.043,0.151,-0.244,-14.709,-22.095
1.091,-0.032,0.106,4.578,-32.471,-18.738
0.996,-0.011,0.074,9.216,-39.612,-17.761
0.926,-0.017,0.059,14.038,-36.987,-17.090
0.888,-0.035,0.052,17.456,-27.649,-17.517
0.883,-0.056,0.064,18.250,-14.038,-19.775
0.891,-0.073,0.080,16.113,0.183,-21.851
0.918,-0.075,0.096,11.841,13.184,-22.217
0.949,-0.067,0.112,6.470,22.766,-21.423
0.972,-0.051,0.125,1.343,28.564,-20.996
0.993,-0.039,0.132,-2.808,31.494,-20.569
1.040,-0.018,0.143,-5.676,31.921,-18.372
1.074,0.008,0.151,-7.629,28.320,-14.587
1.068,0.024,0.145,-8.789,21.729,-11.353
1.051,0.034,0.131,-8.728,14.526,-10.071
1.022,0.042,0.109,-8.179,8.850,-10.132
0.997,0.055,0.093,-7.263,5.737,-10.254
1.000,0.068,0.091,-6.042,5.493,-9.216
0.998,0.069,0.094,-4.700,6.775,-7.996
1.002,0.063,0.098,-3.723,8.667,-8.179

1.821,-1.343,0.170,26.917,-9.460,15.137
2.033,-1.605,0.166,37.842,-10.437,19.409
2.190,-1.841,0.141,49.377,-11.536,29.175
2.235,-2.121,0.035,63.599,-12.817,46.143
2.237,-2.347,-0.150,77.026,-9.277,67.871
2.139,-2.566,-0.296,86.975,3.235,91.187
1.936,-2.789,-0.406,93.201,23.987,121.826
1.673,-2.895,-0.458,92.651,45.349,157.715
1.438,-2.912,-0.489,86.731,64.514,185.974
1.250,-2.838,-0.438,77.515,81.970,199.463
1.065,-2.586,-0.345,61.768,90.576,202.087
0.872,-2.271,-0.264,41.748,86.548,201.172
0.655,-1.895,-0.236,19.775,73.242,192.322
0.468,-1.451,-0.166,-2.319,61.523,171.082
0.364,-0.996,-0.080,-26.733,50.232,143.738
0.133,-0.480,-0.049,-53.711,33.813,109.924
-0.125,0.018,0.047,-81.909,16.968,61.401
-0.232,0.498,0.109,-107.178,1.587,5.981
-0.365,0.995,0.052,-132.690,-14.526,-52.917
-0.442,1.523,-0.100,-156.006,-25.635,-114.929
-0.341,2.050,-0.282,-177.795,-25.085,-169.739
-0.071,2.507,-0.445,-198.303,-16.235,-211.975
0.365,2.838,-0.564,-215.881,-3.296,-237.244
0.876,2.999,-0.635,-230.713,5.188,-246.948
1.320,3.080,-0.721,-242.004,0.977,-244.812
1.563,3.199,-0.813,-246.826,-15.381,-233.093
1.604,3.311,-0.892,-236.938,-34.607,-213.989
1.528,3.341,-0.901,-207.458,-46.265,-190.186
1.467,3.253,-0.798,-163.940,-48.706,-161.011
1.391,3.105,-0.661,-118.286,-48.462,-124.817
1.287,2.827,-0.578,-79.346,-49.927,-83.557
1.135,2.569,-0.466,-50.964,-50.903,-44.373
1.208,2.250,-0.439,-30.151,-52.856,-10.193
1.047,1.765,-0.281,-17.334,-54.749,13.123
0.606,1.699,-0.394,-18.005,-58.167,17.822
0.579,1.609,-0.355,-17.395,-43.640,41.443
0.616,1.452,-0.279,-8.484,-23.682,68.237
0.560,1.304,-0.348,7.324,-12.451,92.651
0.686,1.206,-0.297,21.240,-6.592,116.455
0.616,1.032,-0.309,38.269,-5.005,135.071
0.558,0.984,-0.282,51.575,0.488,141.235
0.592,0.865,-0.262,67.261,5.859,143.250
0.652,0.790,-0.211,80.322,10.559,141.296
0.781,0.724,-0.138,88.745,12.695,138.123
0.926,0.673,-0.076,94.055,8.667,134.705
1.051,0.646,-0.015,94.727,-1.709,130.615
1.027,0.543,-0.045,94.116,-17.578,127.930
0.967,0.553,-0.012,87.524,-30.762,122.009
0.869,0.630,-0.012,80.933,-37.659,117.737
0.824,0.571,-0.024,79.956,-36.499,119.202
0.860,0.502,-0.075,78.979,-26.855,120.056
0.774,0.535,-0.067,74.219,-11.597,111.877
0.764,0.616,-0.024,73.425,4.272,104.431
0.916,0.450,-0.073,77.087,18.982,101.990
1.021,0.456,-0.004,78.003,30.762,88.745
1.156,0.425,0.033,80.078,32.898,71.411
1.152,0.432,0.087,84.229,23.682,54.871
1.140,0.382,0.110,89.172,6.897,45.593
1.087,0.295,0.113,93.384,-12.878,36.560
0.959,0.218,0.082,93.018,-28.748,28.198
0.833,0.145,0.055,89.233,-35.889,19.287
0.785,0.071,0.055,81.238,-30.701,10.315
0.764,0.015,0.064,67.200,-16.113,8.545
0.762,-0.022,0.050,50.354,-1.465,9.766
0.781,-0.066,0.040,35.950,13.733,6.226
0.837,-0.097,0.032,22.461,29.114,-1.526
0.876,-0.083,0.032,9.399,40.100,-11.047
0.853,-0.032,0.016,2.319,45.959,-23.376
0.835,-0.050,-0.015,1.770,50.171,-34.912
0.971,-0.076,0.007,4.822,54.688,-45.654
1.087,-0.057,0.036,6.836,51.453,-50.781
1.215,-0.192,0.077,7.568,38.635,-45.776
1.263,-0.164,0.122,3.113,14.771,-43.884
1.260,-0.200,0.133,-4.395,-15.686,-37.598
1.259,-0.225,0.132,-12.146,-48.340,-31.494
1.101,-0.138,0.097,-19.958,-80.750,-30.029
0.908,-0.155,0.039,-22.583,-102.234,-26.123
0.748,-0.168,-0.021,-21.973,-107.971,-28.809
0.615,-0.146,-0.050,-19.165,-95.459,-38.208
0.625,-0.146,-0.018,-12.756,-68.176,-49.072
0.759,-0.156,0.064,-6.958,-39.185,-57.007
0.909,-0.192,0.153,-2.747,-19.409,-60.120
1.052,-0.217,0.224,-1.099,-12.207,-60.181
1.166,-0.232,0.274,-1.770,-15.991,-55.786
1.210,-0.248,0.306,-4.578,-28.137,-44.983
1.165,-0.261,0.271,-9.155,-44.861,-33.508
1.088,-0.275,0.212,-13.977,-54.749,-25.940
1.019,-0.259,0.175,-19.653,-51.697,-21.973
0.936,-0.219,0.133,-26.306,-36.499,-20.447
0.901,-0.180,0.104,-29.663,-11.780,-22.400
0.952,-0.120,0.119,-29.236,17.090,-26.428
1.022,-0.058,0.155,-25.024,41.931,-31.494
1.132,-0.021,0.184,-17.395,56.580,-35.828
1.234,0.002,0.211,-8.301,58.716,-38.330
1.302,0.024,0.246,0.488,48.584,-38.147
1.317,0.037,0.261,8.728,28.198,-34.607
1.274,0.057,0.248,16.418,3.052,-29.236
1.177,0.065,0.220,22.766,-20.142,-23.926
1.067,0.046,0.191,28.931,-36.926,-19.592
0.960,0.032,0.164,32.837,-44.739,-16.968
0.860,0.033,0.155,34.180,-43.091,-15.991
0.785,0.031,0.154,33.997,-34.302,-16.785
0.740,0.017,0.159,31.860,-20.569,-19.287
0.718,-0.002,0.168,27.893,-3.845,-23.254
0.728,-0.020,0.177,21.790,15.259,-27.832
0.793,-0.031,0.195,14.099,34.485,-31.433
0.918,-0.016,0.229,5.615,49.438,-33.386
1.031,-0.006,0.253,-1.770,54.871,-33.936
1.135,0.023,0.273,-7.141,49.683,-32.471
1.186,0.060,0.283,-10.071,34.546,-30.029
1.192,0.089,0.265,-9.583,14.343,-27.161
1.168,0.107,0.234,-6.348,-4.944,-23.987
1.107,0.108,0.206,-2.380,-20.142,-21.179
1.029,0.097,0.173,2.319,-28.687,-20.142
0.976,0.095,0.150,6.470,-28.442,-20.630
0.936,0.097,0.140,10.437,-21.118,-21.973
0.914,0.092,0.138,14.404,-9.155,-24.170
0.912,0.090,0.150,17.883,4.578,-26.733
0.912,0.079,0.157,20.569,19.287,-27.893

1.576,-1.177,0.188,34.790,27.283,23.376
1.665,-1.289,0.184,40.466,23.804,33.264
1.737,-1.469,0.152,49.438,17.578,44.922
1.793,-1.651,0.073,62.866,10.864,54.443
1.864,-1.716,0.008,74.341,5.066,62.744
1.910,-1.819,-0.040,81.848,-4.089,73.730
1.897,-1.994,-0.149,88.379,-19.165,86.487
1.894,-2.171,-0.249,87.891,-34.241,98.755
1.981,-2.309,-0.310,77.271,-47.119,111.877
1.964,-2.339,-0.396,59.387,-60.242,126.221
1.761,-2.230,-0.437,35.034,-69.458,142.761
1.553,-2.033,-0.467,6.714,-63.599,161.804
1.261,-1.787,-0.544,-17.944,-40.771,175.415
0.897,-1.340,-0.588,-34.973,2.014,176.880
0.766,-0.866,-0.487,-39.612,61.157,170.593
0.873,-0.464,-0.356,-32.043,115.295,162.415
0.825,-0.080,-0.184,-21.545,142.456,141.541
0.603,0.319,0.077,-16.113,140.320,105.896
0.353,0.657,0.325,-15.686,111.816,59.448
0.180,0.979,0.463,-22.827,64.331,-1.831
-0.144,1.304,0.550,-42.236,9.399,-71.289
-0.353,1.567,0.495,-70.862,-39.612,-138.367
-0.378,1.807,0.356,-106.445,-72.083,-193.909
-0.330,2.049,0.156,-141.968,-82.947,-236.023
-0.182,2.228,-0.094,-169.556,-72.815,-257.690
0.034,2.338,-0.340,-185.852,-48.828,-260.376
0.238,2.431,-0.527,-193.420,-20.203,-249.634
0.423,2.510,-0.623,-192.078,7.935,-229.919
0.561,2.599,-0.628,-181.458,32.593,-205.261
0.689,2.646,-0.547,-160.522,50.171,-178.223
0.842,2.587,-0.435,-131.287,58.105,-153.015
0.914,2.480,-0.300,-100.464,53.040,-133.118
0.949,2.321,-0.190,-72.571,36.987,-112.915
0.910,2.146,-0.107,-49.377,16.174,-94.849
0.783,2.002,-0.033,-31.799,-1.892,-80.078
1.017,1.567,0.045,-21.240,-10.193,-59.937
0.775,1.770,-0.005,-20.630,-17.944,-55.420
0.928,1.484,0.075,-15.930,-30.579,-35.156
0.934,1.436,0.067,-10.742,-39.917,-9.766
0.729,1.328,-0.020,-6.470,-43.213,12.085
0.648,1.237,-0.029,-3.174,-39.551,31.067
0.739,1.154,0.036,3.906,-28.198,49.744
0.767,1.063,0.037,14.282,-17.273,65.796
0.801,0.976,0.014,23.621,-9.888,82.031
0.839,0.908,0.002,31.677,-4.822,97.046
0.869,0.880,-0.040,39.307,-0.244,109.070
0.846,0.716,-0.079,49.194,8.728,116.150
1.003,0.862,0.027,57.678,20.203,112.061
1.060,0.815,0.039,72.083,20.264,116.760
1.112,0.706,-0.005,86.731,12.756,124.817
1.151,0.682,-0.005,94.543,5.493,126.465
1.155,0.699,0.040,99.976,0.122,125.122
1.154,0.657,0.055,105.713,-6.531,124.512
1.158,0.571,0.046,110.229,-11.841,120.361
1.142,0.488,0.055,111.755,-13.977,109.985
1.119,0.452,0.081,110.535,-15.076,94.177
1.079,0.421,0.116,108.704,-15.381,78.979
1.022,0.387,0.160,106.140,-16.235,68.115
1.001,0.320,0.187,102.478,-19.165,60.730
1.001,0.183,0.175,97.595,-22.339,53.589
1.026,0.049,0.164,88.135,-22.705,44.678
1.086,-0.032,0.175,72.998,-21.667,34.973
1.121,-0.089,0.160,56.335,-23.376,25.085
1.169,-0.146,0.142,39.673,-27.527,15.259
1.184,-0.170,0.080,26.367,-33.875,2.136
1.198,-0.168,0.027,19.165,-37.598,-13.916
1.226,-0.165,0.043,18.738,-35.767,-26.672
1.189,-0.175,0.066,22.522,-30.640,-30.701
1.134,-0.176,0.077,27.710,-24.292,-30.640
1.086,-0.226,0.087,31.738,-14.648,-27.039
1.060,-0.300,0.086,34.485,-1.831,-24.658
1.093,-0.357,0.107,33.020,11.780,-23.987
1.157,-0.394,0.153,27.222,21.851,-24.109
1.228,-0.411,0.173,18.433,20.508,-25.208
1.238,-0.375,0.169,9.399,7.080,-25.818
1.204,-0.350,0.144,3.601,-12.634,-26.062
1.107,-0.320,0.099,1.099,-33.875,-30.090
0.993,-0.290,0.047,1.526,-48.401,-35.400
0.876,-0.276,-0.016,4.517,-53.589,-42.358
0.795,-0.286,-0.040,7.263,-45.227,-49.194
0.776,-0.300,-0.021,6.836,-23.499,-51.392
0.811,-0.328,0.014,2.869,4.333,-48.157
0.916,-0.358,0.069,-3.784,30.579,-41.870
1.028,-0.365,0.120,-15.259,48.462,-32.715
1.089,-0.354,0.131,-27.710,53.406,-22.522
1.112,-0.338,0.122,-37.170,47.485,-14.038
1.117,-0.310,0.110,-42.908,35.889,-8.972
1.104,-0.279,0.095,-44.678,21.912,-7.751
1.060,-0.276,0.069,-43.213,10.620,-8.972
1.005,-0.253,0.050,-40.161,5.066,-9.949
0.984,-0.214,0.047,-37.354,4.456,-9.827
0.988,-0.210,0.061,-33.020,7.935,-8.606
0.991,-0.213,0.076,-29.602,13.306,-6.287
1.017,-0.212,0.090,-28.137,17.639,-4.150
1.049,-0.203,0.113,-27.710,18.921,-3.174
1.065,-0.193,0.132,-27.832,16.113,-1.953
1.082,-0.194,0.152,-29.419,10.010,0.671
1.067,-0.192,0.166,-32.715,2.075,4.333
1.021,-0.198,0.159,-37.537,-5.920,8.179
0.964,-0.199,0.135,-43.335,-10.193,11.169
0.912,-0.183,0.101,-49.133,-9.216,12.390
0.892,-0.144,0.068,-52.673,-3.601,11.902
0.896,-0.090,0.046,-52.124,5.310,9.460
0.927,-0.045,0.047,-47.729,15.320,5.798
0.978,-0.007,0.067,-41.931,23.315,1.953
1.019,0.011,0.093,-35.522,26.672,-1.831
1.056,0.016,0.109,-30.151,25.696,-3.784
1.078,0.021,0.113,-26.672,20.691,-4.395
1.071,0.027,0.107,-25.146,13.977,-4.028
1.058,0.038,0.096,-24.475,7.324,-3.296
1.048,0.054,0.076,-25.024,2.441,-2.686
1.012,0.086,0.050,-25.085,-0.183,-2.014
0.989,0.115,0.032,-23.132,0.427,-1.831
0.984,0.138,0.028,-20.020,4.211,-2.075
0.978,0.151,0.034,-16.296,9.399,-3.418
0.971,0.149,0.040,-12.268,14.954,-6.226
0.978,0.145,0.042,-8.789,20.752,-9.888
0.997,0.139,0.051,-5.737,25.452,-13.123
1.019,0.133,0.067,-3.540,28.259,-14.771

1.609,-1.116,0.074,44.617,24.658,33.508
1.619,-1.301,-0.026,49.988,24.475,38.757
1.675,-1.466,-0.144,49.866,27.039,45.166
1.722,-1.639,-0.242,47.302,31.616,50.415
1.646,-1.837,-0.320,48.523,37.659,52.307
1.509,-2.014,-0.424,53.650,48.645,50.293
1.447,-2.212,-0.554,62.500,67.444,46.814
1.376,-2.137,-0.632,70.923,94.055,46.997
1.303,-1.875,-0.529,73.425,119.324,62.317
1.342,-1.845,-0.405,81.482,127.563,88.074
1.257,-1.786,-0.357,94.116,113.403,101.624
0.980,-1.524,-0.255,93.628,89.539,99.243
0.705,-1.167,-0.131,80.078,62.744,86.182
0.446,-0.794,-0.035,62.317,36.194,65.613
0.143,-0.409,-0.002,39.490,14.526,39.795
-0.274,0.032,0.019,8.545,5.127,3.235
-0.557,0.466,0.077,-28.809,11.353,-44.861
-0.528,0.792,0.065,-68.481,27.161,-101.135
-0.217,0.979,-0.036,-112.671,45.593,-161.926
0.215,1.182,-0.159,-164.978,57.861,-218.628
0.733,1.473,-0.290,-218.628,55.603,-254.517
1.216,1.759,-0.505,-257.874,35.522,-268.250
1.450,2.032,-0.764,-274.963,5.188,-269.531
1.529,2.307,-0.947,-272.583,-19.348,-261.475
1.560,2.528,-1.021,-253.052,-29.297,-247.070
1.598,2.659,-0.967,-218.262,-24.597,-228.333
1.663,2.712,-0.814,-174.561,-13.123,-205.933
1.720,2.671,-0.652,-128.357,-5.005,-179.382
1.761,2.560,-0.475,-87.341,-4.822,-149.719
1.811,2.446,-0.286,-54.504,-15.381,-121.704
1.731,2.277,-0.241,-28.076,-39.063,-92.957
1.680,1.843,-0.272,-13.794,-65.247,-64.697
1.494,1.941,-0.111,-19.836,-87.158,-53.162
1.334,1.593,-0.220,-14.160,-108.643,-27.344
1.144,1.494,-0.232,-16.968,-116.455,-7.629
1.106,1.400,-0.217,-17.395,-113.220,15.259
0.965,1.218,-0.272,-12.390,-102.051,40.649
0.910,1.152,-0.279,-8.972,-85.144,59.998
0.816,1.014,-0.227,-4.272,-66.040,79.712
0.857,0.879,-0.279,7.202,-47.485,95.215
0.867,0.833,-0.251,14.893,-26.794,101.990
0.836,0.730,-0.207,24.048,-10.498,111.084
0.820,0.859,-0.263,34.790,-0.610,122.375
1.092,0.558,-0.177,44.617,12.695,142.151
1.070,0.524,-0.219,53.955,13.245,143.555
1.132,0.533,-0.181,57.922,5.615,139.893
1.206,0.513,-0.058,58.716,-2.441,143.005
1.250,0.436,-0.083,61.340,-20.020,149.292
1.215,0.394,-0.100,62.195,-41.443,153.870
1.232,0.385,-0.057,58.167,-56.519,157.898
1.135,0.346,-0.083,56.763,-69.885,157.837
1.028,0.394,-0.121,55.603,-77.881,152.344
0.928,0.457,-0.070,55.664,-73.425,146.790
0.812,0.464,-0.064,60.303,-63.110,141.418
0.724,0.466,-0.019,67.322,-47.363,134.460
0.699,0.419,0.023,74.341,-29.053,126.343
0.764,0.309,0.072,79.529,-11.658,115.540
0.871,0.191,0.126,78.674,1.221,101.440
1.003,0.048,0.163,71.594,6.897,86.304
1.149,-0.051,0.177,59.326,5.432,69.580
1.234,-0.105,0.172,44.312,-1.831,52.124
1.243,-0.090,0.167,30.212,-12.939,37.659
1.197,-0.066,0.143,20.508,-25.330,28.015
1.102,-0.087,0.100,15.930,-32.959,20.691
0.948,-0.092,0.045,14.160,-30.762,12.817
0.831,-0.115,0.026,14.832,-15.808,4.517
0.838,-0.179,0.045,15.320,10.437,0.793
1.010,-0.272,0.101,11.169,36.011,2.747
1.172,-0.306,0.152,3.357,48.157,7.507
1.249,-0.304,0.180,-4.150,41.809,11.719
1.260,-0.295,0.175,-8.423,18.738,11.230
1.178,-0.267,0.132,-8.911,-11.536,2.869
1.022,-0.208,0.043,-6.104,-39.490,-13.916
0.944,-0.297,0.039,-1.099,-55.176,-33.508
0.762,-0.263,-0.082,4.028,-58.350,-56.091
0.685,-0.281,-0.051,9.521,-39.856,-72.693
0.729,-0.314,-0.087,13.489,-9.460,-77.576
0.913,-0.379,-0.021,13.733,23.193,-76.660
1.207,-0.420,0.159,4.761,43.884,-68.481
1.399,-0.422,0.229,-6.531,41.077,-49.438
1.456,-0.402,0.246,-19.470,11.719,-28.442
1.422,-0.377,0.227,-30.945,-31.006,-11.841
1.302,-0.319,0.162,-38.696,-73.303,-3.357
1.149,-0.255,0.067,-40.039,-104.736,-1.648
0.982,-0.251,-0.036,-34.119,-119.507,-7.446
0.812,-0.197,-0.091,-26.123,-113.647,-22.034
0.709,-0.171,-0.086,-16.602,-88.257,-34.241
0.694,-0.182,-0.073,-5.737,-50.537,-40.405
0.739,-0.182,-0.025,3.723,-8.545,-42.053
0.827,-0.196,0.034,11.475,28.503,-39.856
0.923,-0.201,0.087,16.846,55.420,-36.987
0.990,-0.217,0.129,19.287,70.618,-33.875
1.080,-0.243,0.160,19.287,73.486,-31.006
1.193,-0.275,0.200,16.357,65.491,-28.748
1.250,-0.287,0.218,9.766,47.424,-27.710
1.257,-0.288,0.197,2.014,23.682,-26.306
1.241,-0.263,0.167,-5.310,0.366,-24.170
1.194,-0.219,0.138,-10.803,-18.982,-21.973
1.138,-0.183,0.103,-13.306,-32.654,-19.531
1.089,-0.150,0.077,-13.489,-39.246,-17.700
1.042,-0.103,0.060,-12.268,-39.307,-16.479
0.993,-0.081,0.043,-8.423,-33.508,-15.564
0.949,-0.061,0.037,-4.089,-22.522,-14.954
0.935,-0.057,0.049,0.732,-8.179,-13.855
0.947,-0.063,0.062,4.700,6.409,-12.451
0.971,-0.072,0.087,7.446,19.531,-11.536
1.011,-0.096,0.105,8.911,28.931,-11.658
1.053,-0.112,0.123,8.423,33.936,-12.695
1.094,-0.122,0.151,5.371,34.607,-13.672
1.128,-0.131,0.166,0.732,31.738,-12.512
1.144,-0.112,0.164,-5.432,25.391,-8.850
1.128,-0.098,0.156,-11.475,16.785,-5.005
1.098,-0.081,0.129,-15.808,8.728,-3.113
1.056,-0.057,0.100,-18.127,2.747,-2.869
1.015,-0.033,0.075,-18.494,-0.183,-2.686
0.985,-0.017,0.053,-16.418,0.122,-2.625
0.962,0.001,0.046,-13.428,3.479,-2.625
0.945,0.006,0.045,-9.583,8.057,-2.441
0.938,0.001,0.053,-5.676,13.672,-2.502

1.589,-1.358,0.119,18.433,64.392,-24.109
1.609,-1.729,0.081,24.658,91.614,-35.156
1.488,-2.102,-0.078,23.254,127.625,-44.617
1.315,-2.393,-0.314,11.780,175.781,-45.166
1.163,-2.442,-0.516,-8.606,229.065,-28.687
1.171,-2.297,-0.594,-28.015,272.034,6.653
1.335,-2.147,-0.540,-32.227,292.297,53.223
1.449,-2.069,-0.428,-17.639,279.907,97.778
1.411,-2.028,-0.278,6.470,237.183,132.080
1.317,-2.083,-0.171,30.457,176.392,155.212
1.182,-2.058,-0.155,46.753,111.206,165.894
0.999,-1.960,-0.118,50.049,49.011,168.518
0.852,-1.888,-0.140,42.114,-7.446,165.344
0.668,-1.564,-0.214,24.780,-55.176,152.527
0.380,-0.970,-0.223,-2.441,-86.670,135.559
0.116,-0.301,-0.192,-26.978,-102.417,119.751
-0.034,0.270,-0.169,-41.931,-106.018,105.042
-0.057,0.627,-0.178,-45.471,-102.966,85.510
-0.052,0.861,-0.212,-41.809,-93.750,53.101
-0.052,1.138,-0.208,-37.781,-78.186,3.723
0.075,1.391,-0.114,-34.241,-56.641,-57.617
0.379,1.488,-0.038,-29.541,-35.583,-120.667
0.786,1.517,-0.031,-31.860,-20.752,-180.481
1.156,1.543,-0.092,-48.340,-11.536,-231.934
1.448,1.559,-0.227,-77.515,-6.226,-265.015
1.630,1.635,-0.381,-115.540,-0.366,-278.015
1.625,1.786,-0.579,-155.212,10.376,-269.287
1.492,1.971,-0.749,-186.890,26.184,-238.770
1.271,2.161,-0.856,-202.332,45.532,-197.388
1.043,2.284,-0.914,-195.496,68.298,-158.447
1.000,2.304,-0.898,-168.701,90.027,-128.235
1.033,2.307,-0.802,-129.211,99.487,-107.361
1.026,2.052,-0.853,-83.008,91.309,-88.928
1.077,1.941,-0.693,-48.218,76.782,-81.543
1.043,1.741,-0.646,-22.278,53.284,-75.989
1.052,1.614,-0.562,4.272,25.085,-64.758
1.034,1.447,-0.513,22.278,-4.456,-51.086
0.999,1.300,-0.478,31.860,-32.532,-39.307
0.859,1.213,-0.461,34.790,-57.617,-26.428
0.954,1.179,-0.428,36.499,-77.332,-6.104
0.752,0.982,-0.567,40.405,-89.417,17.578
0.767,0.856,-0.473,35.767,-88.440,33.997
0.747,0.834,-0.511,35.583,-84.290,43.579
0.684,0.729,-0.511,36.926,-71.716,49.988
0.681,0.797,-0.526,38.147,-52.307,56.702
0.805,0.647,-0.471,42.419,-28.137,69.824
0.844,0.681,-0.490,49.500,-10.681,74.280
0.901,0.594,-0.443,56.274,5.249,81.604
0.937,0.626,-0.432,63.904,15.625,85.754
0.935,0.632,-0.401,72.693,21.912,92.834
0.938,0.538,-0.395,81.726,24.048,102.600
1.007,0.539,-0.336,89.539,22.705,106.628
1.070,0.518,-0.302,95.337,18.188,108.459
1.084,0.469,-0.275,99.670,8.423,108.093
1.071,0.418,-0.256,100.586,-3.357,104.553
1.092,0.416,-0.236,97.473,-15.137,99.426
1.083,0.382,-0.213,92.590,-26.489,96.130
1.043,0.372,-0.166,87.036,-37.231,91.919
1.015,0.356,-0.128,80.933,-47.974,88.867
1.018,0.274,-0.106,75.073,-59.082,87.646
1.013,0.180,-0.112,68.726,-70.129,83.252
0.968,0.094,-0.112,61.829,-75.989,77.026
0.932,0.008,-0.101,53.711,-75.867,71.106
0.942,-0.122,-0.094,44.861,-69.946,64.514
0.951,-0.245,-0.114,35.095,-58.777,52.734
0.899,-0.261,-0.117,22.766,-43.762,35.217
0.848,-0.285,-0.098,10.620,-27.283,16.541
0.838,-0.409,-0.158,2.869,-8.911,-2.563
0.802,-0.542,-0.284,-2.319,16.907,-28.381
0.758,-0.609,-0.381,-6.836,58.594,-59.692
0.749,-0.590,-0.429,-11.597,113.708,-86.060
0.741,-0.583,-0.472,-14.954,174.561,-100.159
0.758,-0.557,-0.510,-17.517,236.267,-105.103
0.858,-0.537,-0.526,-20.325,292.725,-102.295
1.085,-0.555,-0.505,-22.766,336.487,-93.323
1.361,-0.580,-0.454,-25.574,355.347,-81.848
1.650,-0.582,-0.359,-30.945,342.896,-66.895
1.870,-0.549,-0.250,-39.429,295.044,-49.622
1.973,-0.597,-0.145,-47.119,217.773,-32.654
1.869,-0.504,-0.128,-52.795,122.620,-22.705
1.692,-0.524,-0.205,-54.443,27.649,-14.771
1.488,-0.473,-0.343,-57.129,-52.856,-11.414
1.220,-0.362,-0.408,-58.838,-111.694,-7.812
0.980,-0.354,-0.520,-50.293,-148.315,-4.211
0.799,-0.335,-0.594,-40.894,-158.447,-4.211
0.636,-0.294,-0.606,-33.325,-144.958,-5.127
0.537,-0.280,-0.615,-24.353,-116.821,-6.287
0.562,-0.295,-0.582,-14.221,-78.308,-6.165
0.706,-0.289,-0.481,-7.019,-40.833,-4.211
0.846,-0.255,-0.359,-0.183,-20.264,-3.174
0.963,-0.239,-0.300,7.019,-18.738,-1.038
1.024,-0.278,-0.258,13.123,-30.579,3.174
1.027,-0.296,-0.248,17.334,-52.307,3.479
0.987,-0.359,-0.269,21.912,-75.623,0.549
0.938,-0.403,-0.312,23.987,-92.712,-5.310
0.881,-0.400,-0.332,23.193,-100.586,-12.268
0.836,-0.391,-0.325,21.729,-99.670,-17.517
0.812,-0.385,-0.317,19.714,-91.492,-19.348
0.834,-0.381,-0.297,17.212,-78.308,-17.517
0.910,-0.363,-0.252,13.550,-65.552,-12.695
0.994,-0.342,-0.214,10.071,-59.753,-7.202
1.045,-0.327,-0.191,8.057,-61.890,-2.869
1.069,-0.313,-0.194,8.423,-70.435,0.610
1.049,-0.316,-0.221,10.193,-80.566,1.526
1.010,-0.319,-0.259,12.634,-87.402,-0.610
0.960,-0.305,-0.283,13.855,-87.463,-4.822
0.914,-0.305,-0.296,15.137,-79.346,-10.437
0.904,-0.317,-0.293,16.052,-64.880,-15.137
0.923,-0.326,-0.280,14.954,-46.875,-17.822
0.957,-0.316,-0.257,11.597,-28.687,-17.883
1.000,-0.288,-0.233,7.019,-11.658,-13.916
1.049,-0.244,-0.202,2.380,2.075,-7.385
1.089,-0.213,-0.177,-0.488,11.230,-1.099
1.099,-0.189,-0.154,-2.197,14.404,3.418
1.095,-0.142,-0.134,-2.869,13.428,5.066
1.081,-0.117,-0.127,-2.136,9.583,5.127
1.058,-0.105,-0.137,-0.122,4.883,5.249
1.024,-0.099,-0.147,1.465,0.427,6.592
0.984,-0.104,-0.162,2.136,-2.258,8.057

1.548,-1.807,-0.143,29.297,-8.606,13.428
1.613,-2.265,-0.194,35.706,4.211,5.127
1.612,-2.605,-0.250,40.771,22.705,-8.057
1.498,-2.737,-0.323,39.856,42.114,-20.935
1.291,-2.676,-0.449,33.081,58.472,-19.653
1.090,-2.550,-0.581,24.963,70.190,3.540
0.886,-2.392,-0.631,21.423,77.576,41.443
0.633,-2.344,-0.632,30.762,83.618,80.994
0.419,-2.214,-0.627,54.688,94.177,110.718
0.321,-1.959,-0.507,83.618,111.877,128.662
0.313,-1.753,-0.400,113.831,128.784,139.465
0.385,-1.582,-0.288,136.414,140.686,142.944
0.539,-1.303,-0.151,143.677,143.372,138.794
0.601,-0.893,0.030,137.695,134.094,128.784
0.604,-0.466,0.208,124.023,114.319,120.300
0.597,-0.050,0.338,105.042,87.891,112.732
0.577,0.306,0.421,80.444,57.678,100.586
0.441,0.675,0.425,50.659,27.161,75.867
0.197,1.041,0.401,17.212,2.930,37.109
-0.023,1.355,0.344,-17.212,-6.348,-8.728
-0.038,1.572,0.269,-48.645,2.991,-57.556
0.161,1.729,0.214,-78.552,26.367,-106.934
0.580,1.815,0.175,-108.521,53.467,-152.527
1.032,1.854,0.078,-136.475,72.083,-189.087
1.397,1.897,-0.020,-162.903,74.158,-209.045
1.620,1.953,-0.148,-186.035,59.875,-211.121
1.640,2.025,-0.314,-200.256,36.499,-200.073
1.518,2.127,-0.417,-204.163,15.259,-176.758
1.381,2.217,-0.450,-195.312,1.526,-145.203
1.254,2.242,-0.457,-172.668,-7.019,-116.394
1.137,2.174,-0.476,-139.526,-14.465,-96.741
1.061,2.062,-0.483,-102.234,-21.667,-86.670
1.011,1.926,-0.451,-64.331,-27.771,-82.703
1.048,1.795,-0.396,-27.954,-34.302,-80.383
1.117,1.698,-0.339,5.798,-43.091,-73.303
1.180,1.552,-0.235,38.818,-54.626,-56.274
1.308,1.180,-0.186,69.458,-70.618,-35.950
1.172,1.083,-0.260,82.458,-87.524,-28.992
1.003,1.096,-0.037,83.679,-90.759,-12.329
1.161,0.873,-0.086,97.412,-99.304,22.766
1.252,0.690,-0.117,103.149,-105.042,48.767
1.183,0.499,-0.152,96.619,-106.628,63.477
1.124,0.495,-0.057,82.336,-103.516,66.956
1.229,0.674,-0.055,70.374,-98.450,72.937
1.350,0.397,-0.048,70.618,-89.966,93.750
1.271,0.483,-0.006,66.711,-85.693,100.952
1.245,0.459,-0.002,60.852,-81.970,110.046
1.187,0.545,0.061,59.814,-78.430,119.141
1.130,0.481,0.060,63.354,-77.148,134.277
1.061,0.407,0.042,67.444,-77.087,142.883
0.986,0.372,0.054,67.932,-75.012,141.785
0.965,0.338,0.092,67.566,-70.251,134.766
0.998,0.283,0.124,66.711,-65.491,123.779
1.050,0.171,0.119,65.002,-62.622,108.459
1.108,0.103,0.147,58.289,-59.387,87.585
1.185,0.090,0.217,46.387,-57.861,70.801
1.174,0.061,0.220,32.349,-63.416,65.002
0.980,0.093,0.149,16.113,-72.632,67.810
0.800,0.100,0.140,-0.793,-72.815,79.712
1.010,0.121,0.209,-13.916,-62.622,96.558
0.863,-0.111,0.090,-19.836,-50.537,102.417
0.685,-0.210,0.022,-33.203,-36.316,97.900
0.708,-0.260,0.052,-53.711,-16.602,86.914
0.805,-0.329,0.075,-68.115,2.747,70.190
0.908,-0.390,0.052,-77.209,17.029,48.218
1.120,-0.458,0.020,-84.351,25.391,26.855
1.291,-0.410,0.018,-90.088,27.466,2.991
1.389,-0.318,0.033,-90.393,23.560,-13.794
1.413,-0.293,0.032,-86.487,13.977,-16.296
1.344,-0.254,0.005,-82.458,4.150,-7.324
1.177,-0.202,-0.038,-78.918,-0.122,8.118
1.054,-0.277,-0.024,-72.815,8.118,27.832
1.067,-0.280,-0.024,-65.186,24.902,39.429
1.122,-0.312,0.011,-57.129,39.429,41.138
1.136,-0.307,0.022,-51.147,40.161,32.471
1.109,-0.221,0.028,-46.082,28.137,20.264
1.138,-0.256,-0.028,-37.598,9.216,9.460
1.151,-0.324,-0.127,-29.602,-8.118,-5.859
1.060,-0.287,-0.161,-28.076,-16.235,-25.208
0.949,-0.252,-0.171,-27.649,-14.465,-39.795
0.827,-0.248,-0.242,-24.231,-2.686,-48.584
0.815,-0.327,-0.264,-24.109,24.536,-50.964
0.954,-0.321,-0.220,-30.334,58.655,-48.767
1.204,-0.275,-0.127,-39.185,80.750,-40.222
1.360,-0.221,-0.061,-45.166,79.224,-30.090
1.390,-0.150,-0.052,-47.913,54.321,-22.522
1.377,-0.075,-0.027,-45.837,17.151,-16.479
1.322,-0.044,-0.073,-37.537,-24.536,-13.550
1.191,-0.018,-0.121,-25.696,-63.171,-16.602
1.042,0.000,-0.138,-12.390,-91.309,-22.156
0.908,-0.036,-0.172,1.587,-108.337,-30.090
0.818,-0.111,-0.191,13.550,-111.694,-39.429
0.759,-0.144,-0.186,20.081,-102.051,-45.898
0.717,-0.152,-0.150,21.179,-82.764,-45.654
0.773,-0.180,-0.097,20.020,-57.312,-38.635
0.846,-0.166,-0.037,16.724,-31.616,-28.137
0.899,-0.160,0.005,12.939,-12.146,-16.296
0.933,-0.143,0.039,10.925,-0.305,-7.446
0.986,-0.151,0.054,10.864,5.310,-4.089
1.048,-0.160,0.059,12.390,4.333,-6.104
1.086,-0.131,0.061,13.428,-4.211,-10.193
1.099,-0.099,0.075,15.015,-17.822,-12.390
1.079,-0.074,0.075,17.151,-32.776,-13.062
1.034,-0.075,0.060,19.958,-44.067,-13.123
0.977,-0.094,0.032,21.912,-49.072,-13.306
0.897,-0.103,0.006,20.874,-46.265,-14.832
0.859,-0.091,0.006,16.846,-35.034,-16.418
0.859,-0.079,0.018,11.536,-18.433,-15.930
0.869,-0.055,0.037,5.371,-2.502,-14.221
0.896,-0.040,0.043,-0.183,10.498,-12.512
0.919,-0.004,0.056,-5.493,19.226,-12.695
0.936,0.042,0.065,-9.033,22.949,-14.343
0.952,0.086,0.074,-9.521,23.071,-16.235
0.982,0.107,0.088,-7.385,20.508,-17.822
0.998,0.116,0.100,-4.395,14.771,-18.799
0.992,0.114,0.109,-1.343,7.385,-19.592
0.981,0.101,0.111,1.099,0.610,-19.348
0.970,0.087,0.121,2.502,-4.761,-17.883
0.958,0.054,0.129,2.991,-8.301,-15.747

1.799,-0.913,0.024,15.198,-38.757,23.010
1.770,-1.157,-0.088,31.067,-58.899,29.358
1.689,-1.405,-0.213,49.500,-70.740,36.255
1.543,-1.602,-0.317,67.322,-68.176,42.175
1.335,-1.811,-0.416,84.473,-49.500,49.316
1.083,-1.981,-0.462,99.121,-17.090,62.561
0.880,-2.072,-0.418,109.558,21.729,80.994
0.710,-2.160,-0.342,119.629,58.472,99.426
0.606,-2.325,-0.310,127.319,86.365,114.197
0.540,-2.482,-0.311,126.465,104.797,119.507
0.509,-2.590,-0.266,114.990,113.708,113.586
0.717,-2.684,-0.263,94.482,111.877,99.365
1.027,-2.671,-0.346,63.354,100.037,78.674
1.243,-2.359,-0.413,21.790,75.928,54.688
1.340,-1.821,-0.416,-18.005,44.067,35.522
1.215,-1.258,-0.449,-43.274,10.193,23.926
0.986,-0.782,-0.430,-51.147,-13.977,14.160
0.718,-0.364,-0.385,-47.791,-24.353,3.357
0.460,-0.033,-0.277,-43.091,-21.179,-11.475
0.348,0.237,-0.207,-43.274,-7.019,-34.363
0.335,0.504,-0.122,-54.138,15.259,-67.688
0.431,0.784,-0.022,-79.895,39.307,-98.267
0.650,1.047,-0.020,-117.920,54.138,-121.643
0.821,1.311,-0.173,-162.903,59.021,-141.724
0.958,1.589,-0.383,-207.092,60.547,-161.133
1.124,1.816,-0.592,-241.821,65.491,-173.218
1.316,2.030,-0.727,-263.855,72.510,-175.781
1.461,2.190,-0.830,-267.761,76.233,-171.997
1.529,2.309,-0.886,-255.127,74.341,-163.940
1.517,2.404,-0.891,-230.042,69.397,-152.527
1.435,2.448,-0.863,-195.801,62.927,-139.099
1.334,2.425,-0.828,-156.860,56.458,-126.282
1.269,2.339,-0.756,-121.643,51.331,-115.173
1.272,2.229,-0.645,-94.238,46.021,-103.577
1.274,2.092,-0.528,-76.965,37.048,-88.623
1.273,1.955,-0.417,-69.214,22.827,-71.594
1.308,1.775,-0.323,-68.298,4.822,-56.458
1.403,1.624,-0.323,-72.144,-17.090,-47.180
1.319,1.633,-0.269,-74.768,-39.307,-41.199
1.284,1.667,-0.194,-64.392,-58.289,-27.832
1.224,1.539,-0.165,-36.865,-73.181,-6.104
1.082,1.498,-0.105,-7.751,-81.604,13.794
0.989,1.368,-0.084,20.142,-82.642,35.889
0.989,1.218,-0.095,43.762,-75.500,58.044
0.978,0.927,-0.146,57.617,-64.270,76.599
0.983,0.808,-0.141,57.007,-51.758,81.665
1.021,0.736,-0.160,49.744,-41.260,83.740
1.112,0.629,-0.161,40.771,-33.752,90.332
1.186,0.569,-0.173,31.311,-32.837,94.849
1.172,0.518,-0.254,25.574,-37.964,97.046
1.232,0.534,-0.217,24.719,-41.199,99.243
1.240,0.570,-0.155,31.250,-45.837,103.638
1.132,0.558,-0.251,45.105,-53.101,115.417
1.217,0.353,-0.105,59.875,-49.316,134.338
1.620,0.168,-0.156,71.106,-47.974,133.728
1.332,0.391,-0.005,70.618,-43.274,127.930
1.437,0.043,-0.223,77.942,-46.021,140.869
1.373,0.151,-0.041,71.411,-39.368,129.150
1.267,0.159,0.049,69.458,-37.720,115.784
1.191,0.034,0.019,73.303,-38.574,108.704
1.117,-0.002,0.104,69.214,-30.701,102.112
1.187,-0.159,0.115,60.425,-24.231,100.403
1.109,-0.104,0.171,45.288,-20.752,94.788
1.156,-0.260,0.132,32.837,-18.066,96.375
1.257,-0.277,0.130,17.639,-19.287,91.064
1.305,-0.260,0.118,2.930,-26.123,83.191
1.297,-0.232,0.076,-5.432,-37.720,72.021
1.218,-0.180,0.025,-8.423,-47.363,59.265
1.054,-0.164,-0.066,-3.967,-50.354,44.739
0.873,-0.069,-0.090,5.798,-38.940,27.222
0.757,-0.064,-0.089,22.888,-13.916,13.428
0.710,-0.140,-0.078,43.823,17.456,0.488
0.865,-0.286,0.031,60.181,50.171,-10.925
1.052,-0.385,0.137,64.575,70.557,-13.306
1.145,-0.445,0.206,59.509,67.749,-9.094
1.184,-0.497,0.264,49.988,45.288,-5.615
1.235,-0.549,0.295,37.354,12.817,-1.404
1.256,-0.583,0.302,21.484,-24.902,7.019
1.172,-0.561,0.257,3.906,-65.857,16.418
1.039,-0.541,0.187,-11.047,-100.098,22.278
0.881,-0.511,0.090,-21.179,-119.690,19.897
0.700,-0.464,-0.010,-26.733,-122.070,8.301
0.573,-0.466,-0.074,-27.466,-105.347,-7.324
0.554,-0.402,-0.087,-24.353,-74.341,-25.146
0.575,-0.400,-0.072,-17.151,-37.476,-37.354
0.660,-0.398,-0.036,-8.667,-3.418,-43.762
0.827,-0.434,0.033,-0.305,23.071,-45.044
1.020,-0.473,0.096,5.127,36.682,-41.870
1.128,-0.487,0.127,5.432,32.715,-36.011
1.154,-0.495,0.128,3.784,15.686,-31.433
1.141,-0.485,0.100,0.793,-4.822,-30.457
1.071,-0.440,0.080,-2.441,-23.010,-33.020
0.987,-0.399,0.055,-4.211,-35.095,-36.865
0.916,-0.369,0.025,-4.578,-38.147,-41.138
0.865,-0.344,0.000,-4.333,-32.349,-44.861
0.833,-0.309,-0.006,-3.845,-19.531,-45.410
0.860,-0.269,0.013,-3.967,-3.418,-42.297
0.894,-0.242,0.048,-3.418,12.878,-37.781
0.936,-0.222,0.082,-2.441,26.428,-32.898
0.976,-0.213,0.110,-1.709,35.156,-28.992
1.025,-0.216,0.136,-1.282,38.696,-28.015
1.112,-0.218,0.168,-1.343,36.804,-28.992
1.187,-0.195,0.196,-3.235,28.687,-28.198
1.219,-0.155,0.209,-4.272,13.550,-25.208
1.212,-0.121,0.204,-3.784,-4.456,-21.240
1.178,-0.110,0.184,-1.648,-21.606,-17.761
1.123,-0.109,0.156,0.916,-34.424,-14.832
1.074,-0.104,0.130,2.869,-41.016,-11.047
1.040,-0.087,0.123,3.662,-41.443,-6.714
0.999,-0.092,0.116,4.639,-37.659,-4.700
0.952,-0.098,0.104,5.005,-30.151,-5.859
0.926,-0.096,0.105,4.639,-19.165,-8.179
0.939,-0.075,0.121,3.845,-7.080,-10.376
0.945,-0.053,0.145,3.052,3.357,-10.559
0.968,-0.055,0.155,2.625,11.169,-8.972
0.966,-0.043,0.160,2.136,16.052,-8.606
0.969,-0.018,0.155,2.686,18.555,-8.179
0.980,-0.015,0.173,3.723,19.958,-6.958
0.978,-0.001,0.171,4.639,19.714,-7.996

1.512,-1.273,0.043,53.040,-34.546,23.254
1.515,-1.499,0.050,63.660,-24.292,29.541
1.475,-1.835,0.014,76.599,-11.292,40.771
1.404,-2.130,-0.073,85.632,2.014,56.641
1.255,-2.339,-0.207,86.182,14.832,75.256
1.112,-2.497,-0.388,81.604,28.687,93.750
1.060,-2.502,-0.513,75.562,45.227,107.727
0.977,-2.282,-0.513,69.519,62.561,112.549
0.882,-2.130,-0.485,70.740,76.904,111.572
0.839,-1.966,-0.480,73.669,84.717,107.910
0.791,-1.732,-0.450,70.251,87.158,101.868
0.670,-1.422,-0.325,60.791,84.900,94.177
0.546,-1.057,-0.155,47.180,77.393,87.219
0.439,-0.731,-0.017,30.273,63.416,76.416
0.343,-0.454,0.020,10.071,46.326,57.373
0.291,-0.187,0.009,-13.245,33.691,27.954
0.342,0.139,0.004,-40.527,28.992,-5.188
0.349,0.508,0.031,-69.031,28.992,-38.025
0.284,0.823,0.058,-92.651,29.663,-66.589
0.272,1.092,0.070,-113.464,32.471,-90.942
0.340,1.293,0.037,-132.629,39.063,-112.793
0.500,1.428,-0.043,-151.428,48.035,-132.507
0.769,1.548,-0.161,-170.898,59.998,-148.071
1.038,1.710,-0.263,-191.162,71.472,-156.555
1.323,1.868,-0.329,-207.703,77.942,-155.151
1.537,2.016,-0.372,-214.539,76.843,-147.949
1.696,2.164,-0.366,-210.388,67.810,-138.550
1.785,2.271,-0.335,-193.909,52.063,-128.174
1.784,2.346,-0.299,-167.297,31.555,-115.906
1.699,2.368,-0.268,-134.827,9.216,-99.731
1.543,2.318,-0.260,-100.647,-9.766,-80.627
1.380,2.211,-0.266,-69.336,-21.973,-61.157
1.295,2.046,-0.256,-42.664,-27.039,-44.556
1.268,1.846,-0.279,-23.621,-28.076,-33.752
1.124,1.779,-0.235,-14.099,-25.146,-27.283
1.066,1.657,-0.184,-4.761,-19.348,-13.977
1.087,1.500,-0.199,5.737,-16.357,1.465
1.097,1.357,-0.186,16.052,-12.512,17.578
1.118,1.236,-0.178,26.123,-13.184,31.433
1.163,1.133,-0.161,37.048,-18.799,43.823
1.178,1.031,-0.160,49.255,-29.236,56.274
1.111,0.865,-0.191,62.134,-42.236,67.322
1.019,0.783,-0.215,71.960,-53.101,71.960
1.014,0.814,-0.186,80.139,-57.495,76.843
1.062,0.647,-0.224,92.712,-57.190,88.562
0.801,0.526,-0.336,99.365,-55.176,95.642
0.598,0.705,-0.341,97.839,-48.279,106.079
1.408,0.293,-0.179,98.938,-37.354,125.183
0.948,0.396,-0.177,96.375,-36.804,115.601
1.000,0.300,-0.208,89.233,-39.001,122.742
1.095,0.168,-0.088,84.290,-35.339,118.713
0.934,0.291,-0.076,77.820,-37.476,105.835
0.967,0.218,-0.046,76.111,-41.626,105.591
0.953,0.162,-0.015,73.975,-45.532,103.088
0.830,0.180,0.003,71.899,-50.415,98.206
0.786,0.143,0.027,70.862,-54.016,96.191
0.784,0.025,-0.018,70.496,-53.955,91.064
0.747,-0.038,-0.012,66.711,-45.776,77.759
0.805,-0.094,0.025,58.655,-33.813,66.040
0.945,-0.222,0.057,47.668,-21.973,55.725
1.063,-0.178,0.052,32.715,-13.550,42.236
1.073,-0.190,0.020,16.846,-9.949,36.865
1.076,-0.182,-0.007,4.578,-8.240,36.133
1.005,-0.110,-0.039,-3.052,-5.188,34.607
0.868,-0.068,-0.077,-2.991,1.282,31.860
0.753,-0.007,-0.090,3.418,14.038,25.208
0.751,-0.055,-0.083,15.564,33.020,18.799
0.911,-0.173,-0.008,25.818,52.124,14.954
1.012,-0.208,0.031,29.663,57.556,6.897
1.095,-0.261,0.040,30.334,50.781,-2.563
1.138,-0.279,0.013,30.151,34.180,-13.550
1.147,-0.308,-0.010,28.320,15.503,-21.545
1.099,-0.281,-0.038,24.353,-1.038,-24.841
1.021,-0.296,-0.058,20.691,-10.315,-23.865
0.984,-0.296,-0.080,16.907,-11.597,-23.682
0.881,-0.261,-0.112,13.306,-6.104,-26.855
0.807,-0.242,-0.109,11.597,7.141,-28.870
0.840,-0.242,-0.085,10.559,24.109,-27.893
0.918,-0.256,-0.056,10.193,38.818,-26.062
0.937,-0.254,-0.036,8.606,46.692,-25.574
1.017,-0.269,0.004,7.080,48.889,-23.132
1.100,-0.306,0.021,5.493,43.762,-21.179
1.134,-0.307,0.032,1.587,32.227,-20.935
1.117,-0.302,0.024,-3.357,15.747,-21.606
1.070,-0.293,-0.012,-6.897,-0.977,-23.193
1.015,-0.277,-0.050,-8.667,-12.939,-25.208
0.967,-0.248,-0.066,-9.033,-19.104,-29.114
0.912,-0.200,-0.084,-7.446,-18.982,-33.813
0.900,-0.182,-0.087,-3.662,-13.489,-35.461
0.939,-0.186,-0.073,1.404,-6.714,-34.424
1.011,-0.211,-0.058,4.395,-1.465,-31.189
1.106,-0.234,-0.033,4.333,-0.916,-27.100
1.178,-0.252,-0.021,1.770,-6.042,-23.071
1.208,-0.232,-0.029,-3.418,-16.846,-19.165
1.176,-0.201,-0.041,-7.812,-29.724,-16.235
1.117,-0.179,-0.058,-9.888,-40.100,-15.320
1.042,-0.156,-0.075,-9.827,-45.227,-15.930
0.972,-0.124,-0.079,-7.690,-43.762,-17.456
0.928,-0.118,-0.083,-3.906,-36.011,-17.883
0.902,-0.138,-0.085,0.671,-23.071,-18.188
0.895,-0.116,-0.064,4.395,-7.324,-19.836
0.967,-0.135,-0.040,7.690,7.874,-20.630
1.045,-0.160,-0.013,9.583,17.761,-21.790
1.101,-0.148,0.018,8.484,20.203,-23.437
1.136,-0.147,0.023,5.737,15.259,-22.217
1.121,-0.133,0.011,2.563,5.981,-20.264
1.100,-0.114,-0.001,-0.793,-2.686,-17.944
1.077,-0.099,-0.018,-3.540,-8.667,-15.930
1.049,-0.082,-0.038,-5.432,-11.963,-14.954
1.008,-0.065,-0.059,-5.798,-12.085,-15.259
1.000,-0.036,-0.057,-5.127,-8.301,-15.686
1.001,-0.017,-0.040,-2.502,-2.930,-15.625
1.005,-0.010,-0.028,1.526,2.625,-15.320
1.014,-0.013,-0.015,5.737,7.751,-14.771
1.012,-0.024,-0.000,9.033,11.292,-14.038
1.030,-0.038,0.019,11.414,12.939,-13.855
1.059,-0.061,0.036,12.085,12.512,-13.855
1.078,-0.085,0.048,11.536,8.850,-14.160
1.096,-0.103,0.048,9.705,2.991,-14.038

1.803,-1.248,0.192,40.466,1.648,17.578
1.948,-1.458,0.184,50.415,3.296,23.621
2.095,-1.724,0.166,60.913,4.700,31.494
2.208,-1.982,0.114,67.627,6.042,42.114
2.196,-2.173,0.012,68.298,4.944,54.810
2.055,-2.268,-0.140,65.369,1.099,68.115
1.967,-2.354,-0.298,60.730,-2.625,79.773
1.857,-2.461,-0.478,57.739,-6.287,85.388
1.609,-2.420,-0.627,58.777,-4.639,84.900
1.369,-2.213,-0.621,60.852,7.507,91.614
1.119,-1.980,-0.516,66.467,23.682,109.192
0.909,-1.866,-0.393,75.012,36.133,126.587
0.814,-1.708,-0.272,76.904,42.053,134.155
0.556,-1.345,-0.106,65.186,39.368,127.258
0.236,-0.942,0.058,46.814,31.250,112.610
0.034,-0.574,0.168,26.428,22.095,90.759
-0.131,-0.139,0.244,1.221,15.320,52.612
-0.359,0.324,0.367,-29.724,12.085,7.019
-0.506,0.686,0.367,-63.416,9.644,-41.321
-0.435,0.974,0.222,-99.976,13.733,-94.971
-0.224,1.284,0.095,-140.564,26.123,-145.264
0.051,1.609,-0.010,-181.824,38.269,-181.946
0.473,1.910,-0.189,-215.332,44.434,-200.684
0.842,2.174,-0.365,-239.136,41.687,-204.834
1.070,2.412,-0.498,-251.282,30.273,-197.449
1.166,2.591,-0.615,-247.681,12.512,-182.861
1.182,2.697,-0.695,-229.614,-3.479,-165.710
1.186,2.741,-0.699,-201.721,-12.939,-147.888
1.196,2.724,-0.654,-167.847,-17.334,-128.662
1.204,2.648,-0.586,-134.644,-18.677,-108.215
1.221,2.517,-0.523,-104.919,-18.799,-86.914
1.253,2.347,-0.463,-80.627,-19.226,-66.101
1.285,2.145,-0.387,-62.927,-20.935,-46.265
1.304,1.936,-0.335,-51.575,-25.635,-27.588
1.326,1.757,-0.308,-43.945,-33.081,-6.958
1.387,1.480,-0.308,-37.415,-41.626,15.686
1.292,1.376,-0.427,-34.668,-49.438,31.372
1.047,1.413,-0.317,-32.349,-43.152,48.889
1.029,1.307,-0.265,-14.282,-29.968,77.698
1.019,1.114,-0.280,12.512,-14.587,106.201
1.107,1.012,-0.280,31.677,2.502,122.437
1.195,0.944,-0.179,45.776,18.433,134.277
1.267,0.724,-0.175,60.059,23.010,148.499
1.296,0.653,-0.157,65.247,16.663,151.306
1.259,0.579,-0.123,64.392,7.996,151.550
1.224,0.535,-0.074,61.890,-2.625,147.888
1.200,0.502,-0.032,58.289,-14.465,141.357
1.177,0.459,-0.016,54.138,-25.879,132.202
1.132,0.470,-0.001,50.049,-35.461,121.338
1.068,0.424,-0.015,48.340,-42.664,113.159
1.062,0.446,0.015,46.753,-47.058,107.727
0.988,0.399,0.012,47.302,-52.551,108.337
0.640,0.597,-0.161,46.448,-52.185,113.342
1.001,0.438,0.109,50.415,-32.837,136.902
0.765,0.251,0.022,59.387,-28.381,147.827
0.567,0.129,-0.027,57.800,-21.790,137.878
0.480,0.219,-0.020,49.683,-4.211,116.821
0.526,0.034,-0.000,49.927,18.677,95.764
0.636,-0.022,0.012,46.814,38.269,65.613
0.823,-0.127,0.050,39.124,53.406,39.551
1.025,-0.214,0.058,28.076,58.411,16.479
1.075,-0.161,0.071,14.709,51.392,-0.366
1.109,-0.175,0.047,6.104,35.461,-3.723
1.063,-0.173,0.001,2.136,20.264,-4.883
0.945,-0.180,-0.037,1.770,11.353,-8.423
0.846,-0.193,-0.037,3.967,11.169,-15.320
0.870,-0.249,-0.006,7.751,19.165,-18.738
0.843,-0.296,0.008,9.338,25.757,-20.874
0.937,-0.259,0.075,10.315,28.503,-23.743
1.092,-0.368,0.105,13.428,21.729,-22.705
1.110,-0.409,0.091,13.489,1.160,-27.710
1.061,-0.398,0.067,11.230,-25.085,-35.400
1.007,-0.400,0.033,10.437,-49.805,-42.114
0.928,-0.421,-0.021,10.559,-66.040,-49.377
0.805,-0.403,-0.065,10.071,-67.932,-56.763
0.699,-0.406,-0.094,9.521,-54.993,-60.974
0.685,-0.405,-0.078,9.460,-29.175,-62.378
0.751,-0.428,-0.031,9.216,1.160,-61.157
0.881,-0.435,0.034,7.446,25.757,-59.448
1.035,-0.448,0.123,4.089,36.743,-59.326
1.145,-0.398,0.179,-0.732,31.067,-60.181
1.164,-0.381,0.170,-5.188,12.207,-54.565
1.131,-0.390,0.115,-8.850,-10.559,-49.927
1.060,-0.377,0.052,-12.085,-26.794,-52.429
1.025,-0.333,0.020,-14.465,-32.898,-56.702
1.001,-0.309,0.015,-16.235,-32.410,-59.448
1.013,-0.296,0.012,-16.846,-26.978,-58.777
1.031,-0.251,0.013,-18.433,-18.616,-54.382
1.069,-0.223,0.027,-18.372,-10.498,-47.607
1.106,-0.203,0.052,-16.785,-4.028,-40.405
1.113,-0.174,0.062,-14.771,-1.221,-33.508
1.114,-0.166,0.061,-13.123,-1.343,-27.893
1.095,-0.178,0.050,-11.597,-2.075,-25.757
1.100,-0.183,0.045,-11.902,-1.526,-26.794
1.146,-0.187,0.066,-13.184,-0.061,-28.076
1.194,-0.171,0.082,-14.954,-1.465,-28.503
1.208,-0.137,0.085,-15.503,-6.958,-28.320
1.198,-0.108,0.071,-13.977,-13.916,-26.794
1.195,-0.101,0.076,-10.681,-20.447,-24.475
1.162,-0.057,0.084,-6.714,-25.085,-23.010
1.107,-0.073,0.074,-2.502,-25.879,-19.836
1.078,-0.064,0.072,-0.061,-21.484,-16.907
1.056,-0.075,0.073,1.404,-13.123,-14.282
1.036,-0.089,0.067,1.526,-2.991,-12.085
1.041,-0.080,0.079,0.122,8.362,-10.437
1.051,-0.071,0.092,-1.953,18.250,-9.277
1.067,-0.051,0.103,-3.967,25.452,-9.460
1.111,-0.036,0.122,-5.127,28.931,-9.644
1.144,-0.013,0.138,-5.920,27.588,-9.216
1.156,-0.000,0.143,-6.226,21.362,-8.362
1.169,0.010,0.140,-5.920,12.207,-6.531
1.131,0.017,0.126,-4.639,1.343,-4.883
1.087,0.022,0.107,-3.235,-7.080,-3.906
1.041,0.016,0.086,-1.526,-11.902,-3.418
0.989,0.011,0.062,0.061,-12.024,-3.296
0.956,0.006,0.042,0.488,-8.057,-3.235
0.954,0.004,0.040,0.549,-0.854,-3.235
0.968,0.006,0.050,0.427,7.019,-3.479
0.996,0.008,0.066,0.244,13.611,-3.723

1.657,-1.629,0.008,35.034,11.902,10.559
1.730,-1.965,-0.087,52.185,18.677,18.005
1.690,-2.234,-0.229,65.857,29.480,31.982
1.686,-2.440,-0.356,72.449,47.791,51.819
1.717,-2.657,-0.456,78.857,71.106,72.754
1.714,-2.874,-0.535,87.952,91.614,92.346
1.671,-3.010,-0.551,92.529,101.990,113.770
1.531,-3.040,-0.512,90.088,97.656,137.024
1.261,-2.888,-0.419,81.421,83.130,159.546
0.949,-2.614,-0.340,70.618,64.758,180.176
0.630,-2.270,-0.318,63.354,47.913,190.369
0.419,-1.839,-0.246,56.335,39.185,181.091
0.193,-1.298,-0.140,46.875,38.025,153.442
0.054,-0.762,-0.001,35.522,40.771,115.540
0.051,-0.188,0.226,19.714,42.358,75.134
0.156,0.315,0.461,1.831,33.447,30.334
0.228,0.716,0.590,-18.494,12.085,-22.644
0.289,1.019,0.672,-46.021,-14.404,-83.618
0.444,1.247,0.669,-80.383,-40.161,-142.456
0.790,1.421,0.562,-117.859,-59.753,-196.289
1.111,1.637,0.356,-158.875,-72.815,-236.877
1.328,1.860,0.061,-195.618,-76.965,-257.507
1.370,2.100,-0.240,-221.863,-69.946,-258.057
1.299,2.301,-0.493,-231.628,-52.246,-246.277
1.287,2.441,-0.657,-224.304,-28.076,-228.699
1.350,2.543,-0.718,-204.590,-7.874,-209.656
1.452,2.578,-0.733,-176.880,-2.258,-189.331
1.541,2.584,-0.714,-145.630,-14.526,-169.067
1.578,2.548,-0.658,-113.953,-40.527,-149.292
1.542,2.439,-0.613,-85.266,-71.350,-130.676
1.469,2.287,-0.591,-62.744,-97.473,-113.586
1.364,2.178,-0.576,-46.204,-111.328,-93.689
1.249,2.069,-0.518,-31.433,-109.741,-65.796
1.174,1.909,-0.457,-13.306,-94.482,-32.227
1.116,1.727,-0.375,3.967,-70.496,3.052
1.037,1.520,-0.322,17.395,-45.349,37.109
0.528,1.349,-0.410,23.926,-19.714,65.063
1.046,1.252,-0.308,22.644,18.738,92.590
1.130,1.046,-0.016,27.649,47.729,108.032
0.937,0.941,-0.270,28.198,33.569,108.582
1.156,0.899,-0.019,18.188,30.884,120.361
0.910,0.768,-0.194,15.503,13.062,126.770
0.809,0.700,-0.231,11.719,7.080,134.155
0.920,0.709,-0.113,9.033,14.099,136.597
1.030,0.691,-0.126,15.015,13.428,137.695
1.069,0.563,-0.146,20.081,7.874,142.090
0.989,0.557,-0.184,22.034,3.357,143.372
0.985,0.525,-0.167,24.841,3.967,144.531
1.012,0.640,-0.084,31.189,6.165,146.667
0.992,0.587,-0.087,41.992,8.667,154.236
0.998,0.556,-0.048,48.767,12.573,157.227
0.988,0.524,-0.008,52.307,18.921,155.029
0.960,0.497,0.019,54.016,24.109,150.696
0.947,0.440,0.043,52.856,28.687,143.860
1.001,0.378,0.074,49.255,30.518,132.080
1.014,0.368,0.110,43.274,26.672,115.967
1.035,0.332,0.127,38.452,15.625,100.708
1.090,0.232,0.110,34.363,1.343,87.952
1.103,0.174,0.089,27.771,-10.803,75.256
1.099,0.127,0.094,19.958,-20.081,65.002
1.101,0.067,0.082,12.573,-25.513,59.326
1.083,0.026,0.065,3.906,-25.940,55.298
1.009,0.047,0.039,-3.845,-21.973,47.852
0.932,0.070,0.006,-6.348,-12.146,36.194
0.891,0.058,-0.009,-3.296,4.089,20.874
0.919,0.025,0.020,2.563,24.719,4.761
0.962,-0.032,0.052,7.263,44.373,-5.249
1.055,-0.080,0.099,9.033,55.603,-9.277
1.152,-0.128,0.137,9.399,54.077,-9.521
1.246,-0.211,0.179,8.057,40.955,-8.240
1.288,-0.282,0.197,3.052,20.630,-4.211
1.223,-0.278,0.165,-6.348,-3.784,0.427
1.157,-0.334,0.166,-15.991,-24.780,3.540
1.045,-0.335,0.101,-25.085,-39.368,2.563
0.946,-0.351,0.033,-29.785,-40.955,-0.549
0.810,-0.262,-0.025,-31.006,-31.860,-13.000
0.760,-0.198,-0.039,-24.536,-12.756,-28.442
0.874,-0.260,-0.025,-11.597,9.216,-44.495
0.982,-0.246,0.023,-1.526,25.391,-58.472
1.109,-0.281,0.092,5.005,30.396,-62.500
1.271,-0.367,0.132,6.836,22.888,-54.382
1.294,-0.382,0.118,1.465,4.883,-40.466
1.240,-0.364,0.075,-6.226,-16.663,-27.832
1.158,-0.343,0.034,-11.658,-33.997,-21.545
1.087,-0.313,0.000,-14.343,-42.786,-22.400
1.040,-0.307,-0.011,-14.282,-43.945,-26.733
0.985,-0.273,-0.028,-13.062,-38.208,-31.067
0.953,-0.232,-0.027,-11.108,-26.123,-33.447
0.955,-0.221,-0.009,-7.324,-10.071,-34.607
0.994,-0.232,0.023,-3.967,7.080,-33.569
1.067,-0.238,0.067,-3.113,20.386,-29.175
1.198,-0.240,0.122,-4.883,25.024,-22.888
1.291,-0.215,0.158,-8.789,17.944,-15.259
1.283,-0.173,0.152,-12.695,0.122,-7.874
1.221,-0.127,0.125,-14.587,-21.240,-3.296
1.122,-0.077,0.083,-14.099,-40.039,-1.648
1.016,-0.038,0.050,-11.597,-51.147,-1.831
0.918,-0.005,0.029,-7.446,-53.284,-2.502
0.847,0.015,0.018,-2.258,-46.021,-2.747
0.832,0.034,0.027,3.174,-32.104,-2.808
0.839,0.031,0.050,7.629,-15.930,-4.089
0.861,0.004,0.068,10.864,-1.221,-7.141
0.923,-0.001,0.096,10.132,11.353,-10.681
0.998,-0.003,0.121,6.958,18.738,-12.573
1.071,0.015,0.133,1.953,20.569,-10.803
1.099,0.066,0.130,-3.296,16.907,-7.263
1.103,0.104,0.118,-6.836,10.376,-4.028
1.082,0.137,0.101,-8.179,3.845,-2.686
1.050,0.159,0.081,-8.545,-0.732,-1.831
1.016,0.183,0.063,-7.629,-2.625,-1.709
0.994,0.200,0.052,-6.042,-2.014,-2.502
0.972,0.209,0.047,-3.540,0.244,-3.113
0.962,0.216,0.051,-0.671,4.089,-3.723
0.964,0.221,0.060,2.075,7.935,-4.578
0.967,0.216,0.068,4.272,10.803,-5.798
0.971,0.220,0.080,5.981,11.658,-6.714
0.979,0.213,0.089,7.202,11.230,-6.897
0.977,0.202,0.093,7.751,9.521,-6.897
0.975,0.184,0.096,7.446,7.019,-7.141

1.488,-1.056,0.132,23.499,-41.870,-4.578
1.591,-1.199,0.039,25.574,-31.555,-2.808
1.633,-1.272,-0.078,29.663,-13.489,4.028
1.685,-1.367,-0.157,36.926,12.085,17.944
1.740,-1.488,-0.213,47.852,40.894,36.621
1.812,-1.628,-0.276,63.538,68.970,53.223
1.963,-1.892,-0.323,83.496,92.834,63.782
2.019,-2.199,-0.386,102.844,106.812,70.190
1.991,-2.356,-0.404,110.474,108.826,78.857
1.930,-2.318,-0.374,102.844,98.816,93.628
1.753,-2.172,-0.364,89.417,78.064,104.797
1.446,-1.932,-0.290,74.707,59.509,109.009
1.142,-1.594,-0.224,56.946,45.410,114.502
0.838,-1.172,-0.169,37.720,32.349,115.234
0.422,-0.770,-0.131,20.142,26.733,102.722
0.031,-0.326,-0.090,3.784,32.898,75.500
-0.223,0.110,-0.025,-11.963,48.523,37.537
-0.281,0.504,0.078,-27.771,68.176,-8.545
-0.222,0.811,0.156,-46.753,84.534,-61.218
-0.108,1.082,0.201,-71.655,90.820,-112.427
0.107,1.296,0.204,-100.525,86.853,-154.358
0.417,1.446,0.138,-130.798,75.256,-186.768
0.724,1.603,0.054,-161.255,57.495,-210.205
0.936,1.766,-0.038,-186.890,34.973,-224.670
1.026,1.894,-0.176,-203.125,11.841,-229.492
1.076,1.974,-0.329,-210.083,-6.165,-225.708
1.117,2.028,-0.463,-210.449,-16.174,-216.248
1.135,2.103,-0.559,-205.383,-17.090,-202.637
1.163,2.199,-0.594,-193.481,-8.850,-183.960
1.214,2.286,-0.560,-173.096,3.479,-160.828
1.263,2.300,-0.524,-145.630,15.076,-137.024
1.291,2.253,-0.507,-116.272,22.766,-115.051
1.455,2.170,-0.417,-87.952,28.076,-93.872
1.525,2.072,-0.286,-58.655,21.606,-74.341
1.640,1.806,-0.340,-31.006,-3.418,-54.504
1.535,1.743,-0.258,-16.357,-30.029,-35.400
1.486,1.494,-0.318,-3.967,-58.411,-5.310
1.286,1.420,-0.345,3.601,-79.041,18.860
1.128,1.254,-0.339,10.254,-85.266,44.617
1.031,1.115,-0.358,16.174,-79.773,64.392
0.974,0.964,-0.354,17.639,-64.880,76.965
0.863,0.895,-0.341,15.991,-45.654,85.815
0.841,0.797,-0.253,15.625,-25.696,95.154
0.969,0.794,-0.197,16.541,-14.771,103.760
0.957,0.488,-0.314,20.203,-11.719,113.647
0.940,0.536,-0.232,14.893,-6.714,107.178
0.939,0.568,-0.198,13.428,-7.874,106.628
1.005,0.442,-0.236,18.860,-13.611,112.976
1.000,0.384,-0.277,23.376,-19.531,113.403
1.013,0.437,-0.262,27.527,-22.278,109.802
1.076,0.434,-0.219,36.682,-23.804,111.511
1.096,0.436,-0.199,49.133,-29.419,113.586
1.054,0.397,-0.184,61.340,-34.424,118.530
1.010,0.355,-0.172,70.740,-36.926,123.413
0.952,0.356,-0.134,76.477,-35.767,126.892
0.900,0.320,-0.121,80.200,-31.982,130.310
0.889,0.256,-0.127,80.750,-25.085,129.150
