aX,aY,aZ,gX,gY,gZ
2.011,1.621,-0.904,-28.320,531.189,-127.991
3.073,2.128,-1.332,-44.678,617.310,-153.320
4.000,2.858,-1.835,-70.129,685.791,-160.706
4.000,3.535,-2.344,-91.675,726.257,-155.273
4.000,3.926,-2.750,-93.811,749.817,-137.512
4.000,3.847,-2.983,-75.684,762.817,-90.820
4.000,3.624,-2.944,-45.471,756.042,6.714
4.000,3.305,-2.737,3.784,708.984,131.653
4.000,2.309,-2.371,88.745,640.503,248.413
4.000,1.339,-1.848,185.364,586.182,340.881
4.000,-0.382,-1.554,266.052,554.687,433.411
4.000,-0.717,-0.737,308.533,539.429,489.502
4.000,-1.898,-0.735,342.163,534.302,530.884
4.000,-2.174,-0.544,359.497,521.729,526.306
3.140,-3.349,-0.489,353.882,536.377,491.638
3.366,-1.993,-0.307,320.435,569.702,401.123
3.196,-1.833,-0.279,301.636,608.826,363.220
3.260,-1.554,-0.221,298.706,595.581,324.402
3.127,-1.271,-0.025,306.091,544.678,294.861
2.865,-1.025,0.220,321.777,465.576,263.306
2.493,-1.094,0.273,338.867,362.610,241.455
1.935,-0.952,0.221,342.651,259.460,213.623
1.297,-0.925,0.173,336.243,187.073,186.523
1.033,-0.975,-0.001,322.021,158.142,152.710
0.746,-1.015,0.031,291.504,171.997,126.709
0.709,-1.025,-0.077,252.075,200.073,116.211
0.709,-0.914,-0.030,205.811,232.117,98.389
0.785,-0.966,-0.037,167.297,245.911,77.576
0.863,-0.724,0.030,134.460,240.601,55.725
0.833,-0.524,0.043,115.173,211.182,42.847
0.711,-0.446,-0.020,112.549,166.931,33.020
0.474,-0.155,0.002,119.751,123.901,24.536
0.287,-0.134,-0.078,139.221,88.318,29.236
0.102,-0.160,-0.100,160.645,66.833,32.288
-0.097,-0.150,-0.096,174.133,58.167,22.827
-0.225,-0.125,-0.048,180.603,57.434,5.554
-0.287,-0.142,0.011,181.152,61.829,-13.672
-0.230,-0.249,0.090,174.805,68.665,-32.593
-0.092,-0.289,0.224,156.677,74.280,-49.255
0.051,-0.240,0.302,128.357,70.435,-55.847
0.108,-0.169,0.287,95.032,59.387,-51.758
0.128,-0.009,0.244,63.110,49.255,-38.513
0.156,0.162,0.185,41.382,43.152,-21.667
0.143,0.265,0.113,33.020,40.527,-8.972
0.117,0.304,0.062,34.180,40.222,-3.174
0.114,0.348,0.042,39.795,42.053,-3.723
0.105,0.380,0.040,45.105,44.861,-7.568
0.110,0.388,0.045,50.110,47.363,-13.062
0.140,0.382,0.071,53.284,50.110,-18.677
0.182,0.407,0.112,52.734,52.856,-19.958
0.238,0.452,0.156,48.828,53.467,-15.259
0.275,0.501,0.193,45.288,50.903,-8.118
0.300,0.561,0.225,43.030,45.837,-2.380
0.300,0.615,0.248,42.908,37.598,1.587
0.275,0.666,0.265,44.250,28.015,3.601
0.264,0.691,0.284,47.119,18.311,5.005
0.249,0.690,0.309,50.110,7.629,5.981
0.187,0.695,0.315,52.246,-3.296,6.714
0.053,0.709,0.314,52.795,-10.254,7.141
-0.012,0.706,0.320,52.673,-9.094,7.935
-0.052,0.692,0.331,50.964,-1.648,9.583
-0.097,0.675,0.340,46.509,9.277,9.460
-0.128,0.692,0.363,39.429,21.729,7.568
-0.114,0.724,0.391,30.884,33.813,6.042
-0.070,0.759,0.412,22.827,42.175,5.432
-0.010,0.811,0.458,16.296,45.105,4.883
0.068,0.858,0.501,13.245,39.429,3.723
0.126,0.903,0.541,14.465,24.963,1.465
0.132,0.935,0.565,18.188,4.639,-1.282
0.153,0.918,0.568,23.376,-17.151,-1.892
0.110,0.871,0.543,28.748,-38.208,-1.343
0.007,0.827,0.523,32.776,-52.490,-3.479
-0.061,0.797,0.515,34.607,-55.786,-7.446
-0.075,0.750,0.516,34.790,-49.866,-11.658
-0.108,0.669,0.553,32.349,-38.330,-17.151
-0.058,0.822,0.573,23.499,-25.635,-23.743
-0.044,0.693,0.569,14.282,-13.062,-18.921
-0.017,0.699,0.560,4.456,-2.625,-16.296
0.021,0.747,0.574,-4.272,6.531,-15.747
0.084,0.779,0.594,-9.766,10.498,-15.320
0.154,0.718,0.576,-11.414,7.874,-14.038
0.174,0.731,0.598,-12.817,0.488,-15.930
0.214,0.747,0.583,-13.550,-11.597,-18.127
0.141,0.700,0.562,-13.123,-24.597,-18.616
0.126,0.738,0.509,-13.062,-34.729,-19.287
0.073,0.669,0.478,-10.071,-39.124,-16.235
0.046,0.696,0.449,-8.972,-39.795,-19.836
0.020,0.758,0.450,-9.583,-37.598,-20.996
-0.001,0.725,0.397,-9.399,-33.264,-18.433
-0.007,0.703,0.378,-11.475,-23.743,-17.090
0.001,0.687,0.379,-15.259,-11.230,-16.968
-0.075,0.483,0.360,-20.264,1.160,-20.386
0.099,0.894,0.414,-29.480,13.184,-32.593
0.081,0.672,0.376,-33.325,20.813,-25.208
0.178,0.766,0.385,-35.278,21.179,-26.550
0.267,0.821,0.402,-34.546,16.235,-24.475
0.307,0.811,0.388,-31.555,3.235,-19.775
0.349,0.799,0.374,-28.931,-10.925,-15.503
0.355,0.814,0.333,-27.649,-25.757,-11.902
0.328,0.843,0.297,-27.405,-36.743,-10.071
0.312,0.853,0.273,-27.161,-41.809,-8.728
0.306,0.847,0.235,-26.855,-41.016,-7.690
0.286,0.886,0.206,-27.954,-35.217,-7.446
0.273,0.931,0.199,-28.748,-25.452,-7.141
0.277,0.946,0.207,-27.771,-13.000,-6.409
0.306,0.951,0.225,-25.818,-0.916,-5.859
0.343,0.968,0.252,-24.353,8.362,-4.761
0.373,0.998,0.279,-23.193,11.963,-3.113
0.390,1.013,0.300,-21.301,9.399,-0.122
0.377,1.010,0.311,-18.738,1.587,3.906
0.333,0.982,0.311,-15.686,-7.874,7.019
0.291,0.953,0.309,-12.756,-16.907,8.911
0.251,0.913,0.311,-10.010,-24.170,10.010
0.210,0.846,0.305,-7.629,-29.663,9.460
0.150,0.787,0.286,-7.690,-32.471,6.226
0.058,0.739,0.242,-10.925,-31.006,-0.671
-0.060,0.698,0.193,-16.541,-22.339,-11.536
-0.099,0.974,0.308,-22.278,-7.202,-25.208
-0.265,0.578,0.149,-23.987,3.113,-23.743

1.585,1.200,-1.009,66.833,146.667,-89.294
1.988,1.638,-1.385,63.660,181.274,-95.093
2.500,2.196,-1.873,59.509,228.699,-95.459
3.228,2.784,-2.442,57.190,286.133,-82.031
4.000,3.415,-3.054,59.204,344.788,-49.133
4.000,3.864,-3.686,70.496,394.104,-2.930
4.000,3.986,-4.000,96.375,433.960,64.087
4.000,3.781,-4.000,136.230,461.426,156.372
4.000,3.271,-3.864,195.801,462.585,262.329
4.000,2.217,-3.326,281.189,419.067,367.126
4.000,0.802,-2.856,373.718,340.027,455.383
4.000,-0.556,-2.419,445.557,253.723,520.691
4.000,-1.571,-2.118,486.572,181.824,565.369
4.000,-2.601,-2.126,498.474,149.841,593.445
3.344,-2.918,-1.745,481.140,179.626,588.867
2.775,-2.865,-1.563,460.449,233.643,565.491
2.382,-2.706,-1.287,440.796,286.133,522.400
2.062,-2.211,-0.783,423.401,327.271,461.304
1.849,-1.674,-0.190,416.931,342.407,399.658
1.726,-1.594,0.215,417.358,324.280,346.924
1.455,-1.681,0.362,407.166,276.978,294.861
1.186,-1.792,0.402,376.404,228.088,240.662
1.041,-1.756,0.416,320.312,188.843,201.538
0.980,-1.725,0.429,248.535,156.433,176.941
0.943,-1.645,0.231,176.941,127.502,148.499
0.812,-1.156,0.123,107.483,114.746,122.070
0.604,-0.925,-0.144,54.810,112.488,115.601
0.632,-0.855,-0.367,28.137,121.887,111.816
0.464,-0.861,-0.526,19.897,148.682,92.163
0.026,-0.299,-0.484,22.888,185.059,55.847
0.707,-0.213,-0.262,42.114,215.271,52.551
0.606,-0.582,-0.308,78.796,200.073,54.077
0.771,-0.336,-0.015,91.492,180.908,30.579
0.658,-0.567,0.041,99.976,135.559,25.452
0.572,-0.632,-0.068,85.876,91.064,26.917
0.284,-0.627,-0.223,56.274,53.101,30.029
0.293,-0.291,0.001,21.362,30.273,32.349
0.137,-0.318,-0.272,-2.747,5.920,42.358
-0.106,-0.149,-0.372,-23.315,7.996,44.617
-0.279,0.123,-0.420,-28.931,26.733,37.170
-0.273,0.252,-0.434,-15.930,56.396,27.283
-0.119,0.335,-0.333,5.127,86.060,14.587
0.068,0.352,-0.201,26.550,100.891,5.127
0.198,0.351,-0.060,42.969,95.337,-1.221
0.280,0.346,0.040,52.551,74.707,-6.226
0.299,0.411,0.124,54.749,47.913,-10.254
0.297,0.489,0.172,52.246,19.226,-11.169
0.270,0.420,0.065,47.363,-6.226,-8.911
0.137,0.618,0.153,36.682,-20.813,-9.521
0.051,0.647,0.082,27.710,-28.015,-5.249
-0.021,0.726,0.055,19.714,-22.644,-2.930
-0.037,0.752,0.022,12.207,-8.179,0.610
-0.036,0.792,0.043,6.165,10.254,3.174
0.014,0.828,0.068,3.479,26.978,1.892
0.071,0.828,0.101,3.418,37.781,0.549
0.098,0.832,0.130,4.211,41.687,-1.587
0.113,0.859,0.162,4.883,39.368,-3.601
0.115,0.908,0.204,6.042,32.410,-5.798
0.113,0.888,0.223,8.240,21.423,-7.019
0.108,0.939,0.268,10.376,8.240,-9.827
0.093,0.902,0.277,11.414,-5.737,-10.132
0.083,0.878,0.275,12.024,-18.555,-9.644
0.040,0.880,0.268,12.207,-28.259,-11.230
-0.008,0.882,0.266,13.733,-32.471,-14.282
-0.017,0.899,0.277,15.503,-30.334,-16.846
0.016,0.896,0.290,16.541,-25.269,-18.616
0.053,0.906,0.312,15.747,-20.386,-19.836
0.101,0.902,0.336,14.160,-18.188,-20.081
0.162,0.857,0.355,12.207,-19.470,-19.470
0.198,0.828,0.370,9.094,-24.353,-20.081
0.238,0.817,0.379,5.127,-33.203,-21.118
0.265,0.810,0.361,1.465,-45.471,-22.278
0.229,0.814,0.312,-2.930,-58.594,-23.499
0.165,0.817,0.255,-5.981,-67.749,-24.048
0.145,0.834,0.228,-8.057,-67.688,-23.926
0.156,0.836,0.220,-8.911,-61.890,-23.071
0.169,0.836,0.223,-9.216,-54.749,-22.278
0.192,0.843,0.239,-9.521,-48.340,-20.569
0.209,0.852,0.252,-10.681,-44.739,-17.578
0.218,0.859,0.261,-11.780,-44.861,-15.503
0.195,0.856,0.263,-12.512,-48.889,-15.381
0.194,0.841,0.270,-12.817,-53.833,-16.418
0.203,0.800,0.276,-13.489,-59.814,-17.761
0.214,0.759,0.283,-15.015,-67.261,-19.531
0.221,0.748,0.285,-17.517,-76.538,-21.301
0.224,0.732,0.265,-20.020,-87.341,-23.621
0.231,0.753,0.248,-22.217,-98.877,-26.733
0.194,0.765,0.219,-22.766,-111.084,-30.457
0.117,0.730,0.172,-21.912,-120.056,-33.936
0.093,0.681,0.148,-21.667,-120.178,-35.706
0.101,0.613,0.134,-24.597,-114.807,-37.659
0.136,0.578,0.136,-30.273,-108.154,-40.100
0.185,0.541,0.131,-37.292,-104.126,-42.664
0.212,0.531,0.121,-44.617,-103.821,-45.776
0.245,0.592,0.130,-49.683,-105.957,-49.255
0.300,0.652,0.148,-50.964,-111.389,-51.941
0.362,0.649,0.147,-49.927,-122.559,-54.260
0.397,0.668,0.145,-48.035,-138.184,-57.861
0.411,0.693,0.134,-44.983,-156.372,-61.707
0.391,0.732,0.107,-41.565,-175.415,-66.345
0.349,0.747,0.075,-38.757,-192.444,-71.533
0.305,0.749,0.031,-37.170,-205.750,-76.843
0.265,0.776,-0.011,-37.109,-213.318,-82.703
0.232,0.810,-0.040,-37.720,-214.722,-89.294
0.215,0.825,-0.057,-37.598,-211.548,-94.910
0.189,0.842,-0.061,-36.743,-204.895,-100.647
0.200,0.828,-0.050,-35.156,-195.129,-105.347
0.229,0.863,-0.039,-35.278,-183.228,-108.765
0.272,0.915,-0.025,-36.743,-172.180,-113.159
0.308,0.916,-0.031,-39.307,-162.903,-117.798
0.354,0.916,-0.037,-43.396,-155.334,-121.582
0.411,0.925,-0.044,-49.255,-149.780,-124.084
0.427,0.926,-0.062,-55.115,-146.545,-126.221
0.431,0.917,-0.092,-60.486,-143.616,-126.831
0.417,0.932,-0.124,-64.087,-138.306,-126.648
0.379,0.944,-0.146,-65.491,-128.357,-126.587
0.356,0.945,-0.153,-63.904,-112.061,-126.953
0.378,0.957,-0.127,-60.791,-90.149,-127.625
0.443,0.948,-0.085,-57.129,-67.322,-127.991

1.253,1.737,-1.197,7.080,155.823,-46.204
1.658,2.252,-1.599,14.221,206.543,-40.955
2.205,2.805,-2.093,22.217,256.470,-29.053
2.812,3.342,-2.625,32.166,304.932,-6.592
3.520,3.745,-3.057,46.692,352.295,29.419
4.000,3.818,-3.420,71.106,397.705,80.933
4.000,3.754,-3.641,103.333,428.711,148.987
4.000,3.462,-3.743,144.531,429.199,226.868
4.000,2.878,-3.685,204.773,402.222,307.922
4.000,1.988,-3.567,278.259,358.459,380.310
4.000,0.981,-3.377,352.661,317.505,427.002
3.999,-0.004,-3.025,414.062,289.551,453.979
3.496,-0.877,-2.705,457.703,275.269,471.252
3.104,-1.610,-2.307,479.431,277.588,473.511
2.647,-1.848,-1.722,479.675,287.048,453.552
2.291,-1.965,-1.357,476.013,290.833,426.636
2.026,-1.839,-1.004,460.510,296.570,392.456
1.734,-1.650,-0.694,432.861,300.964,350.281
1.612,-1.618,-0.422,399.414,299.316,303.833
1.594,-1.492,-0.127,360.901,289.551,256.714
1.435,-1.412,0.072,321.472,267.090,210.022
1.409,-1.524,0.088,278.625,237.976,173.950
1.441,-1.351,0.102,230.042,207.703,142.944
1.343,-1.166,0.046,187.683,179.260,115.234
1.195,-1.159,-0.128,158.020,155.640,97.351
0.951,-1.082,-0.268,138.367,147.766,84.473
0.725,-0.844,-0.193,128.601,155.762,78.979
0.641,-0.902,-0.226,132.751,161.499,81.665
0.541,-0.850,-0.133,136.475,164.124,75.317
0.379,-0.757,-0.019,134.399,159.241,60.852
0.263,-0.696,0.097,128.174,145.935,40.710
0.187,-0.488,0.226,112.671,127.014,21.362
0.380,-0.206,0.333,91.553,99.060,17.456
0.394,-0.234,0.270,72.632,62.134,22.278
0.318,0.049,0.229,53.711,31.738,17.639
0.247,0.075,0.093,42.419,4.089,22.156
0.074,0.248,-0.008,29.907,-2.686,20.508
-0.047,0.322,-0.098,21.179,9.216,23.010
-0.114,0.350,-0.209,15.747,37.048,25.879
0.067,0.519,-0.100,14.282,70.435,26.428
0.148,0.504,-0.074,18.860,86.243,29.602
0.212,0.516,0.016,23.010,86.731,33.325
0.189,0.560,0.008,30.151,71.289,32.837
0.165,0.694,0.102,36.316,56.885,25.146
0.141,0.681,0.097,44.800,38.513,14.709
0.133,0.698,0.142,49.072,23.376,5.371
0.179,0.689,0.171,49.377,10.620,-1.587
0.191,0.693,0.189,42.664,0.061,-0.610
0.085,0.717,0.165,29.907,-7.996,4.700
0.010,0.797,0.159,18.127,-7.080,8.911
-0.024,0.857,0.166,11.353,2.808,11.780
0.021,0.855,0.189,9.338,16.113,15.259
0.079,0.821,0.209,10.620,27.039,18.250
0.085,0.779,0.230,11.353,32.410,18.860
0.053,0.783,0.260,10.864,32.593,15.259
0.043,0.792,0.300,10.742,29.480,9.766
0.074,0.789,0.334,11.292,22.278,5.615
0.084,0.762,0.336,12.451,10.742,2.869
0.082,0.773,0.344,13.428,-1.343,-0.793
0.054,0.782,0.340,14.648,-13.000,-5.737
0.031,0.760,0.328,15.564,-23.193,-11.475
0.011,0.742,0.309,14.648,-30.029,-15.564
-0.009,0.767,0.297,11.414,-32.837,-19.104
-0.002,0.806,0.288,8.484,-32.532,-22.339
-0.013,0.836,0.278,5.798,-30.273,-24.963
-0.017,0.868,0.271,4.089,-26.245,-25.391
0.009,0.863,0.259,3.235,-21.484,-23.376
0.028,0.839,0.248,2.502,-16.724,-22.400
0.053,0.829,0.247,0.427,-12.512,-22.522
0.066,0.817,0.242,-1.831,-9.705,-22.888
0.089,0.795,0.239,-4.211,-7.629,-22.339
0.126,0.787,0.240,-6.897,-6.104,-21.301
0.159,0.792,0.249,-10.315,-7.019,-20.081
0.168,0.791,0.248,-12.512,-10.437,-18.982
0.177,0.795,0.250,-13.733,-15.320,-18.677
0.169,0.811,0.242,-13.428,-20.996,-19.470
0.161,0.807,0.238,-12.756,-25.818,-20.447
0.163,0.796,0.242,-12.085,-29.785,-21.301
0.169,0.791,0.245,-12.085,-33.997,-21.851
0.183,0.783,0.247,-12.817,-38.757,-22.095
0.184,0.776,0.246,-14.099,-44.312,-22.888
0.178,0.783,0.243,-15.869,-50.171,-24.048
0.170,0.782,0.237,-17.761,-56.335,-25.330
0.154,0.781,0.231,-19.226,-63.049,-27.588
0.135,0.786,0.223,-20.142,-69.580,-30.579
0.115,0.784,0.216,-19.958,-75.317,-33.630
0.112,0.783,0.208,-19.287,-79.834,-36.560
0.086,0.810,0.195,-19.043,-83.008,-39.307
0.036,0.821,0.179,-19.043,-82.336,-41.260
0.033,0.806,0.168,-18.799,-75.989,-42.114
0.053,0.802,0.175,-20.447,-65.857,-42.725
0.100,0.797,0.190,-23.315,-56.824,-43.457
0.161,0.794,0.204,-26.855,-52.490,-44.250
0.227,0.793,0.217,-31.250,-54.016,-44.678
0.266,0.811,0.213,-35.706,-62.012,-45.166
0.247,0.837,0.186,-38.574,-74.951,-46.753
0.227,0.854,0.158,-39.429,-87.036,-48.706
0.220,0.859,0.138,-39.001,-96.558,-50.537
0.199,0.860,0.120,-37.476,-104.431,-52.979
0.196,0.846,0.105,-35.278,-110.229,-55.420
0.162,0.837,0.084,-33.386,-114.014,-57.739
0.128,0.821,0.059,-31.738,-113.708,-59.387
0.108,0.826,0.049,-31.555,-107.849,-59.998
0.111,0.818,0.046,-32.166,-98.022,-60.730
0.147,0.807,0.044,-34.302,-87.341,-61.584
0.189,0.842,0.064,-37.781,-78.674,-62.988
0.243,0.849,0.082,-40.588,-74.036,-64.026
0.270,0.837,0.083,-43.335,-74.768,-65.002
0.278,0.829,0.076,-46.509,-78.552,-66.956
0.293,0.807,0.069,-50.049,-83.252,-68.359
0.310,0.779,0.063,-53.589,-88.989,-70.068
0.334,0.767,0.059,-57.678,-95.459,-72.449
0.344,0.757,0.049,-60.486,-103.210,-75.256
0.349,0.758,0.033,-62.256,-110.901,-78.308
0.316,0.767,0.006,-63.477,-117.493,-82.092
0.275,0.787,-0.016,-63.538,-119.141,-85.876
0.275,0.835,-0.021,-62.744,-115.051,-87.891
0.296,0.886,-0.014,-61.707,-107.300,-88.013
0.342,0.894,-0.007,-59.448,-99.365,-86.670

0.862,2.294,-1.427,30.518,130.127,-48.706
1.335,2.789,-1.952,24.719,201.233,-34.180
2.088,3.261,-2.551,20.020,285.278,-7.690
3.056,3.732,-3.162,15.869,365.234,35.767
3.978,4.000,-3.772,19.043,421.936,92.957
4.000,4.000,-4.000,43.701,450.806,155.334
4.000,4.000,-4.000,93.323,456.238,222.656
4.000,3.500,-4.000,166.443,447.571,287.964
4.000,2.526,-4.000,256.592,423.279,346.313
4.000,1.330,-4.000,345.764,389.771,386.963
4.000,0.212,-3.910,415.955,361.267,414.246
4.000,-0.771,-3.443,465.088,341.614,429.993
3.550,-1.769,-3.176,496.460,331.116,427.307
3.025,-2.295,-2.784,508.545,338.562,395.569
2.773,-2.434,-2.328,511.108,357.666,353.271
2.780,-2.534,-1.896,511.475,367.615,311.584
2.819,-2.261,-1.362,502.197,361.023,263.489
2.693,-2.146,-1.012,489.319,330.505,222.595
2.569,-2.062,-0.637,468.933,285.767,189.209
2.539,-1.902,-0.284,439.636,237.915,157.959
2.332,-1.639,-0.106,399.475,184.631,130.676
1.994,-1.424,-0.073,347.534,133.057,117.554
1.695,-1.240,-0.140,290.771,97.107,111.084
1.408,-1.059,-0.244,238.220,83.618,106.140
1.141,-0.832,-0.323,195.312,87.891,104.004
0.953,-0.702,-0.364,164.795,104.858,106.995
0.790,-0.676,-0.334,142.334,125.244,101.196
0.797,-0.478,-0.369,127.075,137.817,87.708
0.500,-0.323,-0.308,122.559,145.142,80.261
0.426,-0.189,-0.334,128.540,145.508,73.486
0.567,-0.170,-0.262,139.648,140.869,67.871
0.532,-0.151,-0.093,146.545,126.709,59.082
0.430,-0.108,0.013,148.560,95.642,49.255
0.352,-0.086,0.113,144.958,63.843,44.006
0.122,-0.035,0.138,135.681,37.964,36.926
-0.009,0.041,0.307,122.437,28.015,32.166
0.016,0.017,0.287,110.962,23.437,31.799
-0.084,0.057,0.379,96.313,24.170,26.794
-0.193,0.185,0.447,80.933,29.419,19.897
-0.084,0.252,0.559,71.411,34.729,18.005
-0.006,0.230,0.578,68.054,34.302,16.907
0.083,0.362,0.703,65.308,28.870,11.475
0.098,0.304,0.664,63.293,14.587,8.606
0.093,0.349,0.676,57.434,1.099,3.601
0.105,0.417,0.666,48.767,-9.338,0.183
0.132,0.439,0.625,39.124,-19.714,0.305
0.151,0.496,0.595,29.053,-27.954,0.488
0.119,0.500,0.524,19.287,-34.668,1.587
0.051,0.546,0.472,9.460,-35.706,0.732
0.027,0.592,0.423,-0.061,-29.907,0.916
0.025,0.608,0.359,-8.911,-20.325,3.296
0.040,0.642,0.303,-16.296,-8.484,4.517
0.064,0.711,0.274,-21.301,3.601,4.456
0.123,0.760,0.269,-23.010,12.329,4.272
0.190,0.772,0.256,-21.973,13.855,5.127
0.200,0.793,0.239,-19.592,8.545,6.165
0.149,0.802,0.219,-15.991,0.916,5.188
0.122,0.805,0.215,-11.536,-4.456,2.930
0.107,0.801,0.222,-7.751,-7.568,-0.793
0.093,0.808,0.229,-5.310,-10.071,-4.089
0.083,0.828,0.240,-4.333,-12.268,-6.775
0.086,0.847,0.252,-3.418,-13.672,-7.874
0.092,0.856,0.271,-2.869,-15.076,-8.545
0.110,0.867,0.296,-2.502,-17.212,-9.949
0.125,0.880,0.324,-2.625,-21.301,-11.841
0.141,0.870,0.344,-1.953,-27.283,-13.794
0.150,0.850,0.355,-0.671,-34.241,-16.602
0.151,0.837,0.363,0.488,-40.833,-20.020
0.151,0.831,0.370,1.404,-46.143,-22.278
0.144,0.823,0.376,2.502,-49.988,-23.682
0.126,0.826,0.381,2.930,-52.368,-24.353
0.109,0.827,0.380,2.686,-52.917,-25.146
0.107,0.813,0.377,0.427,-51.208,-24.231
0.091,0.792,0.362,-3.662,-48.523,-22.644
0.076,0.775,0.340,-9.033,-44.739,-21.362
0.062,0.772,0.323,-13.977,-39.307,-20.264
0.074,0.764,0.316,-18.311,-32.776,-19.348
0.092,0.762,0.319,-20.813,-26.794,-19.165
0.112,0.761,0.325,-21.729,-22.949,-19.531
0.125,0.751,0.332,-21.912,-22.278,-20.081
0.133,0.751,0.338,-21.362,-24.231,-20.935
0.130,0.746,0.346,-20.630,-28.687,-22.705
0.131,0.737,0.356,-20.264,-34.241,-24.292
0.132,0.730,0.360,-19.592,-40.405,-26.428
0.122,0.723,0.354,-19.836,-47.546,-28.931
0.101,0.711,0.338,-20.691,-54.321,-30.945
0.084,0.707,0.325,-21.973,-59.143,-32.532
0.076,0.696,0.315,-24.353,-61.401,-33.691
0.055,0.691,0.303,-27.710,-61.768,-34.851
0.051,0.714,0.304,-30.701,-60.120,-36.621
0.055,0.720,0.297,-33.203,-57.617,-38.757
0.045,0.726,0.282,-36.011,-54.504,-40.405
0.057,0.739,0.275,-39.124,-49.927,-40.527
0.067,0.742,0.271,-42.725,-44.983,-40.771
0.079,0.755,0.265,-45.654,-40.710,-42.114
0.104,0.780,0.262,-47.546,-37.964,-43.762
0.125,0.786,0.254,-48.096,-38.269,-45.715
0.135,0.825,0.247,-47.974,-41.016,-48.584
0.147,0.885,0.249,-46.753,-45.288,-52.063
0.171,0.903,0.250,-44.739,-50.659,-54.932
0.217,0.903,0.258,-43.091,-57.739,-56.519
0.261,0.881,0.246,-43.091,-67.749,-56.396
0.280,0.860,0.226,-44.556,-79.102,-55.359
0.277,0.830,0.201,-46.387,-90.271,-55.237
0.233,0.821,0.158,-47.485,-99.365,-57.190
0.161,0.831,0.121,-48.706,-102.600,-60.852
0.157,0.827,0.118,-49.377,-97.900,-64.392
0.201,0.799,0.130,-49.438,-89.355,-66.833
0.265,0.761,0.142,-50.171,-82.031,-68.420
0.337,0.719,0.169,-50.903,-78.552,-69.519
0.422,0.676,0.184,-51.636,-80.872,-70.923
0.485,0.650,0.188,-54.077,-90.271,-72.754
0.501,0.654,0.166,-56.763,-106.262,-74.585
0.498,0.669,0.137,-58.228,-125.916,-76.538
0.414,0.670,0.080,-57.739,-145.325,-79.468
0.267,0.676,0.021,-54.626,-157.471,-84.473
0.171,0.667,-0.003,-50.476,-155.029,-89.050
0.144,0.639,0.002,-47.119,-139.893,-93.018
0.151,0.614,0.028,-44.678,-118.774,-97.534

0.950,1.135,-1.070,82.336,40.222,-6.409
1.026,1.515,-1.435,91.614,78.491,-2.625
1.310,1.943,-1.845,98.694,130.493,6.348
1.910,2.494,-2.262,102.234,191.711,22.583
2.714,2.965,-2.815,108.398,248.413,44.434
3.538,3.237,-3.508,121.338,293.457,77.637
4.000,3.482,-4.000,139.526,330.872,125.061
4.000,3.640,-4.000,176.086,368.408,186.157
4.000,3.403,-4.000,242.004,411.682,256.958
4.000,2.838,-4.000,337.341,454.468,324.280
4.000,1.736,-4.000,451.965,466.064,376.831
4.000,0.440,-4.000,550.720,422.058,397.583
4.000,-0.611,-4.000,610.718,338.257,388.428
3.974,-1.458,-3.623,637.329,237.366,372.620
3.431,-2.032,-3.033,639.038,147.888,357.971
2.667,-2.167,-2.426,628.967,87.952,349.365
2.061,-2.368,-2.095,615.417,54.382,348.083
1.565,-2.501,-1.677,583.252,56.885,334.778
1.473,-2.342,-1.170,533.386,85.571,307.861
1.525,-1.989,-0.663,480.103,118.164,280.029
1.495,-1.719,-0.167,432.983,140.808,255.798
1.356,-1.748,0.108,394.104,148.071,240.723
1.196,-1.686,0.319,353.638,145.142,227.356
1.050,-1.590,0.421,306.213,139.282,208.618
0.917,-1.542,0.409,248.962,132.080,187.195
0.699,-1.432,0.278,186.035,123.352,165.588
0.443,-1.154,0.126,129.761,122.864,141.235
0.248,-0.858,0.012,91.736,133.362,119.629
0.352,-0.624,-0.045,75.989,148.621,103.760
0.447,-0.579,-0.040,75.928,158.813,91.614
0.491,-0.553,0.024,79.651,153.687,76.721
0.516,-0.524,0.115,83.435,134.521,60.547
0.570,-0.445,0.199,86.609,102.600,44.617
0.415,-0.469,0.125,89.111,56.824,29.480
0.353,-0.379,0.222,82.092,21.423,17.029
0.184,-0.384,0.006,72.632,-6.409,7.874
-0.052,-0.282,-0.048,54.138,-9.521,0.793
-0.016,-0.105,0.078,34.607,5.920,-2.869
0.102,-0.082,0.019,23.621,15.991,-0.183
0.127,-0.014,0.035,11.780,25.085,4.211
0.153,0.150,0.096,4.089,31.860,3.418
0.175,0.225,0.114,4.089,33.630,1.404
0.195,0.272,0.138,7.324,32.166,-1.099
0.215,0.329,0.186,11.902,27.710,-3.052
0.223,0.368,0.226,16.602,20.691,-4.150
0.215,0.419,0.265,19.043,12.207,-4.089
0.182,0.445,0.285,17.822,3.540,-2.686
0.132,0.458,0.266,13.000,-2.563,-0.244
0.093,0.517,0.268,3.723,-3.479,2.869
0.063,0.590,0.267,-7.812,-1.587,7.629
0.040,0.663,0.257,-19.165,1.343,12.695
0.017,0.744,0.259,-27.222,5.920,15.381
0.011,0.815,0.265,-32.593,10.742,16.785
0.007,0.853,0.256,-34.973,13.916,18.005
-0.002,0.893,0.250,-35.522,15.381,18.677
-0.005,0.927,0.245,-33.875,15.564,18.250
-0.005,0.962,0.244,-31.372,15.198,16.296
0.009,0.978,0.254,-27.039,12.939,13.550
0.009,0.987,0.253,-22.095,7.812,10.376
0.002,0.989,0.251,-17.761,1.343,6.836
0.011,0.992,0.252,-13.977,-4.822,2.808
0.010,0.991,0.252,-10.864,-10.620,-2.380
0.021,0.984,0.257,-8.118,-15.076,-7.263
0.032,0.993,0.270,-5.859,-17.761,-10.864
0.027,0.995,0.280,-3.540,-19.104,-13.123
0.026,0.983,0.292,-0.549,-18.494,-14.587
0.029,0.966,0.306,1.831,-15.991,-15.198
0.036,0.955,0.322,3.174,-13.245,-16.235
0.025,0.939,0.328,4.150,-11.169,-18.066
0.043,0.934,0.343,4.761,-8.362,-19.714
0.087,0.943,0.378,4.822,-6.104,-19.592
0.149,0.916,0.396,4.944,-6.897,-16.907
0.174,0.880,0.380,3.845,-11.230,-13.367
0.118,0.877,0.342,0.244,-15.930,-10.498
0.048,0.896,0.310,-4.272,-16.052,-9.766
0.074,0.943,0.337,-6.653,-11.047,-11.353
0.106,0.900,0.315,-5.798,-7.690,-10.803
0.102,0.900,0.322,-5.371,-5.920,-10.315
0.098,0.912,0.332,-5.249,-6.042,-9.155
0.090,0.876,0.335,-4.578,-7.812,-9.033
0.083,0.875,0.354,-3.906,-10.254,-11.169
0.064,0.871,0.356,-3.235,-14.221,-13.062
0.032,0.867,0.352,-2.441,-18.677,-14.099
0.001,0.850,0.350,-1.221,-21.362,-15.320
-0.011,0.832,0.354,0.305,-22.400,-17.212
-0.007,0.816,0.366,0.793,-22.095,-19.409
0.000,0.798,0.372,0.244,-22.461,-20.996
-0.007,0.775,0.373,-1.221,-23.621,-22.278
-0.027,0.746,0.367,-3.479,-24.292,-23.987
-0.042,0.721,0.365,-5.676,-22.949,-25.635
-0.029,0.694,0.369,-7.812,-19.714,-26.550
-0.005,0.660,0.376,-10.010,-15.686,-26.917
0.025,0.627,0.385,-12.085,-12.512,-26.855
0.039,0.621,0.394,-15.198,-11.353,-26.978
0.046,0.622,0.406,-18.372,-11.841,-27.710
0.045,0.627,0.421,-20.935,-13.611,-28.870
0.050,0.622,0.438,-22.888,-16.663,-30.396
0.042,0.599,0.444,-25.940,-21.790,-32.288
0.013,0.576,0.448,-29.907,-27.893,-34.790
0.010,0.556,0.437,-35.156,-33.691,-37.415
0.009,0.557,0.422,-41.809,-40.222,-40.405
-0.001,0.543,0.400,-49.561,-47.729,-43.884
-0.020,0.536,0.360,-58.044,-55.115,-46.631
-0.069,0.548,0.305,-67.566,-59.265,-49.316
-0.113,0.559,0.247,-75.684,-56.885,-51.941
-0.098,0.574,0.208,-82.947,-47.852,-54.810
-0.032,0.594,0.198,-87.952,-36.194,-58.838
0.073,0.598,0.205,-90.027,-27.527,-63.538
0.194,0.602,0.215,-90.515,-26.001,-68.115
0.298,0.610,0.224,-90.332,-33.020,-72.449
0.377,0.593,0.219,-89.905,-48.340,-76.416
0.430,0.565,0.192,-89.844,-69.580,-80.139
0.459,0.563,0.158,-91.553,-93.079,-84.167
0.454,0.575,0.119,-92.773,-116.455,-89.294
0.436,0.598,0.077,-92.407,-136.169,-94.421
0.392,0.632,0.034,-90.210,-150.024,-98.816
0.336,0.644,0.002,-86.060,-156.006,-102.600
0.330,0.659,-0.010,-80.750,-153.198,-104.736
0.329,0.706,-0.015,-76.477,-145.325,-105.774

1.047,1.406,-0.940,16.541,100.220,-2.014
0.999,1.721,-1.398,19.836,140.320,2.747
1.108,2.097,-1.893,20.447,208.435,10.254
1.335,2.565,-2.490,22.644,301.819,19.958
1.840,2.972,-3.173,33.691,419.617,30.457
2.862,3.293,-3.838,50.598,549.255,53.467
3.893,3.390,-4.000,75.256,655.823,93.384
4.000,3.300,-4.000,111.084,714.111,151.306
4.000,3.102,-4.000,160.828,715.820,218.628
4.000,2.608,-4.000,237.610,671.814,270.752
4.000,1.580,-4.000,348.633,597.717,296.265
3.775,0.253,-4.000,462.280,510.681,294.006
3.328,-0.885,-3.834,536.987,426.636,273.071
2.736,-1.551,-3.128,572.449,353.516,245.361
2.211,-1.948,-2.634,583.801,299.744,221.130
1.916,-2.061,-2.173,571.960,272.827,193.176
1.988,-1.977,-1.731,547.119,267.700,160.400
2.228,-1.644,-1.298,514.282,263.550,131.104
2.430,-1.171,-0.879,479.126,241.516,109.985
2.515,-1.023,-0.610,449.219,194.397,97.778
2.387,-1.090,-0.546,420.349,131.226,93.872
2.121,-1.044,-0.588,381.958,75.745,95.947
1.807,-0.937,-0.702,336.243,43.701,107.849
1.521,-0.921,-0.840,290.039,39.185,118.286
1.320,-0.893,-0.885,248.108,55.847,120.056
1.150,-0.868,-0.844,212.524,79.102,117.676
0.939,-0.885,-0.837,185.791,98.572,110.291
0.527,-0.489,-0.585,167.603,118.774,107.239
0.443,-0.733,-0.690,172.363,132.446,126.343
0.315,-0.659,-0.437,179.016,142.761,115.723
0.160,-0.644,-0.268,187.561,138.123,92.712
0.276,-0.618,0.015,197.266,114.807,69.275
0.264,-0.567,0.185,202.820,75.684,46.204
0.069,-0.574,0.262,203.491,27.588,27.344
-0.105,-0.537,0.262,194.641,-9.033,12.939
-0.276,-0.403,0.349,179.016,-26.917,4.883
-0.302,-0.354,0.397,160.950,-31.494,8.301
-0.381,-0.386,0.383,142.273,-32.227,12.268
-0.471,-0.271,0.376,117.065,-20.508,7.812
-0.473,-0.168,0.415,95.398,-4.883,1.160
-0.373,-0.027,0.487,78.308,9.155,-7.080
-0.233,0.030,0.514,66.223,11.536,-11.292
-0.122,0.108,0.507,56.152,3.174,-14.954
-0.057,0.186,0.475,49.011,-10.376,-19.470
-0.020,0.268,0.432,43.152,-24.353,-24.292
-0.012,0.344,0.389,37.537,-34.241,-28.564
-0.011,0.411,0.337,32.532,-39.063,-30.701
-0.023,0.478,0.300,26.245,-37.170,-30.762
-0.019,0.537,0.261,19.775,-29.480,-28.137
-0.005,0.610,0.248,12.146,-16.479,-24.170
0.018,0.663,0.251,5.676,-3.235,-19.775
0.057,0.715,0.273,0.610,7.446,-16.724
0.100,0.786,0.299,-3.174,13.000,-14.282
0.125,0.802,0.305,-4.211,12.939,-9.766
0.095,0.813,0.293,-3.174,9.583,-5.676
0.037,0.836,0.290,-0.488,6.714,-4.639
-0.012,0.838,0.287,3.723,6.897,-5.676
-0.038,0.835,0.304,6.592,10.376,-8.057
-0.019,0.823,0.329,7.568,13.794,-9.155
-0.000,0.796,0.340,7.263,14.587,-8.728
-0.001,0.799,0.360,5.493,13.855,-10.132
0.019,0.821,0.385,3.357,12.390,-12.390
0.062,0.845,0.409,2.625,8.545,-13.855
0.105,0.867,0.425,3.479,2.136,-13.611
0.124,0.870,0.442,5.676,-5.493,-13.428
0.138,0.849,0.453,8.545,-13.123,-14.893
0.127,0.859,0.468,10.620,-20.813,-18.372
0.125,0.873,0.478,11.597,-27.527,-20.081
0.111,0.848,0.471,12.390,-32.410,-18.921
0.082,0.832,0.467,12.146,-34.546,-18.433
0.070,0.831,0.473,11.230,-33.691,-18.616
0.068,0.844,0.484,9.888,-30.640,-17.822
0.063,0.833,0.489,8.606,-26.855,-15.869
0.070,0.809,0.490,6.531,-22.583,-13.489
0.067,0.793,0.485,3.235,-18.433,-12.085
0.074,0.786,0.482,-1.160,-14.954,-10.864
0.083,0.775,0.477,-5.615,-13.306,-9.338
0.088,0.765,0.468,-9.155,-14.526,-8.484
0.083,0.756,0.451,-12.146,-18.555,-8.728
0.072,0.764,0.437,-13.672,-24.414,-10.315
0.070,0.770,0.427,-13.062,-31.372,-12.695
0.065,0.785,0.425,-11.414,-39.490,-15.869
0.026,0.797,0.417,-8.301,-48.706,-19.470
-0.030,0.783,0.399,-4.456,-55.603,-22.522
-0.062,0.760,0.400,-2.380,-56.152,-24.841
-0.048,0.732,0.418,-1.892,-52.551,-27.344
-0.035,0.717,0.431,-3.479,-48.462,-29.724
-0.053,0.705,0.432,-7.202,-44.617,-31.433
-0.038,0.703,0.439,-11.536,-38.696,-31.372
0.009,0.689,0.455,-16.296,-32.166,-31.250
0.084,0.667,0.468,-21.790,-29.541,-30.945
0.152,0.658,0.479,-26.733,-32.959,-31.433
0.195,0.653,0.475,-30.212,-42.603,-33.142
0.235,0.658,0.467,-31.921,-58.105,-36.377
0.281,0.671,0.461,-31.860,-78.857,-40.283
0.291,0.647,0.425,-30.212,-104.553,-44.922
0.197,0.642,0.359,-29.297,-131.165,-50.415
0.111,0.643,0.307,-28.137,-149.292,-55.603
0.059,0.623,0.268,-27.161,-157.166,-59.387
0.039,0.572,0.246,-26.428,-157.776,-63.843
0.058,0.529,0.254,-27.100,-154.846,-69.031
0.097,0.480,0.275,-28.198,-152.466,-74.219
0.134,0.450,0.288,-30.457,-152.954,-79.041
0.160,0.472,0.296,-33.447,-156.555,-84.045
0.177,0.486,0.304,-36.621,-163.208,-89.722
0.181,0.496,0.287,-39.246,-171.692,-95.337
0.165,0.571,0.276,-41.748,-180.725,-101.440
0.161,0.629,0.258,-44.800,-188.721,-107.910
0.143,0.634,0.221,-47.363,-196.045,-113.586
0.120,0.620,0.183,-50.110,-200.623,-118.774
0.110,0.587,0.144,-54.504,-201.599,-123.474
0.115,0.571,0.114,-60.120,-199.585,-127.319
0.128,0.598,0.104,-65.125,-195.496,-131.409
0.119,0.660,0.100,-67.383,-190.063,-136.841
0.115,0.695,0.103,-65.247,-182.007,-141.785
0.111,0.739,0.100,-59.265,-171.143,-144.470
0.105,0.819,0.118,-51.758,-157.166,-145.081
0.134,0.830,0.134,-44.312,-141.296,-142.151
0.171,0.808,0.131,-38.086,-126.099,-137.756

1.926,0.673,-0.748,64.026,191.345,18.005
2.078,0.881,-0.866,70.435,184.082,35.889
2.152,1.117,-1.095,81.177,167.786,55.481
2.190,1.378,-1.465,95.032,155.945,72.021
2.231,1.626,-1.889,110.596,163.452,87.524
2.423,1.862,-2.356,124.695,197.876,109.436
2.885,2.140,-2.885,137.024,251.099,137.146
3.668,2.479,-3.320,149.475,307.922,171.387
4.000,2.828,-3.686,167.786,336.975,213.928
4.000,3.053,-3.922,199.951,319.214,259.155
4.000,2.897,-4.000,247.559,262.207,311.340
4.000,2.289,-4.000,307.800,198.608,363.770
3.985,1.383,-4.000,365.112,164.734,404.297
3.664,0.494,-4.000,409.241,170.288,433.716
3.481,-0.467,-3.822,444.763,198.669,453.430
3.416,-1.167,-3.313,467.224,233.704,458.191
3.259,-1.633,-2.738,483.337,259.766,452.332
3.016,-1.992,-2.161,498.230,269.897,439.697
2.677,-2.147,-1.666,503.418,261.780,412.170
2.312,-2.149,-1.209,497.070,239.136,373.230
1.977,-2.054,-0.818,481.873,210.144,330.322
1.633,-1.869,-0.519,458.130,177.979,290.283
1.327,-1.700,-0.282,427.612,149.719,254.639
1.011,-1.510,-0.084,390.686,128.113,219.727
0.844,-1.371,-0.012,349.182,115.540,185.242
0.766,-1.259,-0.016,303.406,109.253,153.198
0.773,-1.185,-0.062,257.446,107.605,126.648
0.757,-1.169,-0.150,216.309,105.408,104.980
0.654,-1.068,-0.278,183.533,104.492,84.778
0.603,-0.765,-0.239,162.903,108.826,66.895
0.496,-0.851,-0.371,159.363,104.675,60.913
0.470,-0.852,-0.402,160.095,96.558,52.063
0.548,-0.835,-0.447,159.302,89.905,43.823
0.637,-0.657,-0.214,157.837,73.853,36.560
0.365,-0.795,-0.334,151.978,43.518,32.593
0.264,-0.621,-0.199,140.991,22.095,17.700
-0.077,-0.543,-0.408,131.470,9.949,-2.014
0.155,-0.274,0.193,120.300,19.165,-18.188
0.028,-0.437,-0.224,114.014,11.597,-23.499
-0.028,-0.238,0.126,98.206,27.161,-25.574
0.052,-0.177,0.026,88.623,37.354,-25.024
0.174,-0.157,0.175,81.970,44.312,-24.109
0.167,-0.045,0.228,72.876,46.814,-23.987
0.177,0.109,0.281,65.735,43.762,-24.475
0.225,0.183,0.345,62.317,35.522,-22.583
0.263,0.208,0.345,59.387,21.851,-20.630
0.224,0.287,0.377,53.650,7.568,-21.423
0.159,0.360,0.361,46.997,-5.859,-24.170
0.114,0.418,0.363,40.222,-14.465,-26.978
0.090,0.476,0.362,31.555,-16.357,-28.076
0.104,0.550,0.378,21.606,-14.526,-27.649
0.116,0.599,0.366,12.146,-12.817,-25.879
0.128,0.646,0.351,3.540,-10.193,-22.522
0.153,0.690,0.339,-3.113,-7.568,-18.555
0.164,0.714,0.318,-7.324,-5.676,-15.320
0.156,0.744,0.300,-9.644,-3.845,-12.939
0.153,0.784,0.290,-10.620,-0.977,-10.559
0.154,0.810,0.287,-9.644,2.258,-9.094
0.155,0.820,0.294,-7.629,4.700,-9.338
0.146,0.818,0.306,-4.700,5.005,-11.536
0.146,0.812,0.322,-2.136,3.601,-14.587
0.147,0.800,0.342,0.366,0.671,-17.639
0.133,0.794,0.358,2.441,-2.808,-21.301
0.116,0.811,0.385,4.395,-5.432,-22.827
0.120,0.826,0.425,6.042,-6.592,-21.362
0.131,0.833,0.464,6.714,-7.935,-19.836
0.163,0.819,0.488,6.470,-9.766,-18.677
0.177,0.803,0.509,3.845,-12.024,-18.555
0.189,0.816,0.542,0.427,-14.954,-20.630
0.226,0.797,0.556,-2.869,-19.897,-22.949
0.260,0.742,0.546,-6.409,-26.855,-24.292
0.284,0.733,0.549,-10.681,-34.424,-25.940
0.287,0.704,0.533,-14.099,-43.579,-26.672
0.296,0.692,0.525,-16.968,-53.223,-28.809
0.261,0.675,0.484,-19.470,-63.904,-32.715
0.224,0.692,0.450,-22.339,-70.862,-35.950
0.210,0.697,0.426,-25.391,-72.083,-36.621
0.199,0.692,0.404,-28.320,-70.190,-36.377
0.178,0.686,0.382,-31.189,-66.528,-36.560
0.158,0.697,0.363,-33.447,-60.181,-36.621
0.162,0.705,0.350,-35.828,-50.781,-34.851
0.179,0.703,0.343,-39.490,-40.283,-32.043
0.201,0.710,0.343,-43.457,-31.250,-30.090
0.219,0.719,0.338,-47.363,-25.024,-29.663
0.251,0.722,0.336,-50.110,-20.935,-30.029
0.293,0.713,0.332,-51.575,-19.714,-30.823
0.340,0.710,0.334,-52.612,-22.461,-32.654
0.377,0.713,0.337,-54.260,-29.724,-34.973
0.384,0.741,0.324,-55.542,-41.443,-37.537
0.375,0.792,0.307,-55.420,-55.176,-40.161
0.348,0.831,0.280,-52.673,-68.420,-42.419
0.313,0.838,0.255,-47.607,-78.430,-44.128
0.294,0.832,0.243,-42.053,-83.923,-44.861
0.275,0.810,0.234,-38.147,-86.121,-44.861
0.279,0.780,0.234,-36.438,-85.754,-44.556
0.295,0.769,0.232,-36.438,-84.961,-45.044
0.313,0.813,0.234,-38.696,-85.510,-46.570
0.334,0.832,0.231,-41.565,-87.708,-47.302
0.353,0.854,0.223,-43.823,-91.797,-47.302
0.378,0.874,0.220,-46.021,-97.778,-47.913
0.385,0.875,0.202,-47.119,-106.140,-49.255
0.376,0.857,0.168,-47.241,-115.784,-50.232
0.352,0.820,0.128,-47.363,-123.779,-50.415
0.326,0.845,0.100,-47.058,-129.028,-50.842
0.312,0.870,0.087,-45.105,-131.165,-51.697
0.305,0.843,0.073,-41.504,-132.324,-52.124
0.307,0.832,0.070,-37.964,-132.935,-53.833
0.319,0.841,0.086,-34.790,-133.911,-56.946
0.328,0.823,0.106,-31.677,-136.292,-60.974
0.335,0.842,0.122,-29.175,-140.686,-65.491
0.305,0.892,0.143,-27.222,-145.996,-71.472
0.278,0.876,0.154,-25.513,-150.085,-77.087
0.264,0.861,0.160,-25.513,-152.161,-80.017
0.245,0.845,0.161,-28.320,-152.710,-81.482
0.236,0.819,0.155,-32.288,-151.367,-81.909
0.229,0.766,0.139,-37.292,-149.048,-81.604
0.183,0.736,0.108,-43.579,-145.325,-82.031
0.128,0.733,0.100,-48.950,-137.573,-83.008
0.084,0.714,0.096,-51.514,-125.305,-83.801

1.050,1.248,-0.602,18.982,44.495,25.696
1.152,1.422,-0.628,26.001,77.820,36.377
1.322,1.588,-0.635,34.973,104.614,47.424
1.578,1.741,-0.678,45.471,121.765,60.669
1.854,1.868,-0.782,56.580,126.648,73.730
2.000,1.975,-0.929,68.359,121.033,85.571
2.171,2.035,-1.127,82.458,114.380,98.999
2.399,2.151,-1.393,96.863,116.638,113.708
2.522,2.335,-1.688,111.694,137.817,128.052
2.848,2.364,-2.099,129.272,183.899,144.775
3.410,2.243,-2.650,146.179,251.160,163.635
3.964,2.084,-3.216,157.654,332.153,185.120
4.000,1.955,-3.612,163.513,409.668,223.450
4.000,1.818,-3.940,181.519,462.769,269.226
4.000,1.451,-4.000,225.525,485.779,305.786
4.000,0.890,-4.000,289.917,490.356,328.918
4.000,0.221,-4.000,359.924,488.708,346.619
4.000,-0.481,-4.000,423.523,474.182,362.061
4.000,-1.162,-3.847,478.821,436.279,365.601
3.928,-1.766,-3.135,523.499,370.911,351.318
3.368,-2.222,-2.315,550.964,284.180,327.209
2.835,-2.507,-1.542,558.105,191.345,297.363
2.281,-2.674,-0.941,544.373,109.192,268.005
1.683,-2.616,-0.431,506.409,54.443,248.901
1.165,-2.509,-0.110,455.017,31.616,237.366
0.827,-2.458,0.048,394.165,33.569,226.440
0.611,-2.323,0.221,328.430,49.622,210.632
0.584,-2.181,0.342,267.578,66.223,188.721
0.593,-1.973,0.408,216.309,72.266,164.612
0.586,-1.760,0.402,177.063,66.650,141.418
0.476,-1.547,0.309,151.917,55.908,115.479
0.252,-1.259,0.275,140.381,51.025,91.553
0.185,-1.164,0.152,142.456,52.917,77.393
0.109,-1.015,0.195,147.461,64.636,59.204
-0.020,-0.889,0.245,153.687,76.233,38.574
-0.020,-0.925,0.282,158.752,82.947,18.127
0.018,-0.920,0.384,153.809,88.806,-2.258
0.156,-0.752,0.542,135.925,87.280,-16.235
0.211,-0.667,0.559,108.459,65.186,-13.489
0.149,-0.575,0.552,76.782,35.522,-12.207
-0.004,-0.308,0.489,48.157,15.198,-19.287
-0.039,-0.194,0.434,29.419,4.578,-24.414
-0.046,-0.061,0.366,18.494,4.089,-31.677
0.051,0.104,0.381,13.184,9.033,-37.781
0.127,0.098,0.293,13.184,10.071,-39.917
0.204,0.233,0.282,12.878,11.719,-43.945
0.250,0.270,0.250,12.756,9.949,-45.044
0.311,0.313,0.186,10.315,8.484,-46.021
0.363,0.390,0.152,4.822,6.958,-43.396
0.367,0.477,0.116,-1.038,4.517,-39.673
0.377,0.541,0.085,-4.456,2.991,-35.095
0.366,0.619,0.063,-5.554,2.258,-30.029
0.318,0.688,0.040,-4.333,3.479,-26.001
0.301,0.748,0.045,-1.770,8.240,-21.606
0.307,0.770,0.072,1.709,14.709,-17.456
0.295,0.774,0.105,5.249,19.714,-15.686
0.283,0.781,0.150,9.155,22.888,-15.503
0.296,0.777,0.198,13.367,24.597,-14.526
0.304,0.772,0.251,16.785,24.414,-13.489
0.321,0.766,0.297,18.433,22.095,-13.306
0.343,0.752,0.333,17.944,16.968,-11.841
0.348,0.736,0.353,15.747,9.094,-9.827
0.355,0.729,0.367,11.536,0.366,-9.155
0.362,0.717,0.378,6.531,-8.606,-9.949
0.350,0.710,0.374,1.648,-18.616,-11.597
0.333,0.732,0.367,-2.808,-28.687,-14.587
0.300,0.766,0.353,-5.920,-37.415,-16.907
0.266,0.777,0.335,-7.263,-43.762,-16.907
0.310,0.786,0.352,-7.446,-46.570,-14.587
0.337,0.750,0.354,-8.240,-49.011,-10.803
0.323,0.722,0.345,-10.803,-51.636,-9.277
0.280,0.686,0.323,-14.343,-53.101,-10.010
0.301,0.754,0.385,-19.409,-51.636,-14.221
0.316,0.693,0.359,-23.987,-55.298,-15.442
0.357,0.698,0.394,-28.748,-60.120,-16.174
0.355,0.667,0.372,-34.729,-67.749,-17.395
0.321,0.650,0.358,-41.626,-77.209,-18.738
0.273,0.653,0.338,-49.438,-84.778,-21.606
0.256,0.657,0.309,-58.105,-89.783,-23.865
0.255,0.658,0.290,-65.613,-93.201,-26.001
0.253,0.635,0.270,-71.167,-96.436,-28.687
0.243,0.625,0.242,-74.524,-99.243,-32.104
0.238,0.703,0.243,-75.867,-100.342,-36.621
0.235,0.740,0.242,-73.242,-101.685,-40.955
0.263,0.719,0.229,-68.970,-103.516,-43.213
0.276,0.726,0.236,-66.528,-105.713,-45.715
0.295,0.742,0.250,-65.491,-109.619,-50.171
0.316,0.674,0.240,-64.880,-116.272,-54.688
0.349,0.618,0.223,-67.383,-123.901,-60.303
0.350,0.569,0.192,-73.486,-132.935,-65.125
0.314,0.539,0.154,-80.322,-140.808,-69.702
0.280,0.546,0.135,-84.473,-143.433,-73.120
0.260,0.604,0.140,-85.327,-142.029,-76.904
0.286,0.654,0.155,-83.130,-138.550,-81.909
0.348,0.648,0.168,-80.017,-137.085,-87.585
0.429,0.641,0.169,-78.186,-140.320,-93.689
0.481,0.709,0.174,-80.505,-148.560,-99.854
0.488,0.743,0.157,-84.106,-160.828,-105.469
0.465,0.699,0.094,-87.463,-173.157,-110.352
0.430,0.656,0.020,-92.712,-180.298,-114.441
0.377,0.643,-0.036,-99.304,-180.420,-117.371
0.327,0.630,-0.087,-104.675,-174.072,-119.263
0.294,0.643,-0.123,-108.643,-161.926,-122.192
0.276,0.705,-0.147,-110.107,-145.935,-126.587
0.251,0.759,-0.174,-108.276,-127.991,-132.141
0.248,0.817,-0.204,-104.370,-108.032,-137.329
0.273,0.873,-0.230,-100.891,-87.036,-140.198
0.323,0.877,-0.252,-99.548,-66.528,-141.174
0.389,0.854,-0.267,-100.037,-48.035,-142.273
0.469,0.823,-0.272,-103.149,-33.203,-144.104
0.543,0.802,-0.273,-107.544,-23.010,-146.057
0.608,0.794,-0.270,-111.267,-17.456,-147.339
0.667,0.792,-0.267,-112.427,-14.954,-148.560
0.723,0.797,-0.266,-111.755,-13.489,-149.597
0.757,0.809,-0.261,-109.741,-13.000,-150.146
0.792,0.811,-0.247,-106.445,-13.000,-149.536
0.821,0.802,-0.233,-103.088,-14.465,-147.522
0.832,0.790,-0.221,-100.769,-18.616,-144.104
0.806,0.770,-0.219,-99.792,-25.146,-139.709

0.537,1.455,-1.169,22.156,148.071,-5.615
0.653,1.744,-1.452,25.879,195.923,0.854
0.900,2.039,-1.795,32.104,245.056,8.240
1.162,2.425,-2.218,39.063,290.833,14.282
1.570,2.908,-2.738,47.424,337.708,19.775
2.242,3.312,-3.296,61.218,387.207,29.541
3.112,3.563,-3.894,79.590,430.664,48.706
3.802,3.574,-4.000,99.487,450.684,84.167
4.000,3.365,-4.000,126.770,445.679,133.240
4.000,3.029,-4.000,170.715,427.917,179.810
4.000,2.485,-4.000,240.540,400.452,209.290
4.000,1.625,-4.000,336.060,353.577,226.074
4.000,0.540,-4.000,433.472,288.574,238.953
3.860,-0.459,-3.973,506.775,221.985,247.681
3.201,-1.321,-3.563,548.950,169.006,251.282
2.642,-1.904,-2.986,562.256,142.090,245.361
2.290,-2.198,-2.415,555.664,132.751,236.145
1.977,-2.347,-1.966,539.917,128.174,223.694
1.749,-2.251,-1.511,510.437,125.977,201.538
1.658,-1.995,-1.092,476.624,121.155,175.293
1.704,-1.781,-0.746,445.618,110.413,148.865
1.695,-1.756,-0.543,416.138,91.003,127.197
1.618,-1.732,-0.392,383.301,67.566,115.234
1.493,-1.597,-0.282,350.952,47.546,111.389
1.305,-1.512,-0.253,322.693,32.166,111.145
1.023,-1.501,-0.267,296.387,22.949,107.666
0.764,-1.423,-0.283,268.921,23.254,100.342
0.564,-1.286,-0.243,242.859,35.217,92.712
0.427,-1.143,-0.180,220.337,51.331,86.975
0.348,-1.066,-0.141,201.599,65.063,83.130
0.294,-0.974,-0.075,183.411,77.271,76.111
0.265,-0.805,0.001,166.809,85.083,66.711
0.221,-0.715,0.062,153.442,85.205,60.669
0.127,-0.642,0.066,142.639,78.613,52.429
0.042,-0.541,0.094,133.179,73.730,39.246
0.233,-0.268,0.256,126.160,68.909,24.536
0.104,-0.354,0.132,123.535,46.875,19.470
0.110,-0.290,0.233,112.732,31.128,12.451
0.016,-0.197,0.110,101.807,17.822,6.409
-0.113,-0.057,0.182,87.830,17.822,1.465
-0.009,0.046,0.221,74.097,20.630,4.883
-0.009,0.052,0.215,62.683,18.311,10.620
-0.026,0.206,0.297,50.171,18.494,10.437
-0.010,0.357,0.348,42.175,15.137,9.521
-0.003,0.371,0.368,37.842,7.812,7.996
0.011,0.391,0.381,32.715,-0.977,3.784
0.045,0.455,0.398,27.039,-10.803,-1.648
0.059,0.506,0.394,21.301,-22.827,-6.409
-0.002,0.565,0.356,16.235,-33.997,-11.047
-0.020,0.643,0.342,12.512,-36.194,-12.512
-0.003,0.693,0.328,8.850,-30.212,-9.338
-0.009,0.724,0.306,5.005,-19.714,-5.188
0.002,0.761,0.298,1.404,-5.981,-0.610
0.033,0.775,0.292,-2.319,8.850,5.615
0.055,0.771,0.290,-5.981,22.705,10.803
0.066,0.770,0.292,-9.705,33.630,14.038
0.086,0.784,0.296,-12.329,41.138,16.418
0.087,0.814,0.314,-13.062,44.922,17.029
0.117,0.822,0.344,-11.047,45.166,16.907
0.150,0.800,0.370,-7.568,40.955,16.418
0.162,0.780,0.401,-3.723,32.471,13.428
0.175,0.761,0.433,-0.244,20.325,7.812
0.185,0.749,0.452,2.563,5.310,1.587
0.181,0.757,0.472,4.150,-10.193,-4.456
0.153,0.778,0.474,5.249,-25.696,-10.193
0.109,0.794,0.460,4.761,-37.903,-14.404
0.051,0.800,0.437,3.174,-44.495,-16.724
0.017,0.796,0.414,1.221,-43.091,-17.944
0.006,0.787,0.402,-1.648,-35.400,-18.982
0.029,0.796,0.403,-4.639,-24.109,-19.287
0.065,0.810,0.410,-7.263,-12.634,-19.104
0.089,0.816,0.411,-9.827,-3.052,-18.677
0.134,0.818,0.415,-12.329,4.578,-17.334
0.177,0.805,0.420,-14.893,9.216,-15.808
0.222,0.785,0.421,-17.761,9.216,-16.113
0.257,0.764,0.419,-20.508,4.700,-17.944
0.277,0.750,0.408,-22.766,-3.113,-20.935
0.297,0.743,0.399,-23.499,-12.939,-24.170
0.299,0.744,0.386,-22.949,-24.353,-27.161
0.241,0.755,0.358,-21.912,-35.461,-29.968
0.206,0.766,0.329,-20.325,-42.114,-30.945
0.179,0.769,0.317,-18.982,-43.579,-30.518
0.169,0.765,0.313,-18.066,-41.626,-30.579
0.172,0.755,0.314,-18.555,-39.124,-30.701
0.162,0.753,0.313,-19.531,-37.292,-31.250
0.163,0.741,0.310,-20.569,-35.645,-31.799
0.177,0.730,0.323,-21.301,-34.363,-32.715
0.213,0.713,0.337,-21.545,-34.851,-34.302
0.245,0.707,0.356,-21.362,-38.635,-36.804
0.276,0.710,0.375,-20.752,-46.143,-40.222
0.333,0.699,0.386,-19.165,-56.946,-43.579
0.384,0.681,0.393,-18.494,-71.777,-46.631
0.383,0.684,0.376,-18.799,-90.515,-50.354
0.317,0.690,0.336,-19.287,-109.619,-53.711
0.256,0.703,0.306,-19.531,-123.108,-55.481
0.201,0.679,0.286,-18.738,-129.089,-56.946
0.190,0.636,0.280,-17.883,-130.493,-60.120
0.206,0.596,0.290,-17.517,-131.531,-64.392
0.241,0.549,0.307,-18.311,-135.132,-68.787
0.276,0.483,0.307,-19.958,-143.433,-73.120
0.260,0.435,0.295,-23.437,-154.968,-78.430
0.215,0.436,0.280,-27.100,-165.222,-85.144
0.209,0.485,0.288,-30.457,-171.631,-93.140
0.237,0.518,0.300,-32.654,-176.697,-101.257
0.255,0.569,0.302,-33.813,-183.594,-108.215
0.275,0.587,0.285,-33.508,-191.711,-112.366
0.333,0.574,0.268,-35.034,-200.073,-113.586
0.339,0.550,0.226,-37.659,-209.473,-113.953
0.299,0.530,0.184,-40.344,-216.858,-115.601
0.264,0.508,0.151,-41.870,-218.872,-118.164
0.208,0.492,0.122,-41.565,-215.393,-121.948
0.166,0.498,0.109,-40.466,-204.956,-127.258
0.133,0.544,0.116,-38.391,-187.805,-132.629
0.124,0.640,0.151,-34.119,-166.321,-136.658
0.118,0.729,0.192,-26.978,-142.761,-137.817
0.120,0.727,0.219,-19.470,-119.019,-137.695
0.134,0.653,0.235,-14.587,-94.421,-137.329
0.184,0.568,0.249,-15.015,-70.435,-138.611
0.262,0.507,0.260,-22.095,-49.133,-141.418

1.504,1.328,-0.791,67.017,183.716,11.047
1.615,1.582,-1.068,74.829,208.435,15.808
1.815,1.802,-1.376,80.017,243.286,32.349
2.066,2.012,-1.745,82.886,281.799,59.570
2.351,2.282,-2.157,85.449,315.430,89.417
2.649,2.726,-2.589,92.957,339.233,119.263
3.005,3.150,-3.093,112.610,356.384,146.790
3.530,3.376,-3.459,146.973,373.840,175.903
4.000,3.308,-3.636,192.993,385.376,206.299
4.000,2.959,-3.881,246.399,371.155,239.441
4.000,2.512,-4.000,297.302,327.820,274.597
4.000,1.950,-4.000,345.886,273.010,312.073
4.000,1.256,-4.000,396.301,229.736,353.699
4.000,0.506,-4.000,446.777,216.675,394.348
3.931,-0.290,-4.000,493.164,237.915,428.833
3.441,-1.156,-4.000,530.701,281.372,446.472
3.350,-1.802,-3.950,560.059,327.942,435.059
3.279,-2.103,-3.333,582.581,345.032,403.503
2.913,-2.177,-2.669,588.440,319.885,364.441
2.420,-2.257,-1.971,580.139,267.090,317.200
1.930,-2.195,-1.347,568.054,202.332,263.000
1.675,-1.998,-0.720,551.819,139.221,201.538
1.657,-2.049,-0.272,527.405,73.059,147.949
1.462,-1.972,-0.052,485.046,-2.380,110.352
0.950,-1.747,-0.055,427.551,-74.036,82.947
0.346,-1.614,-0.170,367.310,-120.911,64.087
0.081,-1.547,-0.300,310.791,-133.179,53.894
-0.261,-1.270,-0.536,255.859,-108.337,49.500
-0.718,-1.140,-0.537,207.642,-40.039,60.669
-0.529,-1.057,-0.754,171.021,31.006,71.228
-0.240,-0.902,-0.570,143.494,114.380,68.298
0.127,-0.960,-0.515,126.038,169.983,63.232
0.417,-0.901,-0.422,113.525,191.406,47.180
0.694,-0.661,-0.213,102.905,179.687,32.349
0.697,-0.701,-0.382,95.154,130.493,25.513
0.634,-0.541,-0.300,83.008,88.257,15.564
0.377,-0.473,-0.457,72.449,50.354,8.789
0.152,-0.314,-0.417,64.026,38.452,-1.160
0.215,-0.127,-0.214,59.082,40.222,-4.944
0.157,-0.199,-0.248,54.688,37.476,-1.099
0.145,-0.104,-0.102,46.082,40.344,1.526
0.105,-0.032,0.010,36.987,40.466,7.935
0.073,0.030,0.128,28.320,43.030,8.301
0.099,0.123,0.255,22.705,44.739,4.822
0.165,0.191,0.373,18.555,41.443,0.061
0.249,0.224,0.452,15.259,31.372,-5.249
0.315,0.254,0.512,12.695,15.808,-12.268
0.339,0.307,0.549,10.498,-3.601,-19.592
0.325,0.377,0.553,8.606,-23.376,-25.940
0.264,0.447,0.520,7.141,-39.368,-30.212
0.168,0.521,0.478,6.165,-47.119,-30.273
0.104,0.584,0.468,5.371,-43.640,-26.733
0.094,0.631,0.486,3.967,-31.616,-20.020
0.107,0.631,0.495,-0.977,-17.517,-9.949
0.114,0.608,0.497,-10.376,-4.150,0.671
0.114,0.627,0.502,-22.095,8.118,7.568
0.112,0.642,0.501,-33.386,17.822,10.437
0.111,0.659,0.500,-41.443,23.621,9.827
0.123,0.691,0.505,-45.410,24.902,6.287
0.137,0.709,0.516,-45.044,21.423,0.793
0.158,0.721,0.529,-41.687,13.245,-5.493
0.160,0.702,0.528,-36.865,0.732,-12.695
0.154,0.691,0.520,-33.630,-13.062,-19.409
0.099,0.693,0.495,-32.043,-26.672,-25.757
0.045,0.670,0.461,-30.823,-34.790,-31.006
0.030,0.649,0.450,-30.945,-34.668,-34.241
0.048,0.622,0.441,-32.776,-30.090,-37.109
0.088,0.617,0.448,-35.950,-23.682,-39.063
0.146,0.632,0.464,-41.077,-17.700,-38.452
0.181,0.652,0.468,-45.959,-15.442,-36.804
0.202,0.661,0.461,-50.842,-16.235,-35.645
0.208,0.684,0.438,-55.237,-19.165,-36.316
0.196,0.715,0.399,-58.716,-22.217,-38.391
0.201,0.728,0.357,-61.768,-23.315,-38.757
0.208,0.719,0.312,-65.002,-21.729,-38.025
0.237,0.720,0.283,-67.627,-18.921,-37.720
0.280,0.726,0.260,-70.251,-16.968,-37.720
0.321,0.722,0.240,-72.144,-17.639,-38.086
0.348,0.697,0.208,-73.120,-21.606,-39.063
0.320,0.670,0.156,-73.059,-27.771,-40.833
0.284,0.680,0.120,-72.754,-31.006,-41.565
0.281,0.699,0.118,-71.106,-30.945,-41.138
0.304,0.681,0.123,-68.481,-30.151,-39.185
0.324,0.674,0.139,-66.467,-30.457,-37.354
0.316,0.674,0.150,-65.247,-32.776,-37.537
0.327,0.646,0.161,-65.796,-36.438,-40.894
0.381,0.632,0.174,-69.336,-42.725,-45.349
0.385,0.582,0.136,-74.280,-54.138,-48.584
0.347,0.567,0.102,-80.261,-65.063,-52.856
0.341,0.550,0.077,-86.182,-72.205,-56.458
0.341,0.530,0.060,-90.637,-76.599,-60.303
0.361,0.522,0.046,-93.872,-79.590,-65.674
0.382,0.541,0.025,-95.215,-83.191,-70.740
0.411,0.598,0.013,-95.154,-87.708,-74.158
0.437,0.615,-0.000,-93.201,-93.079,-76.355
0.452,0.631,-0.014,-91.492,-100.220,-78.369
0.472,0.668,-0.021,-91.003,-109.192,-80.261
0.473,0.678,-0.046,-91.553,-119.812,-82.886
0.469,0.650,-0.092,-92.102,-130.371,-87.219
0.469,0.622,-0.139,-93.811,-138.794,-93.384
0.466,0.595,-0.183,-96.497,-144.653,-100.647
0.483,0.566,-0.219,-99.792,-147.278,-107.605
0.495,0.553,-0.255,-103.027,-148.254,-113.586
0.502,0.569,-0.288,-105.835,-147.156,-119.141
0.530,0.665,-0.294,-106.323,-144.165,-124.512
0.585,0.777,-0.282,-103.394,-140.137,-128.662
0.649,0.873,-0.272,-96.924,-136.475,-130.005
0.748,0.912,-0.244,-89.905,-133.911,-128.784
0.864,0.883,-0.226,-84.717,-134.827,-125.000
0.973,0.833,-0.213,-84.290,-141.663,-120.789
1.059,0.786,-0.206,-87.402,-154.968,-119.263
1.113,0.735,-0.224,-91.492,-173.828,-120.789
1.099,0.708,-0.256,-95.886,-194.763,-124.817
1.023,0.734,-0.280,-99.915,-212.402,-129.150
0.922,0.811,-0.286,-99.548,-221.436,-133.301
0.823,0.880,-0.260,-94.727,-219.055,-135.620
0.752,0.876,-0.224,-85.205,-206.543,-134.460
0.735,0.835,-0.191,-76.721,-186.646,-129.028
0.748,0.799,-0.156,-72.571,-164.795,-120.728

1.358,1.000,-0.882,39.856,142.944,-22.766
1.537,1.308,-1.153,55.847,177.368,-15.930
1.824,1.569,-1.518,70.129,221.436,-3.357
2.113,1.828,-1.964,78.979,269.043,18.616
2.443,2.121,-2.412,83.801,317.139,50.903
2.770,2.413,-2.870,91.431,359.375,89.844
2.988,2.717,-3.320,108.521,389.404,127.930
3.151,2.929,-3.682,140.808,415.833,161.865
3.282,2.971,-3.874,189.880,441.345,197.937
3.435,2.688,-4.000,251.892,461.121,235.901
3.487,2.222,-4.000,313.660,467.651,270.691
3.363,1.742,-3.852,367.187,456.177,294.556
3.170,1.112,-3.748,417.419,425.049,305.115
2.887,0.405,-3.683,455.811,384.583,302.856
2.531,-0.171,-3.393,478.088,343.506,291.870
2.167,-0.800,-3.072,498.352,301.514,272.156
1.873,-1.287,-2.831,509.277,264.587,239.319
1.583,-1.398,-2.477,502.075,235.352,199.829
1.413,-1.423,-2.063,489.075,210.144,163.940
1.403,-1.479,-1.594,478.027,186.707,130.066
1.525,-1.468,-1.087,463.074,156.067,96.802
1.622,-1.472,-0.593,445.374,111.328,69.214
1.533,-1.543,-0.237,424.500,49.072,49.927
1.240,-1.496,-0.047,397.156,-21.912,39.185
0.817,-1.257,0.055,362.122,-83.130,39.795
0.458,-1.111,0.027,323.364,-120.728,51.392
0.151,-1.130,-0.089,278.625,-130.005,60.059
-0.119,-1.098,-0.160,225.647,-108.093,57.007
-0.226,-1.044,-0.198,168.030,-64.514,48.035
-0.083,-0.917,-0.217,114.502,-15.076,33.325
0.086,-0.782,-0.218,72.083,28.076,19.348
0.147,-0.634,-0.188,42.969,57.007,7.507
0.190,-0.490,-0.152,29.297,70.496,0.244
0.232,-0.356,-0.093,30.457,74.158,-2.869
0.324,-0.318,0.008,41.992,69.336,-4.272
0.351,-0.266,0.079,58.289,54.138,-8.850
0.328,-0.246,0.147,72.449,33.264,-12.390
0.308,-0.257,0.149,79.468,12.329,-14.343
0.234,-0.240,0.149,74.951,-3.174,-16.907
0.188,-0.194,0.149,60.486,-11.230,-17.700
0.179,-0.118,0.172,39.368,-13.428,-18.982
0.180,0.002,0.199,17.090,-13.428,-20.569
0.178,0.109,0.196,-1.587,-13.306,-21.301
0.182,0.226,0.185,-15.076,-11.963,-22.766
0.175,0.380,0.150,-22.583,-10.132,-25.635
0.203,0.464,0.112,-23.682,-8.118,-27.039
0.234,0.525,0.080,-20.508,-6.958,-29.236
0.272,0.597,0.077,-14.648,-6.348,-32.104
0.325,0.645,0.081,-8.118,-6.714,-33.997
0.375,0.674,0.090,-1.770,-8.667,-34.912
0.393,0.708,0.096,2.441,-11.414,-35.522
0.399,0.733,0.098,4.028,-14.038,-34.973
0.401,0.747,0.096,2.930,-15.198,-32.471
0.386,0.763,0.089,-1.038,-14.954,-27.039
0.353,0.777,0.079,-6.042,-13.611,-19.836
0.307,0.784,0.066,-10.986,-10.864,-13.550
0.257,0.790,0.058,-15.076,-6.165,-9.888
0.241,0.821,0.073,-19.043,0.244,-7.263
0.247,0.847,0.093,-22.339,5.371,-5.798
0.249,0.858,0.101,-23.987,6.897,-5.432
0.229,0.863,0.103,-24.597,5.493,-6.348
0.222,0.867,0.103,-23.865,3.235,-8.179
0.214,0.874,0.111,-21.667,0.366,-11.597
0.232,0.875,0.123,-19.348,-3.418,-15.930
0.242,0.853,0.120,-17.029,-9.460,-20.691
0.236,0.841,0.117,-15.259,-15.808,-25.635
0.247,0.846,0.123,-14.709,-20.691,-29.968
0.264,0.849,0.132,-13.672,-23.926,-33.875
0.294,0.830,0.141,-12.085,-26.428,-36.804
0.318,0.813,0.143,-11.108,-28.442,-38.513
0.337,0.819,0.149,-11.230,-30.090,-38.757
0.359,0.829,0.156,-11.230,-31.677,-36.682
0.383,0.808,0.163,-11.536,-33.569,-33.691
0.378,0.770,0.163,-11.963,-35.950,-31.494
0.350,0.729,0.152,-12.939,-36.865,-30.457
0.342,0.726,0.147,-15.808,-34.546,-29.175
0.347,0.742,0.150,-19.165,-30.334,-27.466
0.351,0.739,0.150,-22.156,-26.184,-25.818
0.360,0.738,0.151,-25.024,-22.705,-24.597
0.379,0.744,0.156,-27.405,-21.179,-24.536
0.399,0.740,0.158,-29.358,-22.034,-24.719
0.402,0.718,0.148,-31.311,-25.635,-24.597
0.385,0.688,0.132,-32.837,-30.029,-25.024
0.371,0.663,0.110,-34.851,-33.630,-26.306
0.348,0.650,0.083,-37.170,-35.828,-28.198
0.346,0.639,0.069,-39.490,-36.255,-30.273
0.362,0.619,0.061,-41.199,-35.767,-32.104
0.393,0.644,0.063,-43.091,-36.438,-33.936
0.427,0.673,0.074,-44.495,-40.344,-35.583
0.461,0.665,0.070,-45.105,-47.913,-37.109
0.488,0.674,0.060,-46.692,-58.167,-38.879
0.502,0.708,0.051,-48.462,-70.679,-41.870
0.507,0.729,0.034,-49.683,-83.923,-44.983
0.515,0.719,0.007,-50.903,-96.802,-47.913
0.491,0.722,-0.030,-52.795,-108.276,-51.086
0.452,0.728,-0.065,-54.688,-116.089,-54.871
0.434,0.718,-0.093,-55.908,-119.202,-58.777
0.450,0.703,-0.107,-56.641,-118.652,-63.293
0.479,0.717,-0.113,-57.739,-117.188,-68.604
0.529,0.721,-0.105,-59.021,-115.723,-73.608
0.596,0.690,-0.103,-59.998,-116.211,-77.759
0.640,0.669,-0.105,-62.805,-118.530,-81.299
0.652,0.689,-0.105,-68.665,-120.056,-82.458
0.666,0.703,-0.103,-76.294,-119.751,-78.979
0.669,0.694,-0.119,-83.435,-118.103,-72.815
0.644,0.693,-0.155,-89.600,-114.441,-67.810
0.614,0.706,-0.189,-95.093,-107.483,-64.514
0.599,0.722,-0.208,-97.961,-98.694,-63.110
0.593,0.741,-0.220,-96.130,-89.966,-63.110
0.581,0.747,-0.222,-90.393,-83.069,-65.002
0.590,0.757,-0.211,-83.313,-77.026,-67.749
0.622,0.765,-0.190,-74.890,-72.388,-69.946
0.658,0.753,-0.163,-66.895,-71.228,-70.984
0.677,0.742,-0.131,-60.425,-74.219,-70.435
0.678,0.736,-0.113,-56.152,-80.383,-68.787
0.679,0.726,-0.104,-54.016,-88.684,-66.406
0.678,0.730,-0.087,-53.833,-98.633,-65.247
0.659,0.725,-0.083,-53.589,-109.985,-67.322
0.627,0.722,-0.092,-53.223,-121.399,-71.533

1.753,1.091,-0.647,35.217,148.682,-13.611
2.014,1.278,-0.846,45.959,148.865,-6.470
2.270,1.488,-1.141,57.312,144.897,0.061
2.490,1.744,-1.533,69.580,143.494,6.531
2.719,2.065,-1.992,84.106,156.250,20.447
2.984,2.374,-2.451,104.309,192.383,47.180
3.470,2.508,-2.965,133.057,250.793,87.585
3.983,2.571,-3.492,169.678,320.801,136.719
4.000,2.501,-3.791,209.290,385.681,194.458
4.000,2.230,-3.929,256.653,422.302,258.606
4.000,1.725,-3.832,317.078,418.884,317.200
4.000,1.020,-3.591,383.789,383.545,361.877
3.723,0.176,-3.330,449.402,327.759,383.972
3.145,-0.638,-2.993,500.427,268.188,387.085
2.570,-1.366,-2.662,531.494,219.360,385.132
2.159,-1.945,-2.340,540.527,190.369,378.418
1.819,-2.156,-1.861,527.893,180.908,360.291
1.550,-2.259,-1.462,511.414,181.702,338.562
1.429,-2.375,-1.147,491.211,187.073,311.035
1.294,-2.293,-0.759,460.266,192.810,271.240
1.171,-2.007,-0.396,421.814,191.406,230.408
1.119,-1.625,-0.095,380.249,182.434,192.383
1.072,-1.359,0.112,336.975,164.734,157.959
0.998,-1.242,0.238,292.297,141.479,129.700
0.874,-1.134,0.287,247.070,118.042,106.934
0.736,-0.970,0.260,204.529,97.107,90.393
0.615,-0.789,0.187,170.593,81.848,80.566
0.485,-0.618,0.110,149.048,75.928,75.867
0.351,-0.489,0.062,141.113,79.102,74.402
0.304,-0.370,0.040,143.188,88.501,76.050
0.274,-0.298,0.052,148.926,101.563,81.177
0.187,-0.283,0.106,153.503,113.037,85.205
0.123,-0.294,0.142,152.161,119.690,85.632
0.053,-0.263,0.177,143.799,122.009,80.261
0.061,-0.204,0.240,131.287,120.483,68.298
0.056,-0.120,0.274,116.882,111.938,50.232
0.105,-0.029,0.339,98.572,98.572,33.203
0.112,0.042,0.278,80.078,79.285,17.761
0.115,0.151,0.312,61.707,62.134,5.859
0.181,0.193,0.302,46.814,45.105,-0.610
0.161,0.218,0.216,36.011,27.710,-7.690
0.176,0.269,0.232,25.757,16.235,-12.146
0.182,0.297,0.213,17.334,7.141,-12.939
0.193,0.309,0.199,10.986,0.977,-11.108
0.212,0.356,0.210,5.615,-2.563,-9.583
0.245,0.400,0.236,1.282,-7.263,-7.385
0.265,0.414,0.238,-2.747,-15.686,-4.395
0.237,0.417,0.206,-6.958,-26.062,-3.479
0.184,0.444,0.164,-13.428,-32.104,-3.967
0.119,0.502,0.136,-20.630,-31.982,-6.775
0.102,0.541,0.125,-25.879,-25.146,-10.803
0.111,0.577,0.129,-28.931,-15.137,-14.832
0.124,0.628,0.138,-29.785,-5.859,-18.311
0.150,0.674,0.149,-28.992,1.709,-20.142
0.182,0.706,0.167,-27.100,7.324,-19.348
0.205,0.742,0.192,-23.193,9.460,-18.311
0.218,0.765,0.210,-17.517,7.996,-17.883
0.217,0.776,0.224,-12.085,3.723,-18.127
0.223,0.792,0.246,-7.751,-2.197,-18.616
0.231,0.794,0.267,-5.005,-10.376,-19.287
0.206,0.789,0.264,-3.723,-21.179,-20.874
0.164,0.799,0.257,-3.845,-30.823,-23.560
0.136,0.827,0.260,-6.104,-37.109,-25.452
0.131,0.854,0.263,-8.484,-41.199,-27.039
0.099,0.874,0.250,-11.475,-43.701,-28.809
0.077,0.901,0.243,-14.893,-42.480,-29.724
0.093,0.926,0.244,-18.677,-38.269,-29.602
0.116,0.927,0.237,-21.606,-33.264,-29.785
0.144,0.918,0.230,-24.353,-28.687,-30.518
0.170,0.914,0.226,-27.283,-25.024,-31.128
0.200,0.911,0.220,-29.602,-22.949,-31.372
0.234,0.920,0.212,-31.860,-22.522,-30.762
0.265,0.929,0.204,-33.997,-24.109,-29.602
0.277,0.926,0.192,-35.400,-27.405,-27.832
0.266,0.926,0.175,-36.438,-31.372,-26.428
0.257,0.923,0.163,-36.865,-33.997,-25.818
0.258,0.910,0.158,-36.316,-35.034,-25.757
0.269,0.894,0.159,-36.072,-35.095,-26.001
0.283,0.894,0.159,-35.339,-35.767,-26.794
0.286,0.901,0.155,-34.485,-37.292,-28.076
0.282,0.896,0.148,-33.936,-39.124,-29.297
0.280,0.892,0.144,-33.997,-40.649,-29.419
0.291,0.881,0.144,-34.424,-41.931,-28.320
0.294,0.852,0.133,-36.255,-44.312,-26.001
0.277,0.824,0.116,-39.063,-47.241,-23.193
0.254,0.796,0.098,-41.870,-50.171,-20.996
0.219,0.769,0.076,-43.762,-51.392,-21.057
0.212,0.746,0.064,-44.983,-49.744,-23.010
0.219,0.726,0.063,-44.922,-47.424,-25.696
0.237,0.732,0.069,-44.250,-46.082,-28.503
0.252,0.729,0.075,-42.786,-46.570,-31.433
0.270,0.719,0.086,-41.321,-49.377,-33.508
0.298,0.745,0.093,-41.077,-54.810,-35.156
0.316,0.758,0.093,-41.687,-63.416,-36.865
0.317,0.754,0.088,-42.175,-74.768,-39.063
0.299,0.742,0.069,-43.152,-86.792,-42.175
0.232,0.729,0.037,-44.250,-96.985,-46.753
0.177,0.699,0.015,-44.861,-101.135,-51.147
0.152,0.676,0.002,-45.349,-98.877,-55.298
0.147,0.684,0.004,-46.387,-92.224,-59.937
0.171,0.681,0.013,-47.607,-84.595,-63.232
0.217,0.701,0.031,-49.194,-78.674,-65.308
0.272,0.744,0.056,-51.147,-75.928,-67.505
0.327,0.743,0.071,-53.467,-78.491,-69.458
0.375,0.707,0.062,-56.824,-85.754,-71.594
0.358,0.691,0.034,-61.829,-93.933,-75.317
0.365,0.691,0.013,-67.627,-98.206,-78.552
0.390,0.662,-0.001,-74.158,-98.755,-81.482
0.409,0.635,-0.028,-80.627,-97.534,-85.083
0.422,0.638,-0.046,-86.609,-95.215,-88.928
0.453,0.646,-0.053,-90.820,-92.468,-92.041
0.488,0.628,-0.070,-92.896,-91.064,-94.238
0.485,0.643,-0.098,-94.604,-89.844,-96.313
0.473,0.668,-0.111,-95.276,-85.999,-98.267
0.500,0.653,-0.124,-94.727,-78.674,-98.877
0.531,0.649,-0.128,-94.421,-69.641,-98.694
0.577,0.641,-0.117,-95.337,-61.523,-98.389
0.650,0.623,-0.102,-97.229,-56.519,-97.961
0.712,0.614,-0.092,-100.403,-56.030,-97.717

1.920,1.300,-0.625,27.161,216.064,-58.167
2.079,1.562,-0.944,37.720,178.589,-50.781
2.219,1.816,-1.438,44.373,149.231,-39.978
2.402,2.220,-2.103,45.715,144.226,-26.611
2.732,2.782,-2.938,44.739,175.049,-5.737
3.315,3.245,-3.783,49.866,237.793,26.917
3.993,3.370,-4.000,69.519,312.317,72.144
4.000,3.381,-4.000,106.079,375.122,125.610
4.000,3.279,-4.000,159.912,405.518,194.763
4.000,2.667,-4.000,245.056,385.681,267.334
4.000,1.633,-4.000,348.755,317.200,321.655
4.000,0.417,-3.825,440.796,217.651,354.004
3.372,-0.698,-3.478,501.831,116.821,367.798
2.469,-1.536,-3.188,526.550,48.889,368.164
1.670,-2.074,-2.767,520.142,30.823,362.976
1.061,-2.570,-2.359,500.488,57.617,354.980
0.794,-2.743,-1.824,476.807,107.971,325.378
0.716,-2.538,-1.123,454.651,153.442,277.161
0.832,-2.181,-0.480,443.237,168.884,226.990
0.846,-1.793,-0.038,435.913,151.978,182.739
0.701,-1.651,0.279,423.462,117.310,145.691
0.577,-1.745,0.405,401.672,75.623,110.596
0.375,-1.861,0.409,365.906,39.917,80.872
0.156,-1.850,0.357,311.218,20.630,53.162
0.184,-1.754,0.286,238.831,20.325,38.696
0.224,-1.494,0.203,154.419,28.564,40.527
0.212,-1.244,0.078,81.360,39.551,35.034
0.260,-0.998,-0.104,29.480,55.969,22.339
0.279,-0.678,-0.171,1.892,77.881,12.207
0.379,-0.352,-0.165,0.854,96.436,5.188
0.478,-0.160,-0.165,24.414,102.295,0.793
0.565,-0.101,-0.093,60.974,96.558,-4.150
0.601,-0.124,-0.064,96.497,75.134,-13.916
0.535,-0.161,-0.051,122.070,45.593,-24.597
0.450,-0.208,-0.036,132.019,19.043,-29.785
0.390,-0.196,-0.024,128.052,1.526,-32.471
0.389,-0.170,-0.001,110.840,-5.310,-26.794
0.300,-0.053,-0.054,81.848,-7.629,-12.512
0.177,0.124,-0.086,52.429,-3.235,-0.793
0.133,0.242,-0.132,34.302,9.705,5.493
0.116,0.344,-0.134,26.062,28.259,3.235
0.178,0.459,-0.079,24.048,46.021,-3.662
0.296,0.537,-0.021,27.466,53.894,-8.911
0.439,0.578,0.052,33.447,48.889,-9.583
0.538,0.595,0.122,39.917,32.410,-9.460
0.560,0.625,0.164,44.983,7.751,-10.071
0.589,0.640,0.210,47.302,-18.860,-10.437
0.525,0.621,0.172,45.776,-44.678,-11.414
0.429,0.636,0.176,40.955,-61.584,-11.902
0.380,0.696,0.188,34.058,-68.054,-8.667
0.332,0.720,0.179,26.672,-67.078,-0.549
0.284,0.707,0.159,19.592,-59.692,8.545
0.205,0.709,0.132,11.230,-46.143,16.174
0.120,0.718,0.111,3.723,-27.039,20.264
0.104,0.735,0.133,-2.258,-4.761,20.691
0.166,0.809,0.185,-5.981,14.099,19.531
0.213,0.772,0.201,-6.714,24.109,21.729
0.244,0.728,0.203,-6.470,25.574,23.926
0.250,0.739,0.219,-5.432,20.996,23.560
0.263,0.747,0.245,-2.808,11.047,20.813
0.270,0.751,0.260,0.977,-3.601,15.991
0.240,0.729,0.247,4.150,-20.386,9.766
0.185,0.706,0.227,5.188,-36.011,2.991
0.146,0.697,0.218,4.578,-46.387,-3.723
0.131,0.677,0.208,3.967,-52.185,-10.864
0.096,0.654,0.183,2.686,-54.504,-18.921
0.060,0.640,0.168,0.183,-51.697,-26.184
0.059,0.657,0.165,-4.028,-44.312,-30.518
0.078,0.693,0.179,-8.240,-34.607,-31.189
0.144,0.704,0.197,-11.780,-25.635,-27.710
0.208,0.673,0.199,-14.526,-20.142,-22.522
0.264,0.650,0.204,-17.822,-17.944,-19.531
0.316,0.641,0.217,-21.790,-19.897,-19.226
0.363,0.625,0.227,-26.001,-25.757,-20.386
0.402,0.620,0.227,-29.480,-36.499,-22.888
0.418,0.627,0.219,-32.043,-50.781,-26.306
0.431,0.628,0.208,-33.752,-66.406,-28.992
0.426,0.635,0.201,-34.912,-82.581,-31.250
0.417,0.652,0.197,-34.973,-97.961,-33.325
0.402,0.651,0.191,-34.668,-112.305,-35.645
0.393,0.620,0.181,-34.058,-125.366,-38.330
0.384,0.584,0.165,-34.607,-137.268,-41.077
0.364,0.574,0.147,-37.109,-148.376,-44.067
0.339,0.578,0.119,-41.138,-157.959,-47.180
0.253,0.596,0.073,-44.983,-164.856,-50.903
0.113,0.643,0.027,-47.729,-163.391,-57.434
0.042,0.678,0.012,-48.645,-149.536,-64.026
0.031,0.686,0.016,-47.974,-128.113,-69.275
0.059,0.697,0.042,-46.875,-103.699,-73.364
0.122,0.670,0.073,-45.349,-81.604,-75.623
0.204,0.628,0.093,-44.434,-65.186,-76.843
0.292,0.617,0.113,-46.265,-54.321,-77.759
0.370,0.619,0.136,-49.072,-50.903,-78.369
0.428,0.677,0.153,-51.453,-55.176,-78.796
0.455,0.749,0.152,-52.979,-65.002,-80.139
0.467,0.774,0.124,-53.284,-77.026,-82.397
0.497,0.778,0.099,-54.688,-88.135,-84.900
0.546,0.785,0.079,-57.556,-98.450,-87.585
0.586,0.826,0.077,-60.547,-108.887,-90.820
0.606,0.848,0.080,-61.768,-119.446,-93.811
0.623,0.835,0.073,-60.425,-129.456,-95.215
0.626,0.821,0.064,-58.044,-138.489,-95.642
0.612,0.839,0.055,-55.054,-146.057,-95.337
0.594,0.856,0.052,-50.903,-151.428,-94.666
0.595,0.849,0.050,-45.898,-153.442,-94.299
0.592,0.818,0.041,-40.894,-152.832,-95.642
0.567,0.806,0.031,-37.170,-148.682,-98.694
0.553,0.800,0.030,-34.729,-140.137,-102.539
0.557,0.772,0.041,-33.630,-127.380,-105.774
0.592,0.741,0.063,-33.386,-112.244,-108.337
0.642,0.719,0.095,-34.790,-97.412,-110.046
0.701,0.689,0.124,-36.926,-85.754,-109.863
0.759,0.674,0.144,-39.856,-78.125,-109.009
0.798,0.671,0.160,-42.725,-74.219,-108.215
0.825,0.658,0.176,-45.715,-73.730,-106.384
0.825,0.652,0.177,-48.096,-76.477,-103.943
0.786,0.667,0.173,-49.622,-79.651,-101.257
0.737,0.664,0.162,-49.622,-81.177,-98.267
0.692,0.659,0.151,-48.035,-79.651,-96.191

1.536,1.193,-0.350,9.277,89.966,20.142
1.708,1.398,-0.635,-0.366,117.188,25.269
1.907,1.653,-0.964,-8.728,157.166,28.748
2.212,1.886,-1.334,-13.428,215.515,30.579
2.748,2.121,-1.755,-10.498,294.434,36.011
3.551,2.332,-2.127,2.380,383.911,54.810
4.000,2.534,-2.423,25.330,451.782,97.839
4.000,2.629,-2.617,60.730,467.529,159.424
4.000,2.401,-2.824,112.793,435.669,230.103
4.000,1.809,-2.930,176.086,375.854,301.147
4.000,1.127,-2.905,237.061,314.148,353.394
3.468,0.447,-2.824,290.649,274.719,378.906
2.940,-0.205,-2.622,333.435,268.738,389.282
2.659,-0.700,-2.252,361.938,284.363,391.541
2.493,-1.109,-1.802,381.165,296.509,389.954
2.364,-1.416,-1.361,394.043,289.734,379.944
2.197,-1.505,-0.926,399.048,260.559,356.873
1.882,-1.475,-0.596,398.315,212.402,324.524
1.574,-1.426,-0.393,393.066,156.799,287.720
1.320,-1.299,-0.251,380.554,109.863,251.099
1.063,-1.094,-0.099,362.610,76.904,216.858
0.839,-1.032,-0.020,344.360,53.345,185.974
0.642,-1.088,0.011,325.256,38.818,155.579
0.428,-1.139,0.014,302.429,32.898,124.207
0.235,-1.125,0.013,274.963,36.865,95.215
0.197,-1.030,0.032,245.178,47.913,75.256
0.202,-0.935,0.035,214.661,58.777,63.293
0.195,-0.844,0.064,183.472,67.688,56.030
0.218,-0.754,0.069,151.917,71.350,56.213
0.209,-0.688,0.039,121.094,68.420,59.387
0.134,-0.617,-0.006,92.834,63.171,58.594
0.088,-0.502,-0.058,69.397,59.326,52.612
0.046,-0.402,-0.079,53.711,59.326,40.833
0.009,-0.275,-0.090,46.326,60.791,23.926
0.031,-0.201,-0.085,46.387,64.087,7.812
0.056,-0.093,-0.066,51.697,67.322,-8.606
0.122,-0.028,-0.022,60.425,69.763,-19.836
0.217,-0.023,0.013,69.397,66.956,-26.550
0.294,-0.027,0.067,75.012,58.838,-30.640
0.338,0.010,0.102,76.538,43.762,-32.959
0.326,0.052,0.120,73.975,24.597,-33.997
0.323,0.084,0.138,66.650,5.615,-31.067
0.326,0.146,0.143,56.152,-12.085,-25.635
0.277,0.222,0.141,45.349,-28.259,-22.888
0.203,0.296,0.124,36.133,-39.490,-22.705
0.180,0.377,0.119,28.748,-43.274,-22.705
0.189,0.455,0.133,23.804,-41.748,-23.437
0.180,0.520,0.136,21.423,-39.124,-24.658
0.176,0.562,0.151,20.264,-34.607,-26.062
0.217,0.579,0.175,18.799,-28.381,-25.024
0.257,0.591,0.197,16.724,-23.865,-21.912
0.280,0.595,0.206,13.428,-22.705,-18.677
0.266,0.627,0.210,9.338,-23.804,-17.090
0.250,0.670,0.223,5.676,-25.513,-16.479
0.262,0.708,0.237,2.625,-27.527,-13.916
0.259,0.693,0.224,-0.549,-30.884,-9.216
0.260,0.728,0.263,-3.479,-34.485,-7.080
0.257,0.758,0.270,-4.517,-41.138,-5.310
0.188,0.736,0.241,-4.333,-49.438,-4.578
0.090,0.799,0.240,-5.066,-52.307,-7.080
0.045,0.828,0.230,-4.395,-48.279,-7.996
0.021,0.859,0.249,-2.808,-38.452,-9.033
0.018,0.894,0.277,-0.366,-25.940,-10.254
0.062,0.887,0.309,1.831,-13.306,-9.644
0.116,0.855,0.351,2.808,-3.662,-9.094
0.179,0.839,0.389,2.136,0.854,-9.705
0.244,0.829,0.425,-1.099,-0.488,-10.559
0.298,0.804,0.449,-6.042,-7.751,-11.353
0.320,0.793,0.454,-12.146,-21.057,-12.756
0.268,0.811,0.432,-18.921,-37.109,-15.503
0.220,0.831,0.400,-25.330,-49.316,-18.311
0.195,0.849,0.377,-30.884,-55.420,-19.592
0.167,0.843,0.359,-35.400,-57.434,-20.630
0.173,0.822,0.338,-39.368,-56.519,-22.034
0.199,0.800,0.324,-43.213,-54.871,-23.865
0.227,0.783,0.320,-46.692,-54.199,-26.306
0.253,0.768,0.308,-49.805,-56.091,-28.748
0.220,0.764,0.279,-52.368,-60.486,-31.555
0.199,0.753,0.249,-54.077,-62.744,-34.302
0.188,0.740,0.224,-55.359,-63.049,-36.377
0.180,0.732,0.205,-55.298,-60.669,-38.818
0.189,0.714,0.189,-55.176,-57.007,-40.771
0.210,0.684,0.183,-54.688,-53.772,-42.542
0.240,0.680,0.186,-54.443,-52.246,-44.678
0.266,0.680,0.189,-53.955,-53.528,-47.302
0.281,0.665,0.181,-52.795,-58.044,-50.293
0.285,0.671,0.172,-51.819,-64.636,-53.345
0.261,0.656,0.144,-51.331,-72.388,-56.519
0.216,0.643,0.100,-51.392,-79.041,-60.547
0.163,0.608,0.058,-51.331,-81.543,-66.589
0.143,0.599,0.047,-51.880,-79.224,-75.562
0.160,0.687,0.082,-51.880,-75.562,-85.205
0.191,0.673,0.074,-49.377,-75.745,-89.661
0.221,0.663,0.051,-45.776,-77.148,-92.163
0.224,0.671,0.046,-43.518,-76.660,-96.008
0.203,0.630,0.029,-41.931,-74.524,-100.952
0.222,0.670,0.046,-42.297,-69.885,-106.750
0.255,0.681,0.055,-42.297,-65.613,-108.398
0.323,0.623,0.057,-42.114,-63.965,-106.201
0.372,0.564,0.057,-42.969,-64.026,-104.675
0.395,0.501,0.045,-44.556,-66.162,-106.812
0.406,0.479,0.035,-46.631,-67.993,-111.816
0.423,0.515,0.033,-48.462,-68.115,-117.310
0.465,0.547,0.048,-48.706,-67.627,-122.681
0.521,0.548,0.059,-47.302,-68.054,-126.892
0.571,0.561,0.074,-46.143,-69.519,-130.432
0.631,0.534,0.087,-46.326,-72.937,-132.141
0.707,0.493,0.096,-47.974,-78.735,-133.057
0.773,0.446,0.096,-51.941,-86.731,-133.972
0.835,0.392,0.090,-57.678,-96.741,-134.583
0.864,0.333,0.067,-64.392,-108.093,-134.277
0.875,0.284,0.032,-70.984,-117.981,-134.705
0.880,0.280,0.003,-76.416,-123.840,-137.451
0.850,0.315,-0.019,-78.613,-122.925,-143.127
0.828,0.371,-0.020,-77.087,-114.014,-149.658
0.856,0.427,0.005,-72.510,-98.877,-153.748
0.941,0.476,0.043,-66.223,-83.618,-153.076
1.056,0.498,0.089,-59.021,-72.937,-148.010
1.167,0.476,0.130,-51.697,-70.313,-140.869

1.405,1.604,-0.602,38.208,220.215,13.306
1.449,1.912,-0.904,57.617,274.231,21.301
1.397,2.209,-1.307,81.116,349.365,37.781
1.406,2.337,-1.857,112.183,449.646,65.552
2.065,2.269,-2.294,146.545,574.707,107.483
3.221,2.235,-2.344,168.640,678.467,171.082
3.938,2.140,-2.250,179.504,701.050,231.934
4.000,2.048,-2.188,183.716,639.038,279.785
3.939,1.856,-2.332,185.547,524.048,320.801
3.557,1.635,-2.517,191.284,403.259,337.769
3.078,1.526,-2.761,203.674,297.424,323.364
2.705,1.432,-3.006,230.408,217.957,297.180
2.367,1.264,-3.100,269.165,173.706,277.588
2.072,0.911,-3.152,311.279,165.100,268.677
1.952,0.474,-2.990,345.032,182.251,265.686
1.932,0.015,-2.671,367.615,202.698,259.033
1.971,-0.401,-2.321,376.526,212.769,242.981
1.998,-0.641,-1.909,366.333,206.970,221.069
1.908,-0.730,-1.466,341.003,181.580,198.181
1.738,-0.743,-1.107,311.646,141.602,174.683
1.552,-0.783,-0.785,281.555,99.304,154.785
1.370,-0.728,-0.512,250.854,57.678,133.423
1.135,-0.747,-0.349,222.595,19.165,112.976
0.881,-0.829,-0.285,195.068,-13.062,95.703
0.643,-0.847,-0.274,169.861,-35.522,80.627
0.387,-0.758,-0.314,151.428,-44.495,70.374
0.254,-0.581,-0.349,143.555,-37.354,68.604
0.141,-0.452,-0.389,147.827,-17.273,72.449
0.031,-0.447,-0.419,159.973,12.329,72.754
-0.030,-0.498,-0.388,172.729,49.316,67.261
0.000,-0.537,-0.317,183.105,83.740,52.673
0.107,-0.564,-0.204,189.148,107.483,30.945
0.215,-0.589,-0.086,190.186,114.746,8.179
0.315,-0.599,0.034,183.716,105.835,-10.254
0.372,-0.579,0.137,169.556,83.618,-21.729
0.345,-0.537,0.202,150.879,52.734,-25.208
0.261,-0.485,0.224,130.859,21.362,-22.095
0.170,-0.410,0.216,110.840,-2.258,-16.907
0.048,-0.340,0.211,94.116,-15.686,-13.184
-0.026,-0.279,0.214,81.055,-19.714,-12.695
-0.062,-0.237,0.225,70.496,-16.541,-14.954
-0.042,-0.181,0.248,61.035,-10.193,-19.043
0.002,-0.100,0.281,52.246,-4.639,-23.865
0.070,-0.007,0.322,44.312,-1.831,-28.748
0.141,0.074,0.352,37.842,-4.272,-32.043
0.196,0.160,0.361,31.067,-12.024,-33.325
0.234,0.250,0.354,24.841,-23.437,-32.593
0.244,0.336,0.327,19.226,-36.560,-30.457
0.222,0.402,0.287,15.015,-48.096,-27.649
0.154,0.453,0.233,11.597,-54.932,-25.024
0.083,0.500,0.192,8.667,-52.917,-23.132
0.059,0.548,0.170,6.042,-41.870,-20.569
0.076,0.598,0.175,3.052,-25.085,-17.517
0.118,0.644,0.198,0.000,-7.568,-14.404
0.161,0.684,0.228,-2.502,6.226,-11.902
0.215,0.718,0.259,-4.944,14.404,-9.766
0.260,0.750,0.289,-6.836,15.625,-6.897
0.263,0.776,0.308,-8.972,10.498,-3.845
0.242,0.767,0.303,-11.475,2.197,-1.221
0.200,0.762,0.281,-14.526,-5.554,0.610
0.161,0.779,0.266,-18.066,-10.010,0.183
0.140,0.790,0.256,-21.423,-11.230,-2.075
0.138,0.795,0.253,-23.682,-10.864,-4.822
0.148,0.809,0.254,-25.269,-10.193,-8.484
0.152,0.827,0.255,-26.245,-10.315,-12.085
0.153,0.833,0.255,-26.062,-10.864,-15.015
0.179,0.826,0.259,-25.269,-10.803,-16.357
0.197,0.806,0.258,-24.475,-10.742,-16.663
0.218,0.789,0.254,-24.048,-10.925,-17.578
0.243,0.775,0.254,-24.597,-11.902,-19.043
0.274,0.752,0.255,-26.550,-14.282,-20.691
0.312,0.730,0.246,-28.931,-18.799,-22.583
0.345,0.708,0.227,-32.410,-24.963,-24.902
0.357,0.697,0.201,-36.743,-33.203,-27.588
0.346,0.686,0.172,-40.955,-42.175,-30.579
0.340,0.675,0.142,-43.884,-50.354,-34.485
0.342,0.690,0.115,-45.715,-57.068,-39.124
0.340,0.714,0.097,-46.448,-62.927,-43.945
0.351,0.705,0.078,-45.898,-68.176,-48.462
0.376,0.682,0.067,-44.922,-73.242,-52.246
0.405,0.678,0.067,-44.250,-79.346,-55.603
0.425,0.661,0.073,-43.335,-86.914,-58.167
0.446,0.604,0.066,-41.992,-96.069,-59.021
0.454,0.552,0.043,-40.833,-106.689,-58.960
0.431,0.552,0.015,-41.870,-117.249,-59.570
0.385,0.542,-0.010,-43.457,-125.977,-60.913
0.338,0.541,-0.040,-43.091,-132.019,-62.988
0.312,0.631,-0.041,-40.771,-134.766,-68.115
0.303,0.718,-0.025,-35.400,-134.827,-75.378
0.311,0.734,-0.027,-28.198,-133.911,-81.970
0.324,0.705,-0.029,-23.376,-132.446,-86.670
0.344,0.656,-0.023,-21.667,-130.310,-90.332
0.388,0.588,-0.015,-23.254,-128.540,-93.262
0.423,0.519,-0.022,-27.588,-127.991,-96.130
0.431,0.472,-0.026,-34.485,-128.540,-99.487
0.431,0.453,-0.030,-42.358,-128.235,-102.783
0.434,0.491,-0.033,-49.561,-127.075,-105.713
0.450,0.576,-0.017,-53.650,-124.084,-109.802
0.473,0.650,0.004,-53.406,-120.178,-113.525
0.491,0.701,0.020,-49.805,-117.065,-115.417
0.499,0.715,0.036,-44.617,-114.624,-116.394
0.508,0.669,0.038,-39.795,-111.023,-116.455
0.513,0.595,0.029,-38.025,-105.896,-115.540
0.500,0.524,0.004,-39.551,-98.877,-115.356
0.477,0.480,-0.025,-44.434,-88.135,-117.310
0.482,0.453,-0.042,-51.819,-73.669,-120.300
0.551,0.458,-0.022,-59.937,-58.167,-123.108
0.622,0.477,0.015,-66.223,-48.340,-125.061
0.669,0.499,0.048,-68.420,-45.593,-127.197
0.744,0.528,0.095,-66.406,-48.035,-130.005
0.827,0.554,0.151,-60.852,-55.847,-133.972
0.858,0.553,0.182,-52.429,-69.702,-138.000
0.830,0.538,0.170,-44.250,-85.571,-142.212
0.802,0.507,0.153,-38.208,-95.825,-147.095
0.781,0.449,0.135,-35.522,-98.511,-150.940
0.758,0.395,0.117,-36.743,-93.628,-153.442
0.754,0.364,0.106,-42.480,-82.886,-154.053
0.787,0.338,0.106,-50.720,-68.298,-153.381
0.888,0.337,0.141,-60.425,-53.711,-151.917

1.574,0.929,-0.616,-24.109,119.995,2.197
1.695,1.138,-0.787,-18.005,133.606,11.719
1.849,1.319,-1.029,-9.949,152.588,21.606
2.055,1.517,-1.323,-0.061,179.138,31.067
2.369,1.762,-1.636,12.573,214.172,41.504
2.757,2.046,-1.973,33.081,253.235,54.260
3.155,2.271,-2.354,61.035,291.565,69.763
3.497,2.379,-2.667,93.323,327.942,90.759
3.696,2.407,-2.884,127.014,359.192,121.521
3.713,2.275,-2.996,163.635,383.118,159.790
3.720,1.932,-2.977,202.209,401.550,199.585
3.695,1.548,-2.806,239.197,407.898,234.619
3.534,1.088,-2.580,275.024,395.752,259.033
3.396,0.553,-2.309,304.138,365.723,275.757
3.079,0.085,-2.079,325.317,318.604,282.837
2.614,-0.299,-1.897,341.736,268.738,279.053
2.292,-0.536,-1.709,349.792,230.530,270.691
2.037,-0.663,-1.542,350.830,205.017,259.460
1.686,-0.790,-1.388,348.938,190.063,245.239
1.330,-0.897,-1.198,344.360,184.082,232.544
1.066,-0.978,-1.032,340.942,183.655,218.262
0.882,-1.047,-0.891,339.050,186.829,196.350
0.773,-1.043,-0.716,335.388,189.087,165.100
0.723,-1.044,-0.530,330.933,184.570,130.005
0.699,-1.113,-0.347,326.233,171.143,97.534
0.681,-1.163,-0.160,317.810,148.804,69.641
0.597,-1.169,0.010,304.993,119.568,46.570
0.476,-1.146,0.128,290.344,87.097,26.794
0.425,-1.093,0.192,270.020,56.458,12.756
0.383,-1.025,0.224,241.455,30.579,12.085
0.291,-0.996,0.207,204.895,9.827,19.165
0.177,-0.975,0.142,161.377,-2.747,27.588
0.084,-0.878,0.070,114.624,-3.113,33.691
0.012,-0.753,0.002,73.425,8.179,31.494
-0.062,-0.602,-0.083,43.762,26.245,19.714
-0.036,-0.507,-0.156,25.208,50.964,6.470
0.043,-0.404,-0.206,13.367,75.928,-5.859
0.109,-0.280,-0.225,8.179,95.642,-16.479
0.227,-0.172,-0.205,10.864,108.887,-24.963
0.384,-0.080,-0.163,20.020,112.732,-31.555
0.492,-0.006,-0.122,32.288,104.980,-36.255
0.545,0.062,-0.071,43.762,87.158,-38.147
0.537,0.102,-0.033,53.040,62.256,-36.438
0.486,0.131,0.004,58.899,35.400,-33.813
0.439,0.179,0.055,60.242,11.108,-31.311
0.393,0.252,0.110,57.434,-10.925,-28.748
0.333,0.322,0.150,52.307,-31.189,-28.198
0.294,0.362,0.170,45.410,-47.424,-29.175
0.277,0.390,0.189,37.048,-59.387,-30.640
0.276,0.442,0.213,27.588,-68.726,-32.898
0.298,0.499,0.222,18.494,-77.820,-34.729
0.264,0.536,0.191,9.583,-86.731,-35.034
0.243,0.584,0.176,1.770,-90.942,-32.837
0.214,0.619,0.140,-3.967,-90.759,-27.954
0.163,0.627,0.102,-8.484,-84.351,-22.339
0.153,0.659,0.082,-13.733,-70.557,-16.174
0.150,0.700,0.068,-18.372,-54.138,-10.864
0.171,0.730,0.076,-21.851,-38.086,-7.263
0.221,0.736,0.084,-23.315,-26.123,-5.798
0.247,0.747,0.080,-23.926,-20.264,-6.042
0.225,0.793,0.087,-24.109,-18.250,-7.935
0.252,0.827,0.099,-22.888,-17.151,-8.850
0.268,0.832,0.112,-19.836,-18.677,-9.644
0.269,0.818,0.120,-16.724,-22.339,-11.414
0.283,0.793,0.129,-14.648,-27.039,-13.794
0.303,0.757,0.138,-13.794,-33.203,-17.090
0.317,0.711,0.130,-14.465,-41.077,-20.996
0.314,0.678,0.113,-17.822,-49.011,-24.658
0.269,0.668,0.095,-21.729,-55.969,-27.954
0.226,0.668,0.088,-25.085,-58.350,-31.189
0.231,0.686,0.097,-26.917,-56.396,-33.936
0.254,0.711,0.122,-26.855,-53.223,-36.072
0.293,0.696,0.145,-25.879,-51.392,-37.537
0.353,0.667,0.169,-25.818,-52.307,-37.659
0.422,0.656,0.198,-27.527,-58.105,-37.598
0.491,0.626,0.219,-30.701,-69.885,-37.292
0.538,0.577,0.222,-35.950,-87.585,-36.682
0.556,0.536,0.204,-42.419,-110.107,-37.292
0.547,0.528,0.172,-50.293,-133.301,-39.673
0.521,0.544,0.130,-58.960,-154.175,-43.030
0.491,0.557,0.088,-66.528,-170.715,-47.058
0.468,0.568,0.042,-72.144,-182.312,-51.331
0.464,0.591,0.005,-76.660,-189.880,-56.396
0.476,0.615,-0.016,-79.590,-195.129,-61.401
0.474,0.629,-0.054,-81.116,-199.951,-66.345
0.457,0.633,-0.094,-81.116,-203.613,-71.899
0.450,0.630,-0.123,-80.078,-204.163,-78.125
0.438,0.634,-0.146,-77.759,-203.064,-84.167
0.431,0.638,-0.158,-74.585,-200.562,-89.783
0.427,0.613,-0.175,-71.106,-196.594,-93.689
0.425,0.597,-0.192,-68.054,-190.430,-96.680
0.429,0.611,-0.189,-65.552,-181.396,-100.037
0.426,0.688,-0.174,-62.500,-170.410,-103.577
0.423,0.818,-0.136,-57.495,-158.081,-106.995
0.443,0.861,-0.099,-50.110,-145.020,-108.215
0.473,0.772,-0.099,-42.358,-132.812,-106.812
0.529,0.681,-0.088,-38.757,-119.568,-107.117
0.584,0.609,-0.068,-39.429,-105.713,-109.436
0.646,0.585,-0.042,-42.786,-93.445,-112.122
0.727,0.641,-0.016,-47.485,-84.229,-113.525
0.817,0.708,0.019,-51.208,-79.346,-113.281
0.878,0.719,0.038,-52.429,-80.444,-111.450
0.899,0.730,0.031,-52.185,-86.609,-109.314
0.909,0.740,0.028,-51.025,-93.933,-108.398
0.936,0.720,0.030,-49.072,-101.074,-107.666
0.952,0.673,0.023,-46.021,-109.192,-107.422
0.967,0.616,0.009,-43.457,-116.760,-108.704
0.981,0.585,-0.001,-41.443,-122.131,-111.755
1.005,0.562,-0.008,-39.307,-124.329,-116.333
1.054,0.576,0.009,-35.950,-124.268,-121.765
1.086,0.615,0.053,-30.823,-122.742,-127.197
1.097,0.633,0.097,-23.437,-122.009,-129.944
1.091,0.644,0.141,-15.930,-123.169,-129.028
1.075,0.654,0.181,-10.315,-125.427,-125.549
1.051,0.646,0.212,-6.531,-128.174,-120.422
1.058,0.588,0.231,-4.761,-130.371,-114.624
1.052,0.526,0.231,-6.348,-132.690,-110.229
0.998,0.489,0.220,-10.254,-133.972,-109.009
0.943,0.457,0.207,-15.137,-132.019,-110.291

1.522,1.039,-0.517,19.409,148.499,29.663
1.807,1.287,-0.772,15.137,188.110,29.602
2.227,1.612,-0.973,14.587,225.464,39.368
2.581,1.972,-1.177,23.743,250.488,55.420
2.915,2.336,-1.401,44.189,268.616,68.970
3.209,2.664,-1.597,71.533,288.513,78.674
3.333,2.826,-1.804,102.234,315.491,87.097
3.344,2.671,-2.057,133.423,356.384,96.863
3.543,2.247,-2.280,157.288,415.039,114.868
4.000,1.901,-2.352,168.274,468.384,152.832
4.000,1.702,-2.337,181.641,466.003,209.717
4.000,1.263,-2.339,218.567,408.264,266.846
4.000,0.644,-2.275,273.804,323.242,307.373
3.719,0.019,-2.168,335.083,231.506,323.914
3.143,-0.508,-2.074,387.085,146.423,326.050
2.539,-1.002,-1.974,422.607,82.458,324.890
1.994,-1.340,-1.737,437.500,48.279,320.190
1.519,-1.470,-1.416,438.477,38.391,311.829
1.157,-1.497,-1.132,435.059,40.955,297.791
0.913,-1.502,-0.885,428.467,50.781,274.048
0.709,-1.459,-0.661,416.504,62.195,240.234
0.549,-1.445,-0.487,400.757,68.604,201.965
0.465,-1.475,-0.323,378.967,70.129,168.701
0.354,-1.476,-0.166,348.755,66.528,142.334
0.220,-1.466,-0.031,313.171,60.059,121.582
0.122,-1.426,0.052,274.841,53.345,104.065
0.032,-1.292,0.103,235.046,47.424,88.989
-0.055,-1.166,0.128,196.655,46.570,78.369
-0.109,-1.036,0.128,161.255,50.354,68.848
-0.162,-0.920,0.107,132.629,57.800,57.739
-0.090,-0.812,0.119,110.901,68.359,48.828
-0.059,-0.723,0.135,95.825,77.515,40.833
0.020,-0.640,0.173,86.304,83.008,31.982
0.114,-0.586,0.199,79.895,82.397,24.231
0.137,-0.501,0.215,74.707,75.867,16.602
0.171,-0.450,0.223,70.435,67.078,12.390
0.220,-0.383,0.253,67.261,56.213,6.653
0.229,-0.307,0.267,65.369,43.579,-1.526
0.203,-0.233,0.263,63.965,31.128,-9.521
0.213,-0.154,0.290,61.462,21.057,-16.113
0.225,-0.093,0.285,56.458,11.169,-19.836
0.242,-0.025,0.286,49.866,2.197,-21.790
0.262,0.079,0.306,42.542,-4.822,-23.132
0.259,0.167,0.315,35.645,-10.437,-25.513
0.283,0.230,0.333,31.250,-14.587,-28.687
0.307,0.266,0.358,27.466,-19.165,-30.457
0.317,0.327,0.378,23.010,-24.719,-33.081
0.296,0.383,0.381,18.860,-30.701,-35.217
0.308,0.426,0.398,14.404,-34.363,-35.278
0.339,0.466,0.415,9.399,-38.269,-33.813
0.335,0.495,0.421,4.822,-43.518,-31.921
0.288,0.507,0.406,0.122,-47.974,-31.067
0.249,0.535,0.390,-5.127,-47.668,-31.189
0.243,0.584,0.383,-10.071,-42.725,-31.250
0.237,0.626,0.370,-15.137,-35.461,-30.823
0.235,0.651,0.356,-20.447,-25.940,-29.785
0.255,0.661,0.346,-25.574,-15.320,-28.076
0.280,0.661,0.337,-31.311,-6.470,-25.269
0.294,0.659,0.328,-36.560,-0.305,-22.339
0.287,0.644,0.316,-39.856,4.272,-20.447
0.284,0.620,0.309,-41.382,8.362,-20.386
0.288,0.622,0.309,-41.260,11.597,-21.790
0.303,0.651,0.321,-39.307,13.672,-24.597
0.325,0.657,0.342,-36.194,13.428,-27.771
0.356,0.652,0.369,-32.166,10.132,-31.128
0.388,0.645,0.394,-28.076,3.479,-34.485
0.403,0.629,0.406,-24.719,-5.554,-37.659
0.408,0.596,0.407,-22.034,-15.869,-40.527
0.414,0.577,0.405,-21.118,-25.452,-42.358
0.426,0.589,0.404,-21.973,-33.875,-43.213
0.429,0.601,0.397,-24.414,-41.321,-42.603
0.428,0.587,0.386,-28.931,-47.546,-40.527
0.439,0.547,0.369,-35.034,-52.368,-37.781
0.449,0.512,0.346,-42.114,-56.213,-35.950
0.466,0.497,0.322,-49.744,-59.875,-35.217
0.494,0.488,0.299,-57.251,-64.148,-35.156
0.530,0.494,0.286,-62.500,-70.313,-35.889
0.568,0.510,0.286,-64.880,-79.224,-37.354
0.602,0.537,0.287,-64.514,-91.370,-38.879
0.627,0.602,0.282,-61.218,-106.445,-41.199
0.646,0.643,0.275,-56.824,-122.375,-42.603
0.651,0.633,0.255,-52.795,-137.695,-43.213
0.611,0.616,0.226,-49.011,-151.489,-44.800
0.566,0.577,0.202,-46.143,-160.278,-48.218
0.539,0.527,0.184,-45.166,-163.879,-52.673
0.525,0.520,0.179,-46.204,-163.513,-57.800
0.532,0.541,0.193,-48.340,-160.583,-62.988
0.554,0.543,0.205,-50.354,-157.776,-66.650
0.563,0.575,0.214,-51.086,-156.494,-69.092
0.557,0.657,0.232,-49.500,-155.762,-71.716
0.564,0.729,0.253,-45.959,-155.640,-73.853
0.582,0.735,0.261,-41.199,-155.701,-75.195
0.599,0.699,0.256,-37.781,-155.884,-75.684
0.594,0.666,0.247,-36.987,-155.945,-75.867
0.563,0.618,0.222,-38.513,-155.762,-76.294
0.535,0.573,0.191,-42.725,-153.564,-77.942
0.521,0.557,0.174,-49.316,-147.522,-79.529
0.501,0.568,0.170,-56.641,-139.160,-80.017
0.473,0.621,0.175,-61.584,-130.127,-80.872
0.448,0.705,0.200,-62.317,-119.019,-84.229
0.477,0.755,0.233,-58.594,-106.506,-88.623
0.532,0.811,0.282,-51.819,-96.680,-93.384
0.543,0.850,0.334,-43.396,-90.820,-98.572
0.545,0.822,0.366,-34.241,-88.013,-102.783
0.560,0.746,0.369,-28.198,-85.876,-105.225
0.583,0.674,0.363,-26.611,-83.679,-107.910
0.605,0.614,0.349,-30.457,-81.604,-111.023
0.637,0.566,0.325,-38.269,-81.238,-114.319
0.632,0.551,0.296,-47.729,-82.581,-118.591
0.629,0.555,0.281,-55.908,-83.191,-123.413
0.642,0.586,0.279,-62.805,-82.825,-126.038
0.630,0.630,0.291,-65.796,-81.604,-127.502
0.613,0.674,0.314,-63.354,-79.102,-128.601
0.608,0.704,0.341,-56.152,-73.608,-129.639
0.606,0.709,0.364,-46.204,-65.491,-130.554
0.642,0.680,0.387,-35.156,-56.885,-131.165
0.682,0.649,0.401,-26.123,-50.293,-130.981
0.723,0.608,0.416,-19.897,-47.791,-131.042
0.774,0.561,0.420,-18.555,-50.171,-130.554

1.824,1.142,-0.326,49.011,87.158,-4.456
2.145,1.347,-0.446,52.917,95.886,1.099
2.480,1.600,-0.607,51.392,101.318,9.399
2.837,1.933,-0.792,46.387,108.521,20.935
3.221,2.254,-1.019,42.603,122.803,36.438
3.807,2.495,-1.247,41.565,150.513,56.885
4.000,2.751,-1.442,44.006,190.430,86.548
4.000,2.825,-1.588,51.819,229.614,133.667
4.000,2.668,-1.679,69.031,252.136,201.050
4.000,2.312,-1.659,98.877,251.892,269.592
4.000,1.710,-1.554,139.160,231.018,329.590
4.000,0.966,-1.430,181.641,191.650,381.348
3.865,0.224,-1.339,218.689,146.851,420.410
3.209,-0.396,-1.282,245.544,116.333,443.909
2.535,-0.848,-1.300,261.963,111.755,451.233
1.992,-1.140,-1.277,269.104,137.817,444.885
1.628,-1.210,-1.141,273.132,182.678,426.758
1.458,-1.171,-1.006,283.447,228.516,400.146
1.440,-1.150,-0.858,299.011,259.399,369.080
1.406,-1.182,-0.679,317.139,267.395,331.360
1.268,-1.196,-0.513,336.426,254.150,287.415
1.058,-1.187,-0.423,351.807,230.042,249.878
0.805,-1.216,-0.348,359.680,205.261,218.933
0.684,-1.289,-0.234,360.596,189.270,187.988
0.599,-1.374,-0.150,353.088,175.415,157.166
0.466,-1.398,-0.058,334.167,163.208,126.587
0.427,-1.339,0.058,303.711,153.076,100.586
0.444,-1.232,0.141,265.625,139.709,82.092
0.429,-1.178,0.187,223.755,121.704,68.787
0.351,-1.129,0.187,178.162,102.478,60.608
0.240,-1.026,0.158,133.301,85.815,57.678
0.176,-0.932,0.138,94.971,77.454,55.298
0.150,-0.842,0.120,63.965,75.439,51.208
0.120,-0.745,0.100,40.222,75.439,43.579
0.052,-0.635,0.075,24.841,77.454,32.471
0.087,-0.538,0.066,17.700,83.679,20.386
0.202,-0.431,0.084,16.968,89.050,7.629
0.270,-0.314,0.105,21.362,86.853,-5.005
0.334,-0.226,0.139,27.527,77.026,-15.198
0.407,-0.141,0.171,34.668,59.082,-22.400
0.400,-0.082,0.184,40.039,34.973,-26.611
0.358,-0.003,0.207,42.664,10.376,-30.457
0.295,0.062,0.205,42.419,-11.475,-33.020
0.249,0.145,0.218,40.405,-28.931,-36.377
0.220,0.214,0.228,37.659,-42.969,-39.978
0.152,0.296,0.229,35.217,-53.772,-44.373
0.104,0.347,0.231,33.142,-57.861,-47.302
0.118,0.374,0.247,29.480,-55.664,-46.509
0.125,0.376,0.262,23.376,-50.781,-44.861
0.142,0.368,0.264,15.564,-45.105,-43.518
0.181,0.369,0.262,6.226,-38.818,-40.833
0.199,0.401,0.256,-3.479,-32.959,-37.354
0.151,0.471,0.240,-12.146,-26.306,-35.156
0.134,0.526,0.241,-18.127,-14.893,-34.424
0.185,0.600,0.272,-21.729,-0.854,-32.410
0.265,0.654,0.301,-23.865,10.986,-27.954
0.319,0.652,0.310,-26.184,17.334,-21.729
0.343,0.673,0.323,-29.419,18.982,-16.663
0.350,0.761,0.340,-32.654,16.663,-12.939
0.357,0.806,0.344,-34.058,11.414,-10.986
0.376,0.794,0.340,-34.302,4.578,-9.949
0.384,0.749,0.329,-35.278,-4.272,-10.559
0.364,0.699,0.316,-38.025,-14.465,-13.550
0.334,0.667,0.293,-42.297,-24.170,-17.029
0.280,0.619,0.259,-46.082,-30.701,-19.287
0.255,0.600,0.237,-49.438,-31.921,-21.118
0.220,0.581,0.210,-51.575,-29.358,-23.315
0.173,0.651,0.194,-52.063,-22.156,-26.611
0.177,0.722,0.206,-50.293,-9.766,-28.992
0.215,0.726,0.215,-46.570,3.479,-29.175
0.261,0.736,0.247,-43.640,15.564,-29.053
0.331,0.744,0.286,-41.809,23.193,-29.480
0.409,0.701,0.313,-41.504,23.621,-30.212
0.495,0.638,0.327,-44.312,16.907,-31.372
0.569,0.566,0.327,-50.110,2.319,-33.081
0.565,0.507,0.292,-57.861,-18.616,-35.889
0.482,0.499,0.238,-65.918,-39.978,-41.260
0.418,0.513,0.188,-72.571,-52.551,-48.340
0.383,0.534,0.149,-76.599,-56.335,-55.603
0.336,0.584,0.128,-78.125,-53.284,-62.073
0.344,0.653,0.137,-76.172,-44.128,-65.857
0.410,0.689,0.156,-71.899,-34.851,-65.002
0.487,0.682,0.178,-67.566,-29.968,-61.279
0.557,0.626,0.192,-65.796,-31.311,-57.556
0.615,0.548,0.183,-67.749,-39.429,-55.298
0.663,0.470,0.151,-74.158,-53.162,-55.359
0.641,0.417,0.099,-83.008,-70.679,-57.800
0.600,0.383,0.031,-91.675,-85.815,-62.073
0.599,0.450,-0.014,-99.426,-94.788,-66.589
0.610,0.510,-0.047,-102.966,-99.854,-71.167
0.602,0.528,-0.084,-101.685,-102.966,-75.500
0.614,0.562,-0.109,-98.938,-103.210,-79.346
0.673,0.610,-0.105,-95.337,-101.746,-82.458
0.731,0.607,-0.110,-91.858,-101.990,-85.327
0.758,0.564,-0.121,-90.271,-104.370,-88.379
0.808,0.522,-0.130,-90.759,-107.300,-91.675
0.837,0.505,-0.136,-92.957,-110.962,-95.398
0.839,0.501,-0.147,-95.398,-115.295,-99.060
0.841,0.511,-0.157,-96.619,-119.629,-102.539
0.835,0.520,-0.167,-96.924,-123.901,-106.384
0.819,0.534,-0.172,-96.436,-126.770,-110.657
0.817,0.562,-0.167,-95.093,-128.052,-114.624
0.831,0.591,-0.152,-93.323,-127.808,-116.760
0.879,0.577,-0.138,-91.858,-126.221,-116.577
0.973,0.545,-0.115,-92.834,-124.390,-113.831
1.050,0.521,-0.095,-97.961,-124.512,-108.276
1.051,0.515,-0.113,-105.774,-129.517,-101.501
0.941,0.529,-0.180,-113.464,-134.644,-97.900
0.829,0.579,-0.245,-120.117,-128.418,-96.741
0.761,0.613,-0.282,-124.756,-107.849,-97.168
0.776,0.611,-0.278,-126.648,-76.355,-99.060
0.885,0.637,-0.230,-127.258,-42.908,-99.792
1.003,0.671,-0.164,-125.671,-18.372,-99.121
1.146,0.701,-0.090,-120.483,-7.812,-97.351
1.293,0.716,-0.027,-111.877,-13.062,-94.604
1.337,0.709,0.002,-100.708,-33.386,-91.797
1.252,0.683,-0.023,-89.478,-59.326,-90.088
1.202,0.641,-0.060,-80.383,-76.172,-88.684
1.136,0.626,-0.084,-74.768,-80.994,-86.670

1.294,0.945,-0.801,59.509,129.211,-40.649
1.426,1.165,-0.957,63.232,144.775,-34.180
1.635,1.415,-1.112,66.162,160.583,-23.682
1.872,1.669,-1.310,67.627,168.335,-6.592
1.995,1.947,-1.593,68.359,166.321,13.794
2.058,2.260,-1.996,71.289,165.527,33.508
2.255,2.651,-2.413,77.148,179.932,56.335
2.566,3.047,-2.803,87.524,212.158,85.693
3.034,3.295,-3.228,102.051,254.944,122.131
3.575,3.365,-3.675,120.056,298.889,165.344
3.953,3.245,-4.000,146.851,334.534,211.121
4.000,2.946,-4.000,186.890,357.178,256.531
4.000,2.474,-4.000,240.967,364.685,298.157
3.894,1.777,-4.000,307.068,357.605,328.064
3.728,1.000,-4.000,373.901,338.135,343.567
3.566,0.250,-3.799,433.838,306.763,343.140
3.319,-0.400,-3.504,482.544,261.719,330.994
2.973,-0.963,-3.238,516.174,207.886,314.270
2.591,-1.384,-2.931,534.424,157.898,296.936
2.231,-1.621,-2.620,536.133,120.178,278.931
1.904,-1.735,-2.351,525.879,96.130,260.315
1.673,-1.819,-2.078,507.568,86.792,241.028
1.547,-1.739,-1.746,483.215,90.149,217.957
1.462,-1.501,-1.424,455.627,98.450,196.411
1.242,-1.398,-1.188,430.725,106.018,179.932
1.049,-1.352,-1.018,407.349,115.356,160.278
0.856,-1.347,-0.837,386.108,127.075,137.939
0.802,-1.259,-0.662,365.601,137.268,111.755
0.872,-1.379,-0.569,342.468,139.893,89.783
0.803,-1.435,-0.420,310.791,133.118,76.660
0.813,-1.389,-0.296,268.921,119.263,80.933
0.651,-1.316,-0.266,222.351,99.487,92.712
0.377,-1.164,-0.283,183.167,82.336,89.539
0.221,-1.079,-0.336,160.767,77.087,75.745
0.121,-0.954,-0.310,153.259,81.543,51.086
0.181,-0.869,-0.240,155.212,88.684,27.222
0.328,-0.775,-0.020,162.781,86.792,5.493
0.312,-0.762,-0.002,169.739,62.378,-10.071
0.265,-0.749,0.096,166.687,36.499,-20.508
0.195,-0.697,0.127,157.166,16.235,-31.128
0.128,-0.645,0.182,143.799,2.991,-40.344
0.096,-0.559,0.242,125.916,-0.977,-43.884
0.057,-0.472,0.288,106.445,-0.244,-43.274
0.039,-0.359,0.363,88.074,5.249,-41.687
0.065,-0.232,0.442,72.693,12.146,-40.222
0.115,-0.133,0.510,60.486,16.541,-39.001
0.163,-0.044,0.569,49.927,17.029,-38.208
0.209,0.013,0.606,39.978,12.268,-38.696
0.231,0.063,0.631,30.396,2.686,-40.344
0.242,0.136,0.638,20.386,-10.681,-40.344
0.250,0.168,0.607,11.353,-25.208,-35.461
0.214,0.208,0.567,3.479,-36.194,-30.518
0.140,0.270,0.531,-2.991,-41.626,-27.222
0.104,0.342,0.516,-7.507,-39.368,-24.963
0.079,0.371,0.507,-10.925,-32.166,-22.827
0.082,0.386,0.517,-14.954,-22.095,-21.667
0.093,0.412,0.530,-19.592,-12.756,-22.095
0.070,0.433,0.529,-24.170,-4.517,-23.743
0.029,0.524,0.550,-28.870,4.150,-25.085
0.018,0.607,0.545,-31.128,12.756,-22.522
0.054,0.603,0.568,-31.860,21.545,-15.808
0.133,0.613,0.620,-33.203,26.917,-11.719
0.196,0.563,0.639,-36.438,21.851,-8.301
0.190,0.544,0.628,-41.931,9.766,-7.996
0.137,0.542,0.605,-48.096,-2.869,-11.902
0.097,0.573,0.584,-51.147,-13.245,-19.104
0.108,0.640,0.586,-51.453,-21.240,-27.771
0.123,0.671,0.583,-49.744,-29.663,-33.875
0.082,0.638,0.549,-48.645,-37.170,-36.499
0.060,0.619,0.520,-49.500,-38.147,-38.269
0.054,0.581,0.501,-53.040,-32.166,-40.588
0.103,0.523,0.492,-58.228,-23.071,-42.297
0.186,0.452,0.476,-65.002,-15.076,-43.030
0.253,0.432,0.459,-72.693,-10.803,-45.105
0.318,0.447,0.444,-80.078,-11.414,-48.767
0.385,0.449,0.429,-85.144,-17.761,-52.734
0.444,0.477,0.421,-89.172,-29.053,-58.350
0.472,0.508,0.401,-91.064,-44.739,-66.223
0.499,0.516,0.367,-91.797,-62.805,-72.754
0.515,0.505,0.321,-92.896,-80.994,-75.317
0.504,0.471,0.264,-93.506,-97.046,-75.684
0.464,0.417,0.201,-93.994,-109.253,-75.928
0.435,0.379,0.149,-94.849,-115.417,-77.026
0.443,0.396,0.121,-96.802,-116.760,-79.773
0.449,0.434,0.109,-98.633,-117.554,-84.778
0.475,0.473,0.113,-99.854,-118.835,-90.454
0.529,0.499,0.126,-100.220,-123.108,-96.252
0.569,0.538,0.135,-100.769,-130.737,-102.417
0.585,0.546,0.132,-101.135,-141.113,-107.239
0.602,0.520,0.116,-100.464,-152.161,-109.009
0.602,0.465,0.101,-99.609,-161.987,-109.802
0.603,0.415,0.084,-99.854,-170.166,-111.389
0.630,0.405,0.081,-101.746,-178.040,-115.356
0.670,0.413,0.081,-104.187,-187.134,-120.544
0.693,0.430,0.064,-106.140,-199.280,-127.441
0.680,0.497,0.044,-107.361,-212.219,-136.108
0.659,0.594,0.032,-105.835,-221.924,-145.508
0.666,0.668,0.046,-100.403,-227.173,-152.527
0.716,0.666,0.061,-92.407,-229.797,-156.189
0.790,0.639,0.070,-85.938,-232.788,-156.677
0.822,0.616,0.066,-82.520,-237.915,-156.372
0.812,0.580,0.053,-80.139,-242.737,-156.677
0.770,0.549,0.046,-77.637,-244.507,-158.386
0.709,0.526,0.035,-74.280,-242.310,-162.048
0.622,0.514,0.025,-69.580,-233.704,-168.091
0.560,0.503,0.041,-63.721,-216.187,-175.171
0.545,0.513,0.084,-57.617,-190.308,-181.274
0.556,0.561,0.137,-52.795,-161.377,-185.425
0.594,0.574,0.186,-48.706,-133.728,-187.988
0.668,0.555,0.237,-46.631,-109.314,-188.660
0.733,0.521,0.279,-47.913,-90.271,-189.758
0.795,0.447,0.286,-52.795,-76.416,-192.017
0.851,0.377,0.280,-62.439,-64.331,-194.580
0.907,0.327,0.268,-75.500,-53.223,-196.411
0.963,0.299,0.242,-89.722,-43.762,-196.411
0.998,0.290,0.213,-102.478,-35.828,-196.594
1.017,0.298,0.184,-112.061,-29.053,-197.815
1.042,0.315,0.161,-118.469,-24.292,-198.914
1.081,0.320,0.135,-120.178,-22.278,-200.439

1.632,1.577,-0.661,23.132,144.043,-6.104
2.194,1.926,-0.884,15.076,199.829,-2.747
2.934,2.199,-1.209,10.254,247.375,9.827
3.721,2.442,-1.628,10.559,279.541,30.945
4.000,2.708,-2.029,17.334,294.434,65.369
4.000,2.845,-2.361,39.307,290.833,116.638
4.000,2.775,-2.601,83.069,275.635,182.861
4.000,2.476,-2.730,140.381,254.639,252.380
4.000,1.987,-2.837,200.317,241.577,309.265
3.829,1.362,-2.844,254.150,246.704,348.389
3.566,0.751,-2.686,296.021,269.470,375.244
3.483,0.214,-2.462,326.721,300.598,390.381
3.474,-0.266,-2.188,351.807,326.538,396.301
3.479,-0.686,-1.895,371.826,336.548,395.874
3.467,-1.058,-1.654,385.376,325.378,395.081
3.342,-1.327,-1.460,388.916,291.809,395.813
3.116,-1.537,-1.288,384.155,244.507,390.869
2.842,-1.746,-1.187,373.596,194.336,375.122
2.524,-1.796,-1.073,358.215,150.513,350.281
2.204,-1.615,-0.913,340.149,118.286,322.815
1.975,-1.491,-0.733,323.853,93.872,297.668
1.713,-1.579,-0.656,309.387,74.402,273.621
1.365,-1.645,-0.620,288.574,67.627,249.756
1.033,-1.568,-0.573,260.620,80.017,226.929
0.871,-1.399,-0.509,232.788,109.497,204.834
0.830,-1.193,-0.398,208.862,146.667,186.157
0.828,-1.043,-0.289,191.284,178.467,171.631
0.844,-0.962,-0.188,179.199,195.984,159.363
0.844,-0.902,-0.094,170.471,197.205,147.095
0.753,-0.873,-0.033,162.231,182.861,133.423
0.609,-0.869,-0.005,154.175,160.034,118.286
0.464,-0.827,0.011,145.874,137.024,100.586
0.316,-0.732,0.043,137.939,118.408,80.261
0.211,-0.671,0.073,131.165,105.103,60.547
0.172,-0.632,0.106,123.962,95.215,44.250
0.158,-0.549,0.151,115.051,86.853,31.067
0.138,-0.412,0.224,106.262,78.369,22.034
0.132,-0.314,0.289,100.464,67.017,16.846
0.135,-0.261,0.334,95.642,51.697,13.428
0.097,-0.195,0.371,89.417,35.522,8.057
0.045,-0.098,0.421,82.581,20.447,0.122
0.025,-0.007,0.470,76.233,6.531,-7.568
0.029,0.079,0.508,70.679,-7.568,-14.832
0.056,0.137,0.541,63.843,-23.254,-20.447
0.060,0.194,0.555,55.481,-41.382,-24.902
0.028,0.261,0.546,46.021,-59.875,-29.663
0.002,0.302,0.518,37.354,-75.134,-33.508
-0.051,0.328,0.480,28.870,-84.717,-35.950
-0.143,0.361,0.431,20.752,-85.999,-37.720
-0.219,0.399,0.377,13.245,-75.867,-38.025
-0.231,0.427,0.349,6.226,-53.955,-35.889
-0.204,0.463,0.350,-0.549,-26.367,-34.424
-0.129,0.498,0.381,-6.104,-0.427,-36.011
-0.013,0.547,0.429,-11.047,19.043,-39.734
0.085,0.580,0.474,-15.320,27.039,-43.152
0.177,0.692,0.519,-19.470,23.193,-44.983
0.237,0.715,0.517,-20.874,8.850,-40.527
0.195,0.696,0.476,-20.020,-9.827,-35.767
0.132,0.729,0.443,-18.799,-25.330,-34.973
0.087,0.722,0.413,-17.578,-34.363,-36.011
0.036,0.697,0.394,-16.907,-38.208,-40.344
0.014,0.718,0.396,-18.494,-38.757,-46.204
0.006,0.693,0.380,-21.118,-37.537,-48.828
0.001,0.654,0.350,-24.658,-33.691,-49.988
-0.050,0.687,0.316,-29.419,-25.940,-51.880
-0.050,0.729,0.308,-33.142,-13.000,-51.636
0.002,0.728,0.313,-34.607,1.465,-48.096
0.076,0.712,0.330,-35.889,13.306,-45.715
0.159,0.708,0.353,-37.476,18.372,-46.204
0.226,0.676,0.361,-38.757,15.381,-49.255
0.258,0.639,0.352,-40.710,6.958,-54.321
0.279,0.621,0.345,-42.664,-3.479,-60.547
0.288,0.601,0.327,-43.640,-15.076,-66.711
0.289,0.578,0.299,-43.884,-26.306,-72.021
0.293,0.534,0.267,-44.434,-34.546,-75.439
0.274,0.497,0.237,-47.363,-39.856,-76.172
0.256,0.464,0.211,-52.246,-42.053,-74.402
0.222,0.403,0.157,-57.434,-40.894,-73.120
0.184,0.347,0.099,-64.331,-34.485,-74.402
0.162,0.317,0.058,-72.815,-22.461,-78.491
0.148,0.324,0.023,-81.177,-8.057,-83.984
0.174,0.340,-0.003,-88.562,6.470,-89.844
0.219,0.361,-0.024,-94.788,19.104,-95.825
0.268,0.379,-0.037,-98.816,26.978,-102.051
0.323,0.400,-0.041,-100.708,29.480,-108.398
0.385,0.388,-0.041,-99.731,27.588,-115.051
0.459,0.347,-0.035,-97.168,21.667,-121.643
0.534,0.328,-0.026,-94.666,11.108,-127.380
0.609,0.325,-0.015,-93.628,-2.808,-131.042
0.677,0.370,-0.003,-92.834,-20.569,-132.568
0.697,0.425,0.006,-92.285,-41.260,-131.409
0.727,0.434,0.010,-91.980,-62.378,-127.319
0.769,0.402,0.008,-92.651,-84.595,-121.094
0.766,0.394,-0.007,-94.666,-106.323,-115.784
0.737,0.422,-0.037,-97.168,-125.427,-113.953
0.716,0.439,-0.071,-99.060,-139.221,-115.723
0.716,0.443,-0.093,-99.792,-147.217,-120.178
0.746,0.479,-0.100,-99.487,-150.269,-126.709
0.775,0.514,-0.101,-98.511,-150.757,-132.874
0.822,0.499,-0.105,-96.497,-148.499,-136.475
0.886,0.456,-0.104,-95.642,-144.409,-136.780
0.948,0.411,-0.093,-95.398,-140.015,-136.414
1.003,0.369,-0.082,-95.764,-135.315,-134.766
1.037,0.350,-0.078,-97.717,-131.287,-130.859
1.055,0.326,-0.091,-99.792,-127.869,-127.075
1.054,0.360,-0.114,-101.563,-123.474,-124.084
1.040,0.418,-0.132,-102.905,-117.065,-123.718
1.043,0.419,-0.154,-101.990,-108.032,-125.977
1.071,0.419,-0.153,-99.609,-95.154,-131.409
1.119,0.412,-0.122,-96.191,-81.116,-137.024
1.172,0.372,-0.094,-92.957,-70.129,-138.367
1.222,0.344,-0.067,-91.675,-63.049,-135.986
1.256,0.318,-0.049,-91.064,-59.631,-132.629
1.295,0.289,-0.040,-90.637,-57.922,-130.188
1.316,0.283,-0.041,-91.309,-58.105,-128.479
1.323,0.294,-0.065,-93.018,-59.326,-126.892
1.298,0.330,-0.105,-94.849,-59.753,-124.939
1.260,0.375,-0.150,-96.558,-55.664,-123.779
1.265,0.424,-0.151,-95.886,-43.762,-122.681

0.605,1.710,-0.970,-10.071,114.014,15.808
0.642,1.899,-1.269,-0.977,154.602,15.259
0.822,2.052,-1.647,12.390,218.262,7.996
1.322,2.192,-2.020,26.489,304.443,2.197
2.246,2.381,-2.336,38.330,392.700,12.939
3.144,2.596,-2.667,52.612,443.542,38.208
3.855,2.745,-3.012,74.890,445.190,69.763
4.000,2.779,-3.403,108.215,407.104,104.736
4.000,2.676,-3.855,148.010,352.295,141.602
4.000,2.400,-4.000,190.125,305.908,178.467
4.000,2.068,-4.000,232.178,277.710,212.830
4.000,1.590,-4.000,276.306,266.479,246.643
3.804,1.037,-4.000,321.899,268.677,278.564
3.548,0.473,-3.910,359.619,279.907,303.223
3.349,-0.072,-3.582,390.869,289.795,316.284
3.152,-0.571,-3.236,415.955,293.396,314.819
2.998,-0.955,-2.852,432.068,288.513,304.626
2.866,-1.214,-2.410,440.674,270.752,291.077
2.698,-1.431,-1.994,444.336,236.145,273.682
2.422,-1.599,-1.687,441.406,186.523,250.854
2.067,-1.664,-1.434,427.856,135.132,224.976
1.735,-1.579,-1.175,406.921,93.628,199.097
1.436,-1.444,-0.995,384.583,63.782,175.293
1.158,-1.311,-0.858,363.586,46.692,153.320
0.952,-1.230,-0.741,343.750,44.922,134.094
0.790,-1.174,-0.638,326.050,52.612,117.920
0.633,-1.125,-0.561,307.922,67.810,102.234
0.568,-1.114,-0.458,287.537,88.440,89.905
0.538,-1.102,-0.339,263.428,107.788,82.886
0.493,-1.087,-0.236,234.985,120.483,79.285
0.386,-1.092,-0.160,203.613,127.197,74.219
0.314,-1.073,-0.118,170.166,129.761,66.528
0.193,-0.998,-0.134,137.634,130.127,57.617
0.040,-0.912,-0.192,112.610,133.179,45.715
0.104,-0.770,-0.051,98.938,143.616,28.625
0.221,-0.609,0.082,100.769,140.198,9.460
0.342,-0.691,0.068,112.183,112.183,-2.991
0.338,-0.682,0.133,119.873,77.148,-16.785
0.277,-0.574,0.210,124.939,41.138,-33.813
0.248,-0.587,0.254,131.348,4.822,-47.241
0.277,-0.652,0.281,131.714,-25.330,-55.237
0.256,-0.632,0.316,122.681,-49.744,-59.631
0.184,-0.589,0.324,108.215,-67.505,-62.927
0.072,-0.559,0.268,91.858,-75.256,-70.007
-0.067,-0.221,0.436,74.585,-68.726,-78.796
0.002,0.013,0.478,64.880,-63.293,-69.275
0.136,-0.191,0.383,61.829,-59.082,-45.044
0.006,-0.095,0.427,53.284,-47.852,-39.307
-0.004,0.044,0.477,43.030,-32.227,-43.701
0.052,0.054,0.518,35.828,-17.700,-47.424
0.158,0.157,0.552,26.550,-9.705,-50.537
0.208,0.185,0.565,15.991,-9.155,-47.424
0.229,0.207,0.540,5.249,-12.512,-42.786
0.192,0.259,0.506,-5.249,-15.503,-40.161
0.095,0.320,0.435,-14.709,-14.465,-39.978
0.188,0.528,0.539,-23.560,-5.066,-37.476
0.284,0.497,0.512,-26.855,-2.136,-26.611
0.273,0.512,0.501,-31.128,-4.822,-20.386
0.213,0.562,0.495,-38.086,-6.226,-19.836
0.178,0.608,0.517,-43.274,-6.592,-22.705
0.185,0.603,0.505,-47.852,-8.789,-23.621
0.221,0.619,0.517,-53.589,-12.634,-23.071
0.225,0.626,0.515,-58.777,-19.836,-24.109
0.187,0.601,0.472,-62.622,-29.663,-25.208
0.134,0.626,0.421,-67.017,-37.109,-26.672
0.097,0.634,0.376,-69.824,-39.307,-27.100
0.087,0.632,0.352,-70.068,-37.598,-28.137
0.108,0.606,0.347,-68.481,-35.034,-31.006
0.147,0.591,0.357,-65.186,-35.095,-35.706
0.200,0.560,0.367,-61.157,-38.879,-41.321
0.231,0.527,0.367,-58.167,-47.119,-47.974
0.244,0.525,0.369,-56.946,-58.411,-55.420
0.245,0.557,0.365,-56.519,-71.045,-62.988
0.250,0.555,0.335,-57.373,-83.069,-68.298
0.230,0.521,0.277,-60.120,-93.567,-71.289
0.216,0.500,0.218,-66.467,-99.304,-74.097
0.226,0.492,0.165,-75.134,-99.792,-77.515
0.271,0.479,0.127,-83.557,-98.022,-81.970
0.329,0.459,0.083,-89.539,-97.229,-87.402
0.377,0.457,0.039,-92.834,-98.328,-93.811
0.440,0.488,0.010,-91.309,-101.624,-100.708
0.498,0.517,-0.005,-86.243,-108.154,-107.605
0.523,0.559,-0.019,-78.247,-118.347,-115.479
0.535,0.601,-0.031,-69.885,-129.333,-124.084
0.550,0.604,-0.045,-62.927,-138.794,-132.507
0.583,0.573,-0.037,-59.082,-145.325,-140.808
0.608,0.514,-0.039,-58.350,-150.452,-149.048
0.558,0.467,-0.074,-60.730,-152.527,-157.471
0.481,0.440,-0.113,-67.078,-145.264,-164.551
0.445,0.409,-0.134,-75.623,-125.488,-168.579
0.468,0.371,-0.127,-84.595,-96.069,-168.457
0.544,0.377,-0.097,-92.529,-65.063,-165.649
0.635,0.452,-0.042,-96.924,-39.917,-161.377
0.743,0.496,0.021,-94.971,-24.719,-155.518
0.872,0.477,0.078,-87.769,-22.278,-148.865
0.971,0.467,0.119,-79.712,-32.654,-144.470
1.006,0.450,0.119,-73.853,-51.880,-144.653
1.001,0.382,0.061,-71.411,-72.388,-148.254
0.969,0.310,-0.002,-73.059,-85.449,-154.053
0.948,0.258,-0.050,-77.820,-87.830,-161.133
0.960,0.232,-0.089,-84.106,-80.872,-167.969
0.988,0.235,-0.104,-88.867,-68.237,-172.058
1.032,0.256,-0.089,-90.027,-53.833,-172.852
1.102,0.270,-0.070,-86.243,-41.504,-170.166
1.173,0.260,-0.044,-78.674,-33.630,-163.757
1.266,0.247,-0.011,-70.740,-31.860,-155.762
1.305,0.241,0.001,-63.904,-36.682,-149.902
1.261,0.212,-0.030,-59.326,-43.518,-148.254
1.219,0.177,-0.085,-58.716,-43.457,-150.452
1.206,0.161,-0.138,-62.134,-32.593,-154.846
1.244,0.149,-0.167,-68.481,-13.489,-158.691
1.397,0.145,-0.149,-77.393,7.507,-158.875
1.574,0.167,-0.112,-87.585,20.691,-155.640
1.675,0.188,-0.100,-96.558,20.752,-151.917
1.719,0.212,-0.106,-103.394,12.695,-147.644
1.719,0.248,-0.112,-107.483,1.648,-143.066
1.677,0.291,-0.116,-108.459,-8.545,-138.977
1.623,0.300,-0.134,-105.957,-16.052,-135.498
1.580,0.284,-0.158,-102.600,-18.494,-132.507

1.523,1.090,-0.479,-15.381,135.071,-7.141
1.669,1.390,-0.688,-17.761,140.259,1.465
1.767,1.740,-0.938,-18.372,151.978,15.564
1.897,2.097,-1.201,-14.771,182.800,29.968
2.354,2.368,-1.474,-7.385,238.647,42.664
3.301,2.627,-1.651,3.723,303.711,57.190
4.000,2.789,-1.817,20.020,344.299,72.876
4.000,2.891,-2.049,41.626,348.694,97.961
4.000,2.833,-2.333,70.435,324.219,139.160
4.000,2.558,-2.649,110.962,297.363,198.364
4.000,2.054,-2.973,158.386,294.312,265.320
4.000,1.399,-3.176,206.970,328.125,322.449
3.966,0.685,-3.160,251.282,384.766,357.849
3.702,0.012,-2.951,291.016,436.340,368.958
3.645,-0.508,-2.523,325.378,459.717,362.610
3.592,-0.887,-2.040,356.018,440.063,347.717
3.284,-1.234,-1.675,383.850,377.502,331.177
2.735,-1.517,-1.442,402.649,292.114,316.101
2.141,-1.715,-1.276,411.499,212.952,299.377
1.595,-1.813,-1.172,410.339,154.907,278.198
1.156,-1.765,-1.067,397.156,123.413,251.892
0.898,-1.626,-0.902,374.023,115.662,226.990
0.819,-1.485,-0.710,346.497,119.873,203.674
0.820,-1.346,-0.514,319.580,125.793,178.223
0.760,-1.219,-0.370,295.776,127.869,151.245
0.708,-1.061,-0.229,276.733,125.916,126.343
0.705,-0.935,-0.093,262.634,120.239,108.398
0.676,-0.867,0.008,251.770,109.497,94.238
0.548,-0.822,0.069,239.990,94.666,84.717
0.411,-0.837,0.094,225.403,79.834,81.543
0.335,-0.840,0.137,205.139,71.655,80.383
0.235,-0.828,0.182,178.894,69.336,81.482
0.112,-0.838,0.186,149.536,69.702,78.979
0.019,-0.785,0.183,120.667,73.853,70.435
-0.012,-0.703,0.184,96.558,81.848,57.312
-0.029,-0.600,0.174,79.163,90.393,43.030
0.029,-0.510,0.219,67.932,96.191,31.738
0.116,-0.442,0.261,63.477,93.689,22.156
0.182,-0.391,0.266,63.171,82.214,12.756
0.190,-0.335,0.272,62.378,65.796,3.967
0.156,-0.298,0.259,60.974,47.852,-4.517
0.145,-0.219,0.282,58.350,32.532,-12.390
0.167,-0.116,0.320,55.054,17.395,-17.822
0.220,-0.099,0.324,52.612,0.488,-20.325
0.224,-0.056,0.328,47.974,-16.541,-22.766
0.177,0.014,0.341,42.175,-32.898,-26.062
0.169,0.081,0.349,37.659,-46.326,-28.625
0.143,0.129,0.343,33.997,-57.312,-31.616
0.079,0.176,0.338,30.273,-64.148,-35.706
0.066,0.224,0.341,26.489,-64.575,-37.842
0.062,0.254,0.345,21.729,-60.486,-37.781
0.027,0.286,0.342,15.747,-53.955,-38.269
0.001,0.318,0.350,9.033,-43.945,-39.307
0.020,0.330,0.353,2.136,-31.799,-38.879
0.057,0.347,0.381,-5.737,-20.081,-39.368
0.102,0.387,0.404,-13.367,-13.062,-41.199
0.125,0.414,0.404,-21.423,-11.414,-42.603
0.141,0.451,0.396,-29.663,-13.672,-42.358
0.164,0.489,0.382,-36.438,-19.348,-40.649
0.187,0.523,0.376,-41.443,-26.978,-40.161
0.194,0.556,0.361,-43.945,-37.048,-42.664
0.170,0.575,0.332,-44.250,-48.462,-49.072
0.160,0.569,0.308,-44.617,-58.105,-57.129
0.155,0.624,0.326,-45.959,-66.650,-64.514
0.151,0.604,0.305,-46.387,-76.599,-67.383
0.160,0.507,0.248,-46.936,-85.022,-67.261
0.138,0.453,0.213,-50.842,-88.623,-69.519
0.148,0.457,0.235,-56.763,-88.135,-73.242
0.206,0.480,0.262,-61.340,-87.891,-75.562
0.266,0.460,0.262,-63.538,-92.468,-75.317
0.329,0.508,0.291,-66.406,-101.196,-77.271
0.384,0.498,0.283,-69.214,-116.638,-80.811
0.420,0.460,0.258,-71.777,-137.390,-85.938
0.425,0.476,0.207,-75.867,-159.912,-93.262
0.433,0.479,0.151,-79.773,-181.641,-102.356
0.460,0.430,0.080,-82.703,-200.378,-111.084
0.459,0.422,0.006,-85.266,-215.698,-119.751
0.456,0.451,-0.049,-85.571,-225.464,-129.883
0.487,0.437,-0.108,-83.130,-228.394,-140.442
0.570,0.479,-0.119,-80.139,-224.915,-151.917
0.702,0.562,-0.083,-76.111,-219.299,-164.673
0.858,0.583,-0.041,-70.007,-218.811,-176.208
1.002,0.587,-0.017,-63.171,-226.074,-185.730
1.078,0.644,-0.018,-56.274,-240.723,-194.824
1.086,0.703,-0.053,-48.218,-257.324,-200.928
1.099,0.751,-0.086,-40.649,-270.325,-200.562
1.078,0.786,-0.110,-32.715,-277.649,-193.481
1.034,0.791,-0.110,-25.269,-278.320,-183.533
1.001,0.755,-0.092,-18.616,-272.583,-174.011
0.969,0.716,-0.055,-12.756,-262.268,-167.847
0.923,0.680,-0.003,-7.324,-249.207,-165.710
0.897,0.686,0.054,-3.235,-233.643,-165.039
0.864,0.728,0.122,0.000,-216.919,-165.527
0.843,0.744,0.179,4.028,-197.876,-166.931
0.822,0.699,0.213,7.385,-177.734,-168.945
0.809,0.668,0.235,7.996,-153.870,-171.631
0.779,0.660,0.268,5.737,-127.258,-172.119
0.825,0.636,0.302,2.319,-98.816,-168.579
0.881,0.608,0.333,-0.854,-72.388,-162.781
0.913,0.593,0.363,-3.479,-50.598,-156.799
0.948,0.578,0.390,-4.089,-33.813,-151.184
0.974,0.570,0.424,-2.747,-22.461,-147.034
0.992,0.574,0.468,1.221,-15.991,-144.775
1.001,0.562,0.504,6.348,-14.099,-142.517
1.000,0.530,0.526,13.000,-16.479,-141.418
0.967,0.504,0.538,19.287,-19.165,-141.785
0.925,0.493,0.542,23.437,-19.836,-142.639
0.903,0.465,0.553,26.062,-17.456,-143.066
0.917,0.429,0.571,27.039,-13.000,-142.273
0.962,0.405,0.597,25.269,-8.850,-140.564
1.001,0.396,0.622,21.057,-6.592,-138.611
1.033,0.391,0.638,15.869,-5.859,-136.108
1.084,0.383,0.653,10.376,-6.714,-133.728
1.168,0.385,0.676,6.104,-10.193,-132.019
1.236,0.413,0.702,3.174,-18.921,-131.104
1.259,0.445,0.703,1.343,-33.264,-130.493
1.252,0.453,0.680,1.099,-49.316,-128.845
1.231,0.458,0.656,1.526,-62.378,-126.221
1.186,0.462,0.632,1.953,-70.313,-123.108

1.665,1.292,-0.480,31.311,129.333,26.855
1.945,1.549,-0.752,36.987,152.649,33.813
2.435,1.930,-1.017,49.072,198.120,44.556
3.341,2.245,-1.256,71.472,269.409,65.125
4.000,2.506,-1.481,97.229,349.609,97.290
4.000,2.626,-1.780,118.713,405.762,144.958
4.000,2.644,-2.210,131.165,422.363,209.229
4.000,2.562,-2.617,138.062,401.306,294.800
4.000,2.258,-2.899,150.879,360.107,395.203
4.000,1.750,-2.959,184.143,328.308,477.539
4.000,0.976,-2.909,240.356,315.796,524.780
3.847,0.128,-2.772,304.260,315.002,539.795
3.363,-0.687,-2.532,360.596,313.232,534.729
3.017,-1.350,-2.129,400.940,300.781,518.250
2.689,-1.747,-1.667,429.382,274.963,490.479
2.275,-1.902,-1.260,446.289,238.831,453.064
1.870,-1.971,-0.916,449.341,200.806,413.452
1.468,-1.970,-0.622,438.232,167.114,372.192
1.125,-1.863,-0.386,413.879,145.203,326.050
0.902,-1.629,-0.176,379.578,133.789,279.480
0.739,-1.345,-0.017,341.431,128.906,236.877
0.625,-1.086,0.127,306.824,125.549,201.477
0.516,-0.968,0.162,277.954,122.986,174.988
0.393,-0.969,0.116,249.817,122.864,154.297
0.339,-0.957,0.058,218.140,129.211,133.667
0.361,-0.883,0.037,185.547,139.893,112.183
0.411,-0.818,0.038,155.640,149.292,93.079
0.421,-0.779,0.047,128.662,152.649,78.308
0.440,-0.746,0.045,103.882,149.536,67.749
0.426,-0.722,0.036,81.116,141.174,59.875
0.313,-0.676,-0.025,59.814,129.333,50.293
0.166,-0.639,-0.101,42.053,121.460,40.222
0.134,-0.600,-0.109,29.907,119.812,27.527
0.163,-0.494,-0.080,25.330,116.821,10.132
0.193,-0.443,-0.073,27.527,107.361,-4.822
0.235,-0.403,-0.043,31.860,94.604,-17.029
0.299,-0.296,0.033,37.598,77.820,-29.175
0.348,-0.215,0.078,45.837,53.772,-39.246
0.347,-0.180,0.096,54.443,25.696,-46.753
0.327,-0.140,0.126,59.448,0.427,-50.415
0.281,-0.072,0.160,60.791,-19.958,-51.575
0.239,-0.026,0.183,59.814,-34.607,-50.476
0.187,-0.001,0.179,55.664,-42.725,-49.500
0.151,0.159,0.326,47.668,-43.762,-49.377
0.147,0.233,0.354,41.321,-49.194,-43.396
0.174,0.203,0.349,35.645,-55.420,-35.645
0.117,0.266,0.410,27.466,-56.641,-35.645
0.120,0.378,0.443,19.592,-57.129,-37.842
0.178,0.387,0.458,13.916,-59.814,-34.790
0.199,0.383,0.458,8.484,-64.514,-31.616
0.182,0.391,0.428,2.869,-69.092,-28.687
0.145,0.430,0.427,-3.235,-70.251,-27.039
0.091,0.486,0.427,-7.935,-67.566,-27.832
0.047,0.517,0.440,-11.475,-60.303,-30.701
0.028,0.580,0.466,-14.343,-49.744,-33.569
0.016,0.604,0.469,-16.785,-38.757,-33.264
0.001,0.641,0.465,-19.958,-27.466,-31.372
0.067,0.705,0.512,-23.193,-16.113,-28.015
0.146,0.720,0.533,-26.001,-11.719,-22.095
0.158,0.692,0.512,-30.273,-15.930,-16.418
0.116,0.687,0.484,-37.109,-22.705,-14.038
0.059,0.675,0.442,-44.373,-27.832,-14.526
0.016,0.674,0.422,-50.293,-29.663,-19.409
0.051,0.748,0.461,-53.955,-30.884,-26.794
0.107,0.705,0.440,-53.894,-38.269,-30.518
0.117,0.669,0.415,-53.528,-48.706,-34.485
0.088,0.701,0.416,-52.673,-58.777,-41.443
0.091,0.686,0.402,-49.744,-67.871,-48.523
0.096,0.650,0.391,-46.143,-74.402,-55.786
0.110,0.639,0.395,-42.969,-79.285,-64.453
0.139,0.629,0.401,-39.734,-84.290,-73.181
0.168,0.604,0.388,-37.476,-90.637,-80.811
0.177,0.582,0.361,-36.499,-97.961,-88.623
0.170,0.552,0.324,-38.025,-104.004,-96.680
0.163,0.502,0.274,-41.077,-107.361,-104.797
0.137,0.448,0.211,-45.715,-105.957,-113.708
0.055,0.420,0.144,-50.354,-97.412,-124.878
-0.011,0.423,0.095,-51.453,-77.148,-137.573
0.014,0.463,0.088,-48.035,-46.204,-148.987
0.101,0.500,0.099,-40.100,-13.733,-157.715
0.246,0.540,0.130,-29.175,12.939,-163.391
0.451,0.539,0.186,-17.578,28.442,-163.330
0.662,0.505,0.255,-6.714,27.100,-158.142
0.840,0.478,0.323,0.916,8.972,-150.940
0.936,0.449,0.371,3.052,-23.010,-142.944
0.922,0.394,0.352,-0.244,-63.965,-136.414
0.828,0.327,0.284,-7.568,-104.126,-134.033
0.721,0.275,0.202,-18.494,-134.460,-137.756
0.611,0.278,0.128,-31.250,-151.245,-147.461
0.529,0.293,0.091,-42.297,-153.931,-159.973
0.510,0.331,0.089,-50.842,-146.057,-170.532
0.534,0.395,0.122,-56.274,-133.423,-177.307
0.585,0.420,0.154,-58.350,-120.850,-180.298
0.647,0.402,0.159,-59.509,-110.962,-179.504
0.695,0.385,0.155,-61.707,-102.539,-176.514
0.741,0.376,0.153,-64.087,-94.421,-173.462
0.784,0.369,0.142,-66.589,-85.999,-171.265
0.814,0.370,0.126,-69.824,-77.026,-169.861
0.837,0.333,0.102,-73.242,-67.261,-168.396
0.861,0.286,0.080,-76.965,-56.519,-166.565
0.893,0.252,0.066,-82.703,-44.556,-163.940
0.930,0.237,0.059,-88.928,-32.104,-160.706
0.988,0.237,0.063,-93.933,-19.043,-157.959
1.053,0.287,0.078,-96.130,-6.958,-156.128
1.122,0.345,0.107,-94.482,2.686,-155.090
1.213,0.367,0.147,-88.867,8.057,-153.137
1.315,0.349,0.173,-81.482,7.202,-150.879
1.378,0.305,0.168,-74.524,0.671,-149.963
1.425,0.272,0.158,-70.923,-6.348,-150.269
1.477,0.267,0.157,-70.923,-12.390,-150.940
1.507,0.269,0.149,-72.815,-18.921,-151.550
1.526,0.273,0.131,-76.538,-25.085,-152.893
1.531,0.310,0.120,-82.520,-29.236,-153.809
1.508,0.351,0.115,-88.318,-32.043,-153.381
1.470,0.386,0.115,-93.140,-32.043,-150.757
1.460,0.422,0.124,-96.252,-28.809,-145.447
1.472,0.454,0.142,-96.558,-24.109,-138.794
1.494,0.493,0.173,-93.262,-19.958,-131.104
1.537,0.519,0.215,-88.013,-19.348,-121.704

1.430,1.077,-0.423,30.701,84.839,17.578
1.554,1.268,-0.535,26.672,117.737,36.316
1.761,1.461,-0.651,18.921,148.743,56.946
2.012,1.679,-0.790,10.437,172.119,77.209
2.253,1.887,-1.010,4.578,187.195,96.741
2.493,2.130,-1.305,2.014,199.951,119.263
2.744,2.419,-1.664,4.883,216.858,146.362
3.053,2.604,-2.069,18.677,244.263,177.124
3.552,2.622,-2.466,42.419,283.630,211.365
4.000,2.545,-2.745,75.378,325.562,245.789
4.000,2.371,-2.890,115.479,347.900,281.921
4.000,2.044,-2.936,161.316,338.623,320.984
4.000,1.552,-2.944,213.684,307.190,355.957
4.000,0.950,-2.935,266.907,268.494,382.080
4.000,0.319,-2.832,316.040,238.037,400.574
3.984,-0.227,-2.674,356.812,222.717,413.696
3.613,-0.745,-2.559,385.498,225.037,420.166
3.299,-1.207,-2.397,398.804,245.056,421.509
3.099,-1.526,-2.078,398.132,275.269,419.250
3.012,-1.657,-1.710,388.977,299.316,412.170
2.915,-1.679,-1.308,377.075,302.490,391.846
2.782,-1.645,-0.874,364.868,282.043,356.873
2.651,-1.517,-0.440,353.333,240.906,315.002
2.510,-1.348,-0.065,337.830,180.969,272.522
2.287,-1.333,0.137,316.772,109.985,238.464
1.912,-1.461,0.168,287.231,41.931,214.417
1.412,-1.509,0.153,250.244,-3.967,195.190
0.962,-1.485,0.094,209.290,-18.066,178.345
0.631,-1.325,0.012,171.021,-0.916,161.865
0.271,-1.159,0.035,142.761,43.152,150.085
0.170,-1.046,0.001,126.892,93.872,141.479
0.198,-0.977,0.007,117.310,139.160,128.235
0.263,-0.947,0.065,109.741,172.974,111.816
0.302,-0.847,0.127,102.722,184.631,92.468
0.287,-0.756,0.198,97.168,176.575,73.975
0.295,-0.694,0.242,94.604,155.151,54.749
0.275,-0.584,0.297,94.055,125.610,33.447
0.226,-0.509,0.303,93.384,92.041,16.785
0.168,-0.485,0.283,90.759,58.960,5.920
0.080,-0.416,0.251,83.984,31.982,-0.488
-0.030,-0.359,0.216,75.195,12.817,-2.808
-0.123,-0.317,0.164,64.392,3.113,-3.113
-0.212,-0.243,0.131,52.246,3.906,-3.784
-0.241,-0.128,0.156,39.734,13.123,-6.775
-0.193,-0.030,0.182,30.090,22.400,-11.841
-0.115,0.020,0.206,21.729,27.649,-18.677
-0.032,0.075,0.218,12.085,28.931,-26.123
0.018,0.151,0.238,2.380,26.123,-33.142
0.061,0.234,0.248,-5.615,19.958,-39.185
0.094,0.313,0.242,-10.437,11.719,-43.823
0.120,0.390,0.231,-11.841,3.845,-46.387
0.131,0.437,0.189,-11.780,-2.502,-45.654
0.082,0.449,0.152,-12.390,-4.578,-43.762
0.046,0.480,0.158,-14.099,-1.221,-41.748
0.088,0.471,0.126,-15.991,4.761,-37.842
0.128,0.472,0.117,-19.897,12.634,-34.241
0.142,0.504,0.125,-25.879,19.775,-32.349
0.164,0.540,0.132,-31.128,23.010,-30.945
0.191,0.596,0.151,-34.973,21.912,-30.518
0.227,0.585,0.155,-36.621,16.113,-29.480
0.247,0.568,0.163,-38.086,5.981,-30.762
0.247,0.590,0.169,-40.833,-7.812,-34.180
0.240,0.621,0.155,-43.213,-24.170,-36.133
0.209,0.633,0.119,-43.884,-40.466,-37.415
0.156,0.624,0.081,-43.152,-52.307,-40.894
0.129,0.623,0.068,-40.283,-57.007,-47.363
0.138,0.642,0.094,-35.767,-56.396,-54.382
0.179,0.630,0.117,-29.846,-54.016,-59.570
0.252,0.615,0.147,-24.353,-52.429,-62.073
0.307,0.577,0.164,-20.630,-53.284,-61.829
0.351,0.576,0.186,-20.569,-56.763,-61.096
0.424,0.613,0.208,-23.315,-63.538,-59.143
0.484,0.589,0.185,-28.503,-75.378,-54.871
0.522,0.604,0.180,-35.950,-90.698,-51.819
0.544,0.587,0.154,-42.664,-110.107,-49.438
0.540,0.578,0.105,-47.546,-130.493,-49.500
0.498,0.583,0.063,-51.331,-150.024,-52.185
0.473,0.579,0.020,-52.246,-166.138,-56.580
0.453,0.586,-0.016,-51.208,-177.612,-61.523
0.423,0.665,-0.033,-49.011,-184.875,-66.833
0.446,0.712,-0.029,-44.739,-188.782,-69.458
0.490,0.729,-0.032,-39.856,-191.833,-69.641
0.504,0.730,-0.031,-36.072,-195.679,-70.496
0.503,0.719,-0.031,-33.691,-198.669,-73.059
0.501,0.683,-0.037,-32.532,-200.256,-77.148
0.490,0.673,-0.051,-33.020,-199.829,-82.581
0.467,0.678,-0.061,-34.973,-196.594,-88.623
0.467,0.683,-0.069,-38.086,-190.918,-94.055
0.492,0.692,-0.063,-41.748,-184.509,-98.083
0.507,0.739,-0.058,-44.678,-179.260,-101.563
0.527,0.830,-0.041,-45.410,-174.561,-104.370
0.533,0.885,-0.029,-42.419,-170.471,-107.239
0.520,0.895,-0.029,-36.743,-165.161,-110.107
0.531,0.891,-0.020,-31.250,-156.799,-113.464
0.567,0.884,-0.001,-27.588,-146.179,-116.516
0.612,0.886,0.023,-25.635,-134.583,-118.835
0.675,0.870,0.055,-26.001,-124.756,-119.202
0.719,0.837,0.074,-27.832,-119.080,-116.760
0.749,0.820,0.095,-30.212,-117.126,-113.831
0.781,0.833,0.128,-31.372,-118.286,-111.023
0.782,0.848,0.148,-28.687,-123.169,-108.215
0.742,0.904,0.153,-23.437,-129.150,-105.896
0.695,0.956,0.166,-15.442,-133.423,-104.980
0.660,0.939,0.175,-4.700,-134.277,-106.506
0.632,0.886,0.191,6.592,-130.859,-111.694
0.621,0.847,0.226,16.113,-122.803,-118.103
0.623,0.786,0.268,23.804,-112.549,-123.901
0.645,0.706,0.304,28.381,-101.807,-128.296
0.670,0.636,0.338,29.419,-91.675,-131.653
0.705,0.577,0.370,26.611,-82.642,-133.484
0.751,0.513,0.396,19.592,-75.867,-132.141
0.799,0.489,0.427,8.667,-72.510,-129.089
0.850,0.489,0.461,-2.258,-73.669,-124.512
0.892,0.493,0.472,-11.902,-80.505,-119.385
0.888,0.499,0.455,-19.226,-92.590,-115.906
0.830,0.509,0.422,-24.170,-105.408,-115.845
