aX,aY,aZ,gX,gY,gZ
1.881,0.745,0.718,-83.862,353.088,38.574
2.274,0.901,0.723,-97.961,379.700,40.039
2.435,1.068,0.637,-113.220,391.724,41.077
2.444,1.215,0.473,-128.723,397.766,44.312
2.339,1.380,0.303,-140.381,408.752,53.101
2.174,1.556,0.106,-145.081,427.185,66.589
2.109,1.649,-0.030,-139.038,452.332,83.496
2.168,1.698,-0.052,-122.131,479.858,98.877
2.295,1.690,0.006,-96.130,497.314,114.563
2.440,1.624,0.141,-64.392,498.169,135.437
2.576,1.549,0.234,-30.457,486.877,157.288
2.671,1.416,0.314,4.150,474.426,176.514
2.833,1.295,0.454,39.001,459.717,201.599
2.871,1.034,0.475,72.937,434.998,235.107
2.837,0.796,0.424,100.647,406.494,262.390
2.653,0.621,0.406,126.282,380.676,284.180
2.418,0.422,0.365,151.306,357.117,302.856
2.216,0.230,0.312,174.133,338.440,315.979
2.026,0.096,0.239,193.848,322.998,323.914
1.805,-0.088,0.174,209.412,310.608,323.792
1.659,-0.081,0.130,217.834,300.842,308.228
1.550,-0.092,0.061,223.511,288.513,296.082
1.480,-0.171,-0.005,225.464,273.682,286.987
1.416,-0.179,-0.046,219.360,256.042,274.170
1.314,-0.120,-0.057,206.848,235.474,261.230
1.187,-0.070,-0.054,191.040,210.632,253.479
1.004,-0.118,-0.109,171.509,184.082,248.901
0.758,-0.053,-0.129,147.827,164.368,236.877
0.594,0.230,-0.110,126.892,154.785,220.337
0.603,0.231,-0.154,117.798,148.865,216.675
0.448,0.234,-0.235,111.023,143.250,209.351
0.293,0.281,-0.237,102.905,145.630,199.036
0.178,0.228,-0.295,96.436,151.062,188.049
0.144,0.231,-0.330,89.417,158.875,168.213
0.160,0.236,-0.349,83.618,168.518,147.949
0.177,0.264,-0.256,79.712,173.218,124.146
0.177,0.211,-0.291,75.256,167.419,99.487
0.198,0.299,-0.251,73.486,160.461,79.224
0.091,0.085,-0.257,75.806,149.231,61.646
0.061,0.149,-0.350,73.730,135.803,31.250
0.143,0.395,0.214,77.332,133.728,17.273
0.270,0.431,0.045,95.825,92.773,18.860
0.120,0.092,0.008,108.582,52.917,26.367
0.050,0.191,0.090,107.544,31.189,13.000
-0.105,0.122,0.055,111.328,17.517,3.174
-0.104,0.008,0.214,113.953,11.963,-9.216
-0.074,0.120,0.223,108.948,3.662,-21.973
-0.008,0.012,0.281,95.032,-3.174,-19.897
0.030,-0.190,0.162,74.158,-16.113,-13.611
-0.020,-0.044,0.206,44.495,-20.752,-17.578
0.018,-0.017,0.246,20.203,-24.658,-16.602
-0.098,-0.098,0.030,0.610,-29.114,-24.353
-0.112,0.215,0.140,-21.545,-15.686,-37.415
-0.017,0.191,0.055,-27.588,-5.432,-36.011
0.022,0.175,-0.008,-32.349,3.784,-42.908
0.058,0.301,-0.023,-35.706,16.174,-48.523
0.118,0.354,-0.015,-34.058,25.757,-48.706
0.140,0.318,-0.060,-27.832,29.663,-47.852
0.177,0.404,-0.045,-22.217,33.569,-51.270
0.252,0.474,-0.015,-14.893,35.278,-52.979
0.307,0.475,-0.010,-6.592,31.189,-51.880
0.349,0.487,0.026,-0.793,23.987,-49.133
0.371,0.500,0.049,2.808,12.390,-44.006
0.367,0.492,0.070,3.540,-0.427,-38.330
0.367,0.529,0.096,0.610,-11.963,-32.898
0.344,0.593,0.126,-3.906,-22.583,-26.306
0.314,0.604,0.106,-8.484,-32.410,-19.531
0.265,0.618,0.088,-13.855,-38.940,-16.785
0.228,0.690,0.080,-19.897,-41.382,-18.311
0.195,0.741,0.061,-23.926,-40.283,-19.531
0.179,0.763,0.046,-25.879,-36.316,-21.240
0.181,0.778,0.042,-26.550,-30.701,-23.193
0.225,0.779,0.056,-26.001,-25.146,-24.536
0.283,0.788,0.080,-25.513,-21.667,-24.292
0.319,0.787,0.090,-24.719,-22.461,-23.499
0.335,0.797,0.088,-25.208,-26.428,-22.217
0.318,0.820,0.076,-26.184,-31.738,-21.301
0.290,0.825,0.050,-27.832,-35.767,-20.813
0.282,0.821,0.038,-29.358,-37.537,-20.508
0.278,0.801,0.037,-30.457,-38.330,-20.935
0.262,0.754,0.029,-31.128,-38.757,-22.522
0.275,0.733,0.026,-33.203,-38.635,-24.231
0.288,0.743,0.021,-35.339,-39.185,-26.184
0.307,0.820,0.017,-37.842,-40.955,-28.381
0.317,0.887,0.008,-39.001,-44.312,-29.114
0.344,0.961,0.012,-39.063,-49.316,-29.541
0.370,1.000,0.008,-37.109,-55.481,-29.175
0.376,0.978,-0.000,-34.607,-63.110,-27.832
0.379,0.936,-0.008,-32.532,-71.045,-26.367
0.389,0.880,-0.001,-31.494,-78.491,-23.804
0.406,0.818,0.007,-31.616,-87.402,-20.569
0.366,0.760,0.007,-33.142,-97.717,-18.738
0.342,0.783,0.025,-35.156,-106.567,-20.569
0.325,0.791,0.000,-36.499,-114.014,-22.705
0.315,0.886,-0.004,-38.208,-119.263,-26.306
0.348,1.017,0.020,-38.513,-124.329,-29.602
0.381,1.051,0.023,-35.889,-133.057,-30.151
0.401,1.020,0.011,-31.799,-145.569,-30.823
0.416,0.975,0.005,-28.748,-159.424,-32.166
0.419,0.920,0.006,-27.039,-174.438,-34.424
0.425,0.861,-0.011,-25.879,-190.308,-38.025
0.400,0.862,-0.046,-26.794,-205.750,-41.992
0.316,0.894,-0.080,-28.564,-217.834,-47.791
0.225,0.907,-0.117,-27.710,-221.436,-56.213
0.188,0.929,-0.130,-25.452,-214.111,-65.857
0.192,0.954,-0.112,-22.827,-199.768,-74.280
0.209,0.956,-0.088,-19.348,-184.265,-81.055
0.265,0.921,-0.059,-15.442,-169.067,-86.792
0.350,0.890,-0.014,-12.939,-157.104,-91.125
0.410,0.869,0.017,-12.451,-151.001,-94.666
0.406,0.843,0.037,-12.939,-149.231,-98.450
0.417,0.821,0.033,-13.367,-147.095,-101.318
0.463,0.842,0.058,-14.160,-144.287,-104.370
0.500,0.859,0.091,-15.808,-143.738,-107.361
0.509,0.816,0.077,-16.052,-146.179,-107.422
0.481,0.802,0.072,-16.907,-147.461,-109.497
0.486,0.807,0.088,-18.311,-144.470,-112.244
0.504,0.798,0.103,-18.799,-141.174,-114.746
0.486,0.771,0.090,-18.860,-138.000,-117.615

1.478,0.668,-0.528,64.331,133.850,-20.508
1.515,0.660,-0.566,73.425,142.700,-14.893
1.532,0.646,-0.597,80.017,153.870,-7.996
1.492,0.619,-0.626,85.022,168.152,-0.854
1.439,0.589,-0.644,88.196,187.012,6.409
1.433,0.548,-0.676,89.783,208.923,12.207
1.496,0.536,-0.705,89.722,231.506,15.442
1.614,0.563,-0.719,87.646,248.718,17.761
1.755,0.644,-0.760,86.304,256.226,20.020
1.856,0.779,-0.868,88.013,255.615,22.339
1.942,0.980,-0.973,93.079,253.357,27.161
2.075,1.223,-1.096,102.051,253.784,35.889
2.246,1.420,-1.248,114.685,259.033,45.959
2.425,1.584,-1.426,128.296,269.836,59.875
2.611,1.771,-1.597,142.212,285.461,78.125
2.825,2.026,-1.647,158.081,302.856,100.647
3.046,2.196,-1.625,180.420,314.880,128.235
3.302,2.243,-1.536,209.473,313.416,161.560
3.266,1.465,-2.019,241.699,294.312,196.655
3.536,2.246,-1.032,253.906,279.968,205.383
3.286,1.401,-1.536,293.579,222.290,255.554
3.053,0.949,-1.576,327.637,179.993,291.443
2.643,0.788,-1.491,331.360,165.344,312.927
2.247,0.344,-1.553,351.562,161.438,329.285
1.912,-0.035,-1.521,362.610,173.767,335.571
1.519,-0.304,-1.441,364.746,195.312,331.055
1.192,-0.585,-1.298,360.168,220.276,315.613
0.985,-0.740,-1.080,343.018,241.638,288.086
0.865,-0.760,-0.920,317.505,249.146,252.441
0.818,-0.608,-0.732,289.734,242.432,214.722
0.828,-0.369,-0.484,270.630,221.436,179.993
0.789,-0.293,-0.325,265.503,185.608,149.353
0.699,-0.291,-0.167,267.273,140.320,120.056
0.521,-0.357,-0.076,268.494,94.055,92.346
0.385,-0.597,-0.004,265.442,54.810,63.354
0.599,-1.036,0.013,247.864,30.029,40.039
0.707,-1.206,-0.021,199.585,11.108,36.926
0.555,-1.041,-0.099,137.085,-6.531,46.143
0.430,-0.838,-0.202,87.402,-10.986,56.091
0.287,-0.625,-0.269,57.739,-1.770,55.420
0.145,-0.511,-0.297,49.072,20.020,42.114
0.132,-0.448,-0.282,55.481,48.828,22.949
0.165,-0.397,-0.201,69.519,73.608,4.272
0.190,-0.365,-0.093,86.243,88.196,-11.963
0.220,-0.353,0.025,102.051,91.187,-26.306
0.294,-0.330,0.151,112.122,85.022,-36.560
0.369,-0.258,0.262,112.488,69.763,-38.574
0.380,-0.225,0.335,103.577,46.021,-33.264
0.319,-0.185,0.334,85.571,20.630,-23.743
0.201,-0.103,0.311,61.829,1.526,-15.869
0.087,0.004,0.285,39.429,-7.141,-13.977
0.031,0.112,0.273,23.315,-6.958,-17.456
0.036,0.213,0.284,14.038,-2.319,-23.010
0.095,0.288,0.306,10.376,1.404,-26.978
0.178,0.343,0.333,9.399,1.038,-27.893
0.231,0.390,0.354,9.460,-5.554,-26.733
0.251,0.424,0.363,9.033,-17.639,-24.963
0.237,0.447,0.351,7.996,-32.837,-23.621
0.176,0.460,0.320,6.348,-46.265,-24.231
0.133,0.505,0.297,3.601,-53.467,-26.184
0.093,0.529,0.277,-0.916,-53.955,-27.527
0.096,0.507,0.254,-7.141,-48.096,-28.259
0.135,0.498,0.240,-16.418,-38.208,-27.832
0.173,0.518,0.237,-28.015,-28.259,-27.039
0.218,0.543,0.234,-38.818,-20.630,-26.306
0.248,0.588,0.221,-47.180,-16.541,-25.696
0.251,0.644,0.204,-52.795,-14.893,-25.574
0.271,0.677,0.195,-54.688,-13.855,-25.085
0.303,0.680,0.193,-54.077,-13.977,-24.048
0.346,0.643,0.192,-53.345,-16.174,-23.071
0.380,0.620,0.193,-53.833,-21.179,-22.583
0.418,0.592,0.186,-54.993,-28.564,-21.484
0.434,0.579,0.174,-56.946,-37.415,-20.020
0.415,0.636,0.146,-59.387,-46.448,-18.860
0.385,0.674,0.108,-61.523,-53.650,-18.311
0.354,0.691,0.086,-63.599,-57.434,-19.592
0.337,0.699,0.062,-65.613,-58.960,-21.667
0.324,0.628,0.015,-68.054,-58.716,-23.193
0.343,0.636,0.042,-73.181,-57.007,-27.588
0.389,0.711,0.095,-77.087,-60.852,-30.518
0.407,0.618,0.046,-76.965,-72.815,-27.527
0.406,0.723,0.007,-78.003,-84.167,-28.015
0.380,0.871,-0.008,-79.712,-93.750,-29.785
0.370,0.912,-0.073,-78.247,-101.990,-29.785
0.376,0.960,-0.129,-78.003,-106.934,-30.090
0.410,0.980,-0.166,-80.017,-108.887,-31.006
0.453,0.962,-0.218,-83.374,-112.000,-32.043
0.427,0.944,-0.271,-86.792,-115.723,-34.546
0.379,0.930,-0.318,-87.952,-115.906,-38.635
0.385,0.956,-0.328,-85.510,-110.413,-40.833
0.400,0.990,-0.309,-79.346,-103.455,-40.588
0.397,1.103,-0.301,-71.472,-97.717,-38.086
0.411,1.224,-0.280,-63.416,-94.666,-33.508
0.425,1.233,-0.271,-55.908,-95.215,-27.283
0.441,1.180,-0.275,-50.781,-99.365,-23.926
0.470,1.167,-0.252,-50.049,-106.140,-24.841
0.475,1.138,-0.228,-50.415,-116.943,-27.954
0.447,1.062,-0.241,-49.866,-129.883,-32.104
0.394,1.012,-0.259,-50.415,-139.709,-36.743
0.382,1.015,-0.255,-51.208,-143.799,-40.649
0.370,1.006,-0.242,-50.049,-143.921,-43.701
0.334,1.000,-0.232,-47.913,-141.724,-45.654
0.312,1.003,-0.219,-44.922,-137.329,-48.218
0.325,1.036,-0.201,-41.260,-130.981,-51.331
0.349,1.076,-0.162,-38.513,-125.793,-54.565
0.408,1.048,-0.131,-36.560,-125.366,-56.702
0.497,0.999,-0.111,-36.560,-131.531,-57.861
0.541,0.980,-0.103,-39.917,-145.935,-59.753
0.519,0.956,-0.116,-44.373,-165.894,-62.927
0.490,0.938,-0.144,-48.584,-183.838,-68.054
0.466,0.959,-0.153,-50.781,-196.350,-74.341
0.438,0.988,-0.142,-48.828,-204.468,-79.346
0.402,1.016,-0.140,-42.053,-208.374,-81.482
0.390,1.028,-0.123,-31.677,-206.909,-81.421
0.386,1.011,-0.102,-19.775,-201.172,-80.688
0.378,0.971,-0.084,-9.338,-191.528,-81.604
0.379,0.930,-0.052,-1.404,-178.955,-83.679
0.375,0.902,-0.014,3.723,-166.443,-85.632
0.394,0.859,0.024,6.348,-154.785,-87.097

2.111,1.089,-0.213,29.053,154.419,-27.100
2.477,1.400,-0.364,24.780,163.208,-17.639
2.775,1.755,-0.562,24.353,166.992,-3.906
3.028,2.054,-0.824,27.283,173.096,14.282
3.259,2.343,-1.123,31.799,191.040,39.734
3.501,2.647,-1.332,39.063,224.670,72.815
3.790,2.863,-1.471,50.415,271.240,114.136
4.000,2.837,-1.505,66.895,322.937,163.330
4.000,2.605,-1.476,84.900,363.831,219.482
4.000,2.253,-1.408,103.088,384.644,274.109
4.000,1.792,-1.348,123.413,384.277,325.195
4.000,1.253,-1.314,149.475,368.896,369.263
3.715,0.662,-1.281,181.396,346.252,403.748
3.295,0.126,-1.250,217.407,320.679,424.377
2.939,-0.224,-1.206,255.127,298.706,431.641
2.668,-0.751,-1.216,292.969,281.677,435.974
2.332,-1.127,-1.225,316.284,266.296,412.964
2.027,-1.070,-1.080,323.730,256.775,372.192
1.718,-1.081,-0.949,330.811,247.742,339.294
1.589,-1.021,-0.872,330.017,234.741,304.932
1.280,-0.968,-0.780,321.838,223.389,272.949
1.076,-0.951,-0.658,309.387,213.867,234.619
1.021,-0.878,-0.488,296.326,204.590,196.045
0.962,-0.839,-0.298,279.358,190.857,165.649
0.835,-0.810,-0.181,256.104,168.396,146.729
0.740,-0.795,-0.096,228.882,144.043,131.042
0.626,-0.724,-0.035,198.364,120.239,113.953
0.515,-0.679,0.009,167.603,98.877,96.985
0.477,-0.688,0.019,136.902,81.665,85.876
0.360,-0.720,-0.033,105.469,67.688,77.881
0.205,-0.666,-0.103,75.928,62.195,66.101
0.144,-0.545,-0.120,54.443,68.054,54.504
0.160,-0.470,-0.139,44.250,76.599,44.128
0.167,-0.416,-0.146,42.419,81.848,32.715
0.123,-0.351,-0.150,45.715,83.923,22.217
0.125,-0.311,-0.123,53.772,84.290,13.245
0.171,-0.279,-0.061,63.599,82.458,5.493
0.220,-0.239,0.012,70.374,74.707,-0.427
0.262,-0.216,0.067,71.960,59.875,-3.723
0.288,-0.168,0.119,67.139,39.429,-5.615
0.242,-0.130,0.106,58.105,15.747,-6.775
0.163,-0.077,0.083,45.837,-2.563,-8.972
0.072,0.011,0.070,33.264,-12.268,-12.268
-0.031,0.098,0.047,23.315,-14.282,-15.625
-0.086,0.194,0.041,16.968,-7.996,-18.250
-0.055,0.259,0.064,14.648,3.174,-19.104
0.007,0.292,0.090,14.648,14.038,-19.165
0.081,0.349,0.135,13.611,19.958,-19.531
0.139,0.411,0.165,12.817,18.616,-19.836
0.165,0.443,0.176,12.207,11.292,-20.020
0.179,0.450,0.178,10.864,1.343,-20.569
0.205,0.461,0.174,8.362,-8.240,-19.836
0.239,0.459,0.163,4.700,-17.883,-18.250
0.261,0.444,0.145,-0.366,-27.893,-17.151
0.215,0.477,0.103,-6.042,-36.865,-17.700
0.177,0.524,0.085,-10.559,-40.405,-20.081
0.171,0.562,0.079,-12.390,-37.720,-21.973
0.157,0.600,0.076,-13.000,-31.616,-23.621
0.142,0.617,0.069,-12.817,-22.705,-24.475
0.162,0.657,0.080,-13.184,-11.047,-23.743
0.173,0.633,0.071,-13.855,-0.122,-22.095
0.192,0.608,0.081,-16.663,10.132,-23.621
0.304,0.648,0.181,-21.362,15.625,-23.987
0.425,0.551,0.162,-25.513,7.141,-20.020
0.460,0.539,0.159,-33.081,-8.240,-17.578
0.462,0.520,0.156,-40.649,-28.870,-15.625
0.445,0.489,0.118,-44.128,-52.307,-16.479
0.416,0.497,0.085,-44.189,-74.219,-21.790
0.378,0.480,0.054,-42.480,-91.675,-29.602
0.370,0.542,0.077,-38.635,-105.042,-39.551
0.353,0.635,0.091,-31.921,-116.211,-46.509
0.373,0.638,0.097,-23.560,-125.000,-49.622
0.400,0.605,0.083,-17.517,-132.202,-49.988
0.412,0.558,0.064,-17.334,-139.587,-50.354
0.401,0.532,0.034,-22.034,-148.010,-52.673
0.382,0.488,-0.019,-27.832,-155.212,-58.167
0.366,0.503,-0.083,-34.668,-159.119,-65.613
0.344,0.519,-0.116,-40.771,-158.813,-73.059
0.349,0.597,-0.106,-43.274,-155.701,-81.848
0.368,0.696,-0.097,-39.734,-150.269,-87.524
0.445,0.742,-0.084,-31.860,-144.287,-89.294
0.514,0.729,-0.068,-22.644,-139.465,-88.013
0.558,0.714,-0.051,-15.503,-137.756,-86.487
0.563,0.718,-0.031,-11.841,-140.381,-86.914
0.540,0.725,-0.024,-9.827,-144.836,-89.600
0.526,0.739,-0.019,-9.949,-148.132,-93.567
0.537,0.719,0.001,-12.695,-149.780,-97.961
0.555,0.677,0.001,-18.005,-150.879,-102.295
0.581,0.693,0.000,-26.978,-151.978,-107.422
0.623,0.705,0.000,-37.781,-153.687,-112.854
0.627,0.728,-0.036,-47.607,-157.471,-119.141
0.603,0.782,-0.061,-54.626,-159.546,-126.770
0.585,0.820,-0.074,-57.129,-157.104,-134.460
0.568,0.848,-0.114,-55.908,-149.841,-142.090
0.559,0.856,-0.142,-54.932,-136.658,-148.315
0.575,0.848,-0.158,-55.176,-118.408,-152.527
0.614,0.833,-0.175,-56.274,-96.802,-155.579
0.690,0.827,-0.172,-59.937,-73.547,-158.936
0.804,0.828,-0.145,-66.101,-52.551,-160.339
0.974,0.834,-0.090,-73.364,-38.635,-158.142
1.155,0.863,-0.032,-81.360,-37.842,-152.893
1.305,0.913,0.012,-88.013,-52.979,-146.606
1.392,0.965,0.028,-90.332,-81.665,-140.625
1.365,1.008,-0.002,-87.769,-116.882,-135.681
1.275,1.028,-0.053,-80.872,-148.193,-130.493
1.146,1.024,-0.113,-71.289,-167.664,-125.488
1.008,1.016,-0.151,-61.340,-171.509,-121.765
0.890,1.010,-0.160,-52.002,-160.645,-118.530
0.803,0.990,-0.147,-44.678,-138.428,-114.624
0.768,0.962,-0.113,-39.978,-109.314,-110.535
0.777,0.930,-0.061,-37.109,-78.735,-106.873
0.826,0.908,-0.002,-36.438,-51.941,-103.210
0.910,0.904,0.081,-36.377,-33.325,-99.182
1.031,0.906,0.188,-34.302,-26.428,-94.299
1.153,0.886,0.278,-29.968,-34.790,-88.806
1.217,0.855,0.324,-25.513,-58.594,-83.740
1.172,0.818,0.310,-22.034,-91.675,-80.200
1.044,0.797,0.259,-19.714,-122.314,-78.552
0.886,0.784,0.208,-18.250,-139.587,-78.369

1.318,1.614,-1.094,-0.061,262.268,-18.799
1.574,1.968,-1.369,-1.038,272.461,-5.859
1.757,2.285,-1.725,0.916,273.376,9.644
1.907,2.642,-2.086,7.202,277.649,29.663
2.046,3.015,-2.430,19.043,293.335,54.199
2.297,3.166,-2.780,37.170,326.111,83.191
2.880,3.185,-3.041,57.800,374.573,116.943
3.782,3.131,-3.157,77.209,413.147,154.785
4.000,2.949,-3.187,102.539,401.917,196.777
4.000,2.635,-3.047,141.541,340.088,237.671
4.000,2.175,-2.828,200.256,250.000,274.170
4.000,1.492,-2.689,272.705,159.607,300.842
3.697,0.687,-2.572,342.285,92.346,320.496
3.086,-0.021,-2.395,390.564,64.270,335.327
2.544,-0.571,-2.161,414.368,79.163,344.177
2.226,-0.992,-1.832,419.983,123.901,344.788
2.090,-0.927,-1.439,413.513,172.729,333.191
2.067,-1.051,-1.206,411.133,212.708,327.759
1.860,-1.476,-1.004,401.489,233.398,305.176
1.737,-1.291,-0.650,367.126,234.802,252.686
1.577,-0.937,-0.350,337.463,228.821,213.928
1.346,-1.034,-0.199,316.284,212.219,190.369
1.078,-1.010,-0.133,287.231,194.031,167.419
0.807,-0.914,-0.031,257.629,187.195,148.499
0.612,-0.829,0.040,233.704,186.157,130.005
0.501,-0.768,0.114,213.562,187.805,113.586
0.434,-0.782,0.188,195.374,186.646,98.267
0.371,-0.688,0.246,176.636,177.856,79.224
0.304,-0.627,0.292,160.767,164.062,64.880
0.308,-0.563,0.355,148.621,145.569,54.565
0.274,-0.567,0.356,140.930,121.155,44.922
0.213,-0.571,0.367,132.446,96.008,33.630
0.167,-0.512,0.357,120.972,72.388,24.536
0.108,-0.457,0.299,109.497,51.208,18.860
0.038,-0.405,0.220,97.412,36.926,13.123
0.034,-0.377,0.132,85.876,31.616,6.897
0.047,-0.298,0.110,74.402,32.898,0.732
0.067,-0.133,0.111,64.392,33.691,-3.113
0.098,-0.066,0.075,59.814,30.701,-3.235
0.103,0.010,0.074,57.617,27.710,-4.028
0.127,0.090,0.111,57.373,24.841,-7.141
0.153,0.108,0.126,59.937,20.752,-10.803
0.150,0.155,0.181,60.852,16.785,-15.320
0.150,0.230,0.255,59.692,12.329,-17.212
0.173,0.252,0.313,58.411,6.897,-16.174
0.214,0.263,0.360,54.993,1.099,-14.160
0.221,0.267,0.391,47.668,-5.310,-11.047
0.195,0.297,0.391,38.025,-12.207,-6.958
0.155,0.330,0.381,27.954,-16.724,-4.150
0.122,0.380,0.360,18.005,-15.686,-3.052
0.130,0.443,0.361,8.789,-11.292,-1.892
0.168,0.496,0.362,2.258,-7.935,-0.427
0.216,0.525,0.361,-2.136,-8.057,0.122
0.243,0.575,0.368,-5.066,-11.597,-0.793
0.236,0.602,0.360,-6.470,-18.188,-1.465
0.191,0.614,0.334,-7.568,-23.987,-2.197
0.144,0.611,0.304,-9.399,-24.414,-2.625
0.098,0.590,0.259,-12.024,-19.165,-3.601
0.109,0.637,0.301,-16.968,-9.338,-5.493
0.178,0.592,0.290,-20.935,-3.723,-5.249
0.204,0.583,0.290,-25.513,-2.502,-5.005
0.194,0.594,0.290,-30.396,-5.188,-4.761
0.181,0.625,0.277,-32.715,-10.498,-5.615
0.157,0.650,0.267,-32.532,-16.235,-8.179
0.167,0.621,0.251,-30.396,-21.484,-10.986
0.160,0.617,0.259,-28.320,-26.123,-17.090
0.183,0.620,0.292,-26.001,-31.067,-24.902
0.188,0.586,0.297,-22.888,-38.086,-32.227
0.201,0.557,0.308,-20.264,-44.800,-37.964
0.200,0.464,0.278,-18.433,-49.683,-42.053
0.190,0.419,0.284,-19.775,-51.025,-49.500
0.206,0.524,0.399,-22.217,-52.124,-57.068
0.230,0.445,0.355,-21.973,-61.951,-53.650
0.252,0.453,0.318,-21.912,-71.777,-49.561
0.220,0.515,0.341,-25.024,-76.782,-51.636
0.231,0.501,0.333,-27.222,-81.360,-52.734
0.272,0.492,0.331,-31.250,-86.548,-56.152
0.324,0.468,0.333,-37.354,-95.215,-60.547
0.376,0.447,0.298,-45.593,-109.131,-64.819
0.399,0.438,0.239,-54.810,-126.953,-68.787
0.375,0.430,0.172,-62.927,-146.667,-72.876
0.368,0.432,0.109,-67.627,-163.818,-77.576
0.335,0.479,0.056,-68.298,-176.392,-83.191
0.330,0.510,0.019,-65.002,-183.472,-89.233
0.345,0.553,-0.019,-59.265,-186.157,-94.666
0.348,0.657,-0.027,-53.528,-185.547,-99.915
0.340,0.731,-0.028,-46.997,-182.129,-104.736
0.371,0.741,-0.021,-41.443,-175.537,-108.276
0.426,0.712,-0.000,-38.513,-169.434,-112.488
0.468,0.685,0.031,-38.940,-165.955,-116.943
0.523,0.665,0.061,-41.504,-166.504,-119.934
0.558,0.658,0.059,-44.861,-171.814,-122.070
0.525,0.657,0.045,-47.546,-178.955,-125.732
0.500,0.698,0.035,-48.340,-182.373,-130.920
0.461,0.767,0.047,-46.509,-180.420,-136.780
0.405,0.831,0.074,-41.382,-172.791,-141.785
0.368,0.898,0.112,-34.668,-158.997,-146.118
0.408,0.920,0.166,-28.259,-139.893,-150.635
0.470,0.886,0.221,-24.292,-119.934,-155.212
0.576,0.835,0.264,-24.780,-102.295,-160.889
0.702,0.809,0.309,-30.151,-89.844,-166.565
0.803,0.780,0.343,-38.208,-84.534,-169.800
0.857,0.768,0.350,-46.997,-86.182,-169.373
0.823,0.773,0.329,-53.894,-90.515,-168.823
0.779,0.767,0.314,-57.800,-89.478,-168.701
0.767,0.760,0.310,-59.204,-82.214,-168.396
0.757,0.744,0.304,-58.105,-71.472,-169.922
0.749,0.721,0.288,-57.007,-58.533,-172.974
0.761,0.697,0.282,-56.396,-43.762,-175.964
0.805,0.664,0.281,-56.458,-29.541,-177.612
0.827,0.632,0.256,-58.289,-18.372,-178.223
0.834,0.599,0.217,-62.195,-8.545,-178.955
0.893,0.578,0.204,-67.627,2.869,-178.711
0.979,0.589,0.226,-73.059,14.282,-178.284
1.032,0.600,0.237,-77.515,20.630,-177.856
1.095,0.595,0.234,-80.505,21.423,-177.612
1.146,0.592,0.236,-83.740,17.700,-176.453
1.192,0.593,0.208,-86.548,9.277,-173.889
1.222,0.590,0.155,-88.623,-1.770,-171.143

1.178,1.055,-0.646,-10.376,93.933,-3.906
1.288,1.226,-0.836,-12.634,107.727,0.854
1.402,1.427,-1.074,-14.771,125.916,5.737
1.549,1.619,-1.381,-13.794,149.597,12.146
1.795,1.818,-1.700,-8.484,181.519,21.973
2.018,2.071,-2.008,2.808,220.337,34.424
2.227,2.278,-2.330,21.851,266.541,49.438
2.547,2.452,-2.607,48.279,323.181,69.275
3.199,2.565,-2.754,77.881,380.798,94.849
3.931,2.617,-2.834,108.948,406.677,127.258
4.000,2.489,-2.917,142.639,381.958,161.865
4.000,2.290,-2.998,181.763,320.312,196.899
4.000,1.992,-3.056,228.638,243.774,231.445
4.000,1.492,-3.128,281.921,175.964,264.160
3.665,0.910,-3.132,333.618,135.986,290.588
3.290,0.412,-3.016,374.084,132.507,311.279
2.997,0.037,-2.793,402.344,152.466,328.247
2.808,-0.300,-2.511,423.218,178.284,340.759
2.622,-0.546,-2.251,437.256,195.374,344.727
2.421,-0.796,-2.033,440.857,200.439,337.830
2.209,-1.014,-1.829,434.082,195.312,321.106
2.018,-1.136,-1.583,419.739,183.228,298.340
1.838,-1.276,-1.333,401.672,164.185,272.400
1.538,-1.065,-1.189,381.958,140.869,242.615
1.217,-1.118,-0.928,368.286,129.333,222.046
1.053,-1.007,-0.764,355.347,118.286,194.580
0.890,-0.964,-0.734,344.727,112.976,169.067
0.684,-0.868,-0.429,329.773,121.704,144.592
0.658,-0.724,-0.192,315.125,129.089,119.202
0.665,-0.802,-0.078,303.772,126.038,100.464
0.563,-0.846,-0.001,283.264,120.178,82.642
0.594,-0.890,0.178,254.639,118.408,74.768
0.554,-0.809,0.190,216.614,107.849,78.125
0.423,-0.845,0.185,173.035,94.543,88.196
0.291,-0.885,0.073,129.700,83.679,89.722
0.186,-0.876,0.021,88.257,81.543,79.041
0.095,-0.576,-0.063,53.650,81.787,58.594
0.024,-0.406,-0.043,36.987,89.294,48.523
0.041,-0.393,-0.178,37.354,91.675,42.908
-0.034,-0.269,-0.202,41.321,101.624,24.597
0.053,-0.050,-0.121,55.176,115.784,4.761
0.268,-0.165,0.084,75.806,121.460,-8.850
0.256,-0.123,0.026,96.252,102.295,-25.146
0.403,-0.142,0.257,108.643,79.041,-33.264
0.406,-0.119,0.307,114.868,44.006,-37.903
0.372,-0.113,0.377,111.633,8.972,-33.569
0.249,-0.091,0.328,100.220,-22.522,-22.339
0.048,-0.080,0.240,84.351,-40.222,-16.785
-0.006,0.081,0.359,67.871,-37.476,-23.010
0.077,0.111,0.299,59.143,-32.227,-25.818
-0.006,0.151,0.315,52.307,-24.109,-27.283
0.150,0.267,0.388,45.349,-12.146,-26.367
0.191,0.208,0.382,43.457,-7.751,-21.729
0.230,0.261,0.418,38.452,-5.859,-20.813
0.220,0.274,0.392,34.058,-9.216,-18.738
0.207,0.297,0.391,30.334,-11.902,-18.921
0.247,0.334,0.400,27.710,-13.550,-19.958
0.266,0.334,0.402,25.818,-16.418,-20.081
0.239,0.389,0.413,24.414,-21.301,-21.118
0.229,0.393,0.418,22.766,-24.841,-19.409
0.179,0.431,0.443,19.287,-26.001,-19.958
0.160,0.494,0.454,16.174,-23.560,-18.555
0.157,0.430,0.471,14.160,-21.667,-9.827
0.124,0.445,0.487,11.169,-18.250,-7.202
0.092,0.470,0.506,8.545,-14.771,-7.751
0.093,0.459,0.529,6.409,-10.681,-7.202
0.121,0.451,0.557,4.272,-8.362,-6.226
0.137,0.432,0.570,1.282,-9.399,-5.981
0.145,0.416,0.580,-3.906,-13.855,-7.263
0.147,0.414,0.569,-9.827,-21.301,-10.071
0.104,0.454,0.540,-15.137,-29.175,-13.306
0.076,0.474,0.505,-19.653,-33.752,-15.137
0.073,0.458,0.469,-23.193,-33.447,-16.602
0.093,0.471,0.454,-26.917,-29.785,-20.447
0.134,0.481,0.445,-30.457,-25.879,-24.658
0.202,0.477,0.447,-33.630,-24.170,-27.588
0.287,0.451,0.464,-35.706,-26.184,-29.785
0.362,0.421,0.483,-36.987,-34.241,-32.349
0.413,0.392,0.489,-38.635,-48.767,-35.461
0.454,0.387,0.499,-41.077,-68.481,-39.063
0.471,0.432,0.498,-44.617,-92.285,-43.518
0.461,0.466,0.473,-47.791,-118.713,-47.546
0.417,0.509,0.428,-51.941,-144.714,-49.622
0.331,0.568,0.356,-56.030,-165.649,-48.828
0.293,0.570,0.300,-59.387,-178.284,-45.288
0.287,0.549,0.263,-61.584,-184.570,-43.091
0.309,0.511,0.252,-62.256,-187.561,-45.410
0.381,0.434,0.267,-61.951,-193.787,-50.903
0.460,0.447,0.281,-61.646,-205.994,-59.265
0.498,0.501,0.256,-62.866,-223.816,-68.909
0.483,0.557,0.205,-66.589,-245.728,-76.721
0.406,0.646,0.155,-71.594,-265.381,-82.520
0.305,0.737,0.087,-74.646,-276.611,-86.060
0.248,0.823,0.035,-75.500,-276.672,-87.402
0.210,0.861,0.018,-74.341,-267.883,-87.219
0.160,0.838,0.006,-70.374,-253.784,-85.999
0.142,0.796,0.005,-66.589,-236.084,-85.388
0.176,0.751,0.017,-63.599,-217.468,-86.304
0.214,0.778,0.025,-61.279,-201.843,-89.294
0.253,0.801,0.040,-57.617,-190.430,-93.506
0.281,0.890,0.032,-53.345,-183.411,-97.290
0.328,1.006,0.054,-48.645,-179.016,-99.731
0.395,1.065,0.077,-42.175,-178.772,-98.572
0.419,1.095,0.077,-34.790,-183.533,-95.154
0.403,1.099,0.071,-27.649,-190.186,-91.492
0.341,1.077,0.051,-20.935,-194.885,-88.684
0.273,1.068,0.042,-15.381,-194.885,-87.341
0.233,1.044,0.052,-10.498,-189.636,-87.646
0.176,1.004,0.051,-5.127,-181.213,-90.576
0.106,1.057,0.064,-0.793,-167.297,-96.680
0.071,1.093,0.098,4.578,-148.376,-101.501
0.064,1.085,0.092,10.498,-127.380,-105.225
0.079,1.158,0.149,14.465,-104.797,-112.610
0.112,1.224,0.209,18.250,-85.144,-119.934
0.209,1.131,0.239,23.132,-70.862,-124.695
0.272,1.027,0.243,23.743,-60.547,-130.493
0.277,0.993,0.274,20.020,-51.697,-139.160
0.309,0.943,0.289,13.855,-42.114,-143.860
0.360,0.852,0.276,5.310,-31.555,-143.799

1.867,1.626,-0.764,-24.780,231.873,-83.130
2.406,2.012,-0.914,-25.452,240.417,-69.519
2.883,2.390,-1.107,-14.038,227.356,-49.683
3.367,2.696,-1.307,9.399,207.031,-28.564
3.839,2.879,-1.453,42.175,195.496,-4.333
4.000,2.928,-1.571,76.538,200.989,28.870
4.000,2.863,-1.651,103.760,224.243,77.454
4.000,2.671,-1.603,121.399,257.507,140.808
4.000,2.386,-1.480,134.155,284.058,208.191
4.000,2.031,-1.359,146.973,291.992,264.709
4.000,1.618,-1.284,161.499,286.316,308.411
4.000,1.153,-1.237,178.589,278.137,344.177
3.986,0.696,-1.198,198.792,267.151,374.023
3.620,0.275,-1.189,221.313,252.869,394.592
3.292,-0.099,-1.158,243.530,239.807,403.259
3.002,-0.444,-1.102,265.320,226.685,402.771
2.706,-0.743,-1.043,284.668,212.769,394.287
2.423,-0.954,-0.957,298.035,199.036,378.601
2.117,-1.083,-0.866,303.040,185.181,356.873
1.802,-1.146,-0.775,298.462,172.974,329.590
1.476,-1.105,-0.682,284.180,165.039,298.950
1.227,-1.017,-0.563,265.381,163.818,266.357
1.054,-0.951,-0.448,245.789,165.527,233.704
0.890,-0.868,-0.319,227.356,165.833,202.026
0.680,-0.713,-0.257,211.914,163.696,176.453
0.605,-0.678,-0.167,204.041,165.100,165.588
0.479,-0.715,-0.166,196.838,165.588,161.072
0.374,-0.720,-0.104,184.509,162.842,149.048
0.287,-0.690,-0.032,170.166,160.278,134.888
0.207,-0.580,0.103,158.020,153.381,120.728
0.177,-0.711,0.094,148.804,140.991,110.535
0.072,-0.683,0.178,134.338,124.390,94.116
-0.024,-0.588,0.193,118.896,108.643,79.163
-0.129,-0.471,0.291,107.056,92.651,68.909
0.020,-0.735,0.284,99.487,69.641,56.946
-0.052,-0.477,0.202,83.557,45.227,21.240
-0.494,-0.176,0.313,75.684,38.635,2.502
-0.500,-0.375,-0.074,81.299,33.203,4.150
-0.175,-0.513,0.294,79.285,60.669,-13.428
-0.088,-0.102,0.341,79.590,70.801,-36.987
0.006,-0.282,0.285,83.557,52.551,-34.729
0.186,-0.237,0.355,75.256,40.222,-33.264
0.120,-0.135,0.328,68.359,21.423,-29.602
0.086,-0.019,0.368,61.646,4.822,-25.879
0.061,0.022,0.335,55.725,-9.705,-20.447
0.045,0.075,0.336,47.791,-20.142,-16.113
0.023,0.049,0.289,39.001,-26.550,-14.648
-0.019,0.178,0.258,27.710,-27.466,-19.043
-0.124,0.187,0.210,18.738,-19.836,-19.836
-0.032,0.382,0.318,12.085,-6.775,-23.804
0.063,0.412,0.298,10.498,-1.282,-23.437
0.171,0.347,0.275,9.460,-2.502,-22.034
0.141,0.429,0.283,5.249,-5.066,-24.353
0.143,0.512,0.259,3.113,-8.667,-24.841
0.137,0.513,0.230,3.479,-9.644,-23.376
0.123,0.603,0.262,3.845,-6.531,-25.818
0.136,0.648,0.288,6.470,-2.869,-26.123
0.185,0.626,0.310,9.399,-0.305,-24.292
0.221,0.644,0.347,8.850,0.854,-20.630
0.228,0.659,0.367,5.615,-0.549,-14.709
0.237,0.699,0.392,1.221,-3.723,-8.423
0.243,0.738,0.398,-4.089,-9.705,-3.723
0.220,0.759,0.385,-8.240,-18.311,-1.526
0.197,0.778,0.372,-10.681,-27.100,-0.488
0.146,0.804,0.354,-11.536,-34.485,0.488
0.078,0.804,0.327,-11.047,-38.513,0.977
0.014,0.796,0.306,-10.620,-36.987,0.488
0.021,0.815,0.312,-10.620,-30.151,-0.549
0.031,0.801,0.318,-10.376,-22.888,-2.380
0.041,0.792,0.319,-10.681,-16.785,-5.310
0.057,0.796,0.326,-11.169,-11.780,-9.583
0.108,0.799,0.338,-11.292,-8.057,-13.123
0.170,0.792,0.355,-10.742,-7.202,-16.174
0.226,0.775,0.364,-10.437,-10.132,-18.921
0.273,0.757,0.367,-10.193,-16.968,-21.118
0.311,0.737,0.369,-10.315,-26.855,-22.400
0.332,0.718,0.365,-11.414,-38.696,-23.437
0.341,0.702,0.353,-12.695,-51.392,-24.109
0.347,0.665,0.341,-14.587,-64.514,-24.353
0.332,0.630,0.322,-17.334,-77.881,-24.658
0.310,0.606,0.308,-19.714,-89.844,-26.184
0.286,0.568,0.284,-22.278,-100.403,-27.771
0.227,0.552,0.242,-24.963,-107.666,-29.114
0.176,0.557,0.212,-28.259,-109.619,-30.396
0.133,0.582,0.181,-31.738,-106.079,-30.823
0.089,0.610,0.164,-33.997,-97.534,-31.860
0.107,0.615,0.161,-34.241,-85.327,-32.532
0.161,0.611,0.177,-33.875,-73.730,-32.593
0.231,0.604,0.211,-32.654,-66.223,-32.593
0.316,0.584,0.247,-30.762,-67.261,-32.288
0.404,0.538,0.286,-28.564,-78.125,-32.166
0.475,0.510,0.296,-27.100,-98.694,-32.898
0.505,0.510,0.269,-26.855,-126.770,-34.729
0.491,0.570,0.232,-27.649,-157.593,-37.415
0.452,0.651,0.192,-28.137,-187.561,-40.894
0.430,0.737,0.144,-27.893,-214.050,-44.373
0.439,0.830,0.128,-25.940,-236.511,-46.936
0.466,0.867,0.125,-20.691,-257.812,-48.279
0.479,0.837,0.098,-13.000,-280.029,-49.622
0.446,0.785,0.045,-4.822,-300.293,-53.162
0.362,0.797,0.034,2.502,-315.186,-61.523
0.257,0.883,0.061,9.766,-324.707,-72.021
0.179,0.905,0.046,18.250,-328.430,-75.073
0.153,0.845,0.035,26.184,-322.937,-71.899
0.131,0.838,0.045,31.189,-309.082,-72.876
0.084,0.890,0.082,32.532,-290.833,-75.500
0.054,0.842,0.090,33.569,-272.217,-72.754
0.056,0.825,0.121,33.264,-252.808,-72.266
0.039,0.736,0.099,31.189,-233.582,-74.463
-0.006,0.712,0.135,27.039,-212.036,-81.909
-0.046,0.706,0.161,23.315,-189.270,-89.172
-0.055,0.717,0.177,20.447,-165.283,-95.032
-0.040,0.745,0.207,18.738,-139.282,-101.379
0.002,0.785,0.242,18.738,-112.671,-109.680
0.074,0.813,0.282,20.203,-87.402,-118.774
0.154,0.797,0.319,21.973,-66.528,-127.869
0.268,0.744,0.359,22.461,-50.659,-135.742
0.369,0.696,0.392,19.287,-40.710,-142.151
0.423,0.666,0.408,12.512,-36.377,-146.851

1.440,1.426,-0.881,-53.894,228.149,-62.317
1.584,1.789,-1.271,-58.716,264.160,-57.434
1.754,2.209,-1.702,-56.091,310.364,-47.241
1.970,2.555,-2.167,-42.664,374.390,-33.752
2.535,2.650,-2.663,-15.076,460.266,-17.029
3.892,2.780,-2.983,20.569,544.434,14.465
4.000,2.906,-3.095,62.317,561.707,62.744
4.000,2.848,-3.138,112.427,503.052,120.911
4.000,2.651,-3.065,170.349,396.301,182.739
4.000,2.224,-2.919,238.342,278.931,234.802
4.000,1.605,-2.782,309.937,184.814,274.475
3.329,0.838,-2.607,371.338,135.193,305.664
2.718,0.136,-2.353,409.607,131.897,330.078
2.209,-0.492,-2.066,422.974,159.790,347.534
1.849,-0.814,-1.669,414.734,203.735,346.680
1.626,-0.979,-1.331,399.780,243.469,332.214
1.487,-1.085,-1.022,382.996,268.555,309.265
1.402,-1.106,-0.708,359.192,275.574,279.541
1.281,-1.077,-0.462,325.500,262.939,246.338
1.144,-1.054,-0.208,284.180,236.572,211.914
1.049,-0.854,-0.061,239.563,201.538,176.819
0.871,-0.684,0.135,200.134,168.823,148.254
0.803,-0.513,0.240,172.607,132.996,125.488
0.771,-0.475,0.250,157.410,93.750,108.582
0.642,-0.402,0.288,145.935,60.791,93.384
0.562,-0.308,0.333,137.268,31.616,80.750
0.488,-0.238,0.344,132.019,7.751,75.012
0.344,-0.381,0.256,126.587,-5.920,72.021
0.206,-0.411,0.207,114.746,-4.211,64.819
0.074,-0.411,0.171,99.670,8.057,58.411
0.095,-0.452,0.126,83.008,25.879,52.979
0.073,-0.414,0.049,63.171,47.058,44.434
-0.030,-0.349,0.027,43.396,69.702,37.537
-0.031,-0.250,-0.016,29.785,88.501,30.518
0.002,-0.155,-0.047,23.682,103.760,23.376
0.089,-0.035,0.072,22.766,113.586,15.564
0.318,0.010,0.073,30.701,107.117,6.836
0.224,-0.018,-0.004,40.344,88.867,-5.127
0.120,0.062,-0.012,43.152,73.608,-17.456
0.129,0.155,0.060,48.645,64.148,-25.269
0.138,0.111,0.058,59.814,56.030,-32.837
0.196,0.157,0.143,66.406,46.753,-38.452
0.307,0.138,0.148,66.895,32.166,-35.706
0.307,0.160,0.166,61.218,12.390,-32.654
0.292,0.208,0.167,50.720,-7.263,-27.466
0.216,0.230,0.105,40.649,-24.536,-22.705
0.118,0.231,0.069,29.602,-31.738,-22.583
0.159,0.430,0.175,19.348,-29.114,-28.259
0.294,0.511,0.213,15.991,-31.189,-27.954
0.375,0.400,0.110,18.677,-43.396,-22.217
0.319,0.484,0.120,11.719,-52.429,-22.217
0.253,0.591,0.083,7.812,-59.509,-21.790
0.239,0.602,0.074,9.216,-59.875,-19.226
0.224,0.598,0.051,11.597,-56.091,-19.836
0.207,0.604,0.046,13.245,-49.438,-21.973
0.214,0.634,0.067,14.282,-41.565,-26.428
0.212,0.666,0.075,14.832,-34.180,-29.358
0.216,0.672,0.083,15.320,-27.283,-29.114
0.224,0.686,0.092,15.442,-20.752,-27.466
0.236,0.710,0.097,14.404,-15.625,-24.353
0.240,0.724,0.103,11.414,-11.536,-17.822
0.247,0.719,0.114,7.690,-9.277,-9.827
0.255,0.709,0.123,3.479,-9.155,-2.869
0.246,0.715,0.131,-1.221,-10.498,2.014
0.226,0.738,0.136,-4.883,-13.123,3.296
0.217,0.766,0.149,-6.653,-16.724,1.770
0.230,0.773,0.165,-7.507,-21.179,-0.610
0.251,0.767,0.184,-6.897,-27.771,-2.869
0.267,0.755,0.201,-5.920,-36.804,-5.371
0.261,0.728,0.207,-5.371,-47.852,-8.118
0.252,0.712,0.211,-6.104,-58.350,-10.376
0.249,0.723,0.211,-8.057,-67.505,-12.695
0.250,0.722,0.207,-10.620,-75.500,-14.282
0.243,0.731,0.194,-12.451,-82.520,-14.771
0.236,0.770,0.191,-14.282,-87.891,-15.259
0.244,0.762,0.184,-15.381,-92.651,-15.564
0.250,0.717,0.172,-16.296,-96.863,-15.564
0.258,0.671,0.164,-19.348,-100.525,-15.747
0.255,0.610,0.148,-23.804,-104.614,-16.235
0.242,0.532,0.124,-29.297,-108.948,-15.747
0.217,0.469,0.094,-35.889,-113.342,-15.015
0.182,0.465,0.058,-43.091,-116.821,-15.564
0.146,0.508,0.030,-48.584,-118.835,-17.761
0.104,0.633,-0.009,-51.880,-119.873,-20.447
0.077,0.720,-0.026,-52.246,-119.812,-22.888
0.063,0.747,-0.061,-49.683,-119.263,-24.048
0.070,0.764,-0.076,-47.302,-117.859,-25.452
0.105,0.759,-0.068,-45.837,-116.272,-27.344
0.146,0.720,-0.061,-44.312,-114.929,-29.236
0.184,0.661,-0.048,-43.457,-114.380,-31.067
0.199,0.635,-0.052,-42.480,-114.380,-33.081
0.203,0.651,-0.044,-40.894,-113.037,-35.645
0.224,0.674,-0.026,-36.926,-110.718,-38.147
0.239,0.774,-0.005,-30.334,-107.666,-40.466
0.263,0.889,0.024,-21.606,-104.126,-42.053
0.276,0.960,0.037,-12.207,-101.501,-41.748
0.304,0.948,0.059,-3.418,-100.098,-40.527
0.343,0.918,0.095,3.296,-100.403,-39.551
0.378,0.871,0.149,7.935,-104.065,-40.344
0.411,0.778,0.179,11.108,-111.511,-42.053
0.418,0.696,0.208,11.536,-122.314,-43.884
0.417,0.634,0.225,9.644,-134.155,-47.180
0.406,0.685,0.230,7.080,-145.813,-52.429
0.413,0.792,0.247,4.211,-156.433,-57.129
0.434,0.812,0.223,4.333,-166.138,-59.875
0.407,0.785,0.167,4.578,-174.377,-64.331
0.413,0.880,0.213,0.793,-179.077,-72.388
0.422,0.935,0.218,-0.977,-185.364,-77.698
0.395,0.902,0.187,0.305,-192.078,-80.566
0.349,0.867,0.175,0.671,-194.580,-82.336
0.292,0.792,0.145,1.099,-191.956,-84.290
0.240,0.751,0.137,0.671,-183.105,-89.355
0.238,0.748,0.156,-1.221,-169.128,-95.581
0.247,0.752,0.174,-4.333,-152.588,-100.281
0.243,0.726,0.171,-9.277,-135.315,-102.722
0.250,0.710,0.167,-15.320,-115.540,-106.201
0.262,0.749,0.172,-21.484,-94.849,-112.061
0.288,0.793,0.186,-25.757,-74.524,-117.859
0.343,0.792,0.201,-27.344,-56.396,-123.108

1.477,0.885,-0.569,13.062,195.251,-57.007
1.584,0.922,-0.629,27.710,206.970,-45.837
1.702,0.914,-0.643,46.021,214.600,-34.546
1.822,0.870,-0.653,64.148,217.041,-20.691
1.906,0.838,-0.662,79.468,213.135,-5.920
1.931,0.811,-0.711,92.163,203.308,8.362
1.919,0.797,-0.757,102.539,191.101,22.156
1.871,0.819,-0.794,112.000,179.321,34.302
1.836,0.853,-0.830,120.789,168.213,46.570
1.771,0.875,-0.883,129.456,156.555,57.312
1.662,0.913,-0.966,137.329,147.522,63.843
1.589,0.977,-1.078,143.616,145.996,67.932
1.605,1.038,-1.219,148.315,155.212,71.228
1.734,1.120,-1.418,151.062,174.927,74.585
2.001,1.265,-1.658,151.184,200.317,79.956
2.332,1.512,-1.916,151.672,223.389,89.233
2.753,1.819,-2.117,157.410,235.596,103.394
3.104,2.099,-2.282,168.701,231.018,121.521
3.434,2.259,-2.441,185.486,215.210,142.517
3.681,2.214,-2.555,208.984,191.345,170.471
3.758,2.055,-2.542,236.206,160.889,208.435
3.635,1.766,-2.406,268.921,125.305,249.695
3.327,1.314,-2.242,308.228,89.539,288.940
2.932,0.756,-2.066,343.140,60.486,322.815
2.424,0.230,-1.885,364.868,41.138,348.572
1.774,-0.221,-1.688,371.033,36.133,362.122
1.119,-0.609,-1.405,361.084,50.781,361.328
0.627,-0.833,-1.041,338.867,80.261,345.093
0.387,-0.888,-0.682,312.378,114.258,320.251
0.253,-1.030,-0.441,283.325,139.099,290.649
0.167,-0.981,-0.250,249.084,148.926,244.324
0.265,-0.698,-0.038,224.487,146.118,197.937
0.420,-0.412,0.199,212.402,130.310,163.818
0.497,-0.415,0.267,210.876,100.586,142.700
0.485,-0.603,0.211,208.069,64.575,126.099
0.388,-0.718,0.197,193.054,36.133,106.995
0.239,-0.821,0.167,172.119,18.860,86.670
0.155,-0.969,0.129,146.667,16.785,68.176
0.141,-1.028,0.115,115.601,29.724,52.307
0.122,-0.974,0.111,83.008,50.903,40.649
0.151,-0.944,0.091,54.688,74.829,36.011
0.247,-0.901,0.080,32.349,95.825,35.156
0.314,-0.818,0.100,17.273,108.154,33.569
0.349,-0.737,0.120,9.216,108.398,28.870
0.340,-0.668,0.127,8.118,98.083,21.118
0.291,-0.583,0.158,11.475,82.275,11.658
0.244,-0.496,0.194,16.663,64.697,3.418
0.182,-0.414,0.202,20.569,46.692,-1.831
0.067,-0.349,0.168,21.912,33.325,-5.920
-0.033,-0.284,0.129,19.470,29.724,-10.681
-0.104,-0.153,0.136,14.099,36.011,-16.602
-0.080,-0.002,0.180,8.972,45.898,-20.569
-0.055,0.009,0.139,6.470,52.368,-21.423
0.001,0.150,0.198,1.526,58.655,-25.085
0.094,0.231,0.193,-2.014,57.678,-22.583
0.169,0.369,0.231,-3.113,49.316,-21.667
0.214,0.474,0.244,0.305,34.607,-20.813
0.255,0.540,0.257,7.812,15.503,-19.897
0.279,0.554,0.265,15.930,-4.761,-18.066
0.285,0.573,0.246,21.179,-25.574,-15.259
0.240,0.572,0.211,23.682,-45.105,-12.512
0.174,0.570,0.180,23.682,-58.838,-11.536
0.153,0.576,0.154,20.996,-64.758,-11.353
0.116,0.592,0.124,16.785,-64.026,-10.864
0.074,0.625,0.094,11.292,-56.458,-11.536
0.072,0.670,0.087,5.127,-43.518,-13.123
0.104,0.707,0.088,-0.488,-28.931,-15.259
0.160,0.751,0.099,-5.920,-15.625,-16.541
0.203,0.795,0.109,-10.498,-7.080,-16.418
0.224,0.815,0.112,-12.817,-3.601,-14.954
0.232,0.891,0.101,-13.428,-2.869,-11.292
0.263,0.794,0.092,-12.329,-3.113,-3.174
0.221,0.728,0.057,-11.536,-6.165,-3.174
0.292,0.857,0.155,-13.245,-9.583,-8.240
0.305,0.711,0.120,-11.780,-21.606,-4.456
0.325,0.729,0.117,-11.108,-38.147,-3.174
0.295,0.749,0.093,-10.925,-54.382,-3.174
0.255,0.754,0.062,-8.789,-69.031,-3.601
0.207,0.857,0.068,-6.104,-79.346,-6.592
0.207,0.877,0.077,-1.831,-85.632,-9.033
0.235,0.837,0.087,3.235,-91.431,-11.841
0.255,0.822,0.104,6.165,-97.168,-16.724
0.289,0.806,0.149,6.592,-104.126,-21.362
0.348,0.754,0.178,6.592,-115.234,-23.254
0.381,0.728,0.160,5.249,-130.249,-23.376
0.364,0.761,0.141,0.793,-146.118,-23.499
0.335,0.825,0.117,-4.150,-161.499,-23.254
0.312,0.840,0.084,-7.202,-174.500,-22.400
0.292,0.819,0.048,-9.399,-183.716,-22.827
0.262,0.795,0.012,-11.108,-189.636,-25.757
0.207,0.758,-0.034,-12.268,-191.895,-29.968
0.155,0.764,-0.083,-12.634,-188.049,-34.546
0.118,0.857,-0.094,-12.390,-177.917,-38.208
0.082,0.969,-0.095,-10.071,-164.978,-39.063
0.066,1.001,-0.095,-5.371,-149.963,-38.025
0.073,0.980,-0.089,-0.305,-133.484,-36.865
0.090,0.951,-0.065,2.380,-117.615,-36.438
0.095,0.907,-0.036,3.296,-103.577,-37.903
0.089,0.832,-0.016,4.761,-91.675,-42.053
0.068,0.795,-0.001,5.432,-79.651,-48.279
0.063,0.817,0.032,4.578,-66.833,-54.749
0.092,0.818,0.064,2.869,-55.115,-59.631
0.133,0.848,0.077,0.000,-46.021,-62.378
0.156,0.874,0.083,-4.639,-39.978,-62.256
0.168,0.858,0.060,-10.498,-36.865,-60.425
0.179,0.860,0.036,-18.005,-34.973,-59.570
0.195,0.860,0.023,-25.513,-33.691,-60.547
0.205,0.878,0.007,-31.067,-33.203,-63.049
0.212,0.893,0.010,-33.936,-32.715,-66.528
0.223,0.898,0.019,-33.325,-32.288,-69.702
0.248,0.913,0.044,-29.236,-31.860,-73.792
0.287,0.910,0.081,-23.193,-31.738,-78.735
0.326,0.916,0.119,-15.686,-33.752,-83.679
0.369,0.933,0.169,-8.240,-38.513,-87.891
0.421,0.918,0.208,-1.770,-46.631,-89.844
0.431,0.899,0.216,1.709,-57.129,-89.783
0.400,0.897,0.201,0.244,-66.833,-89.600
0.371,0.907,0.180,-6.531,-72.083,-90.820
0.328,0.891,0.144,-15.015,-72.144,-91.919

0.783,2.048,-0.658,-41.748,190.674,-29.114
1.079,2.505,-0.894,-58.472,238.831,-30.029
1.605,2.886,-1.113,-73.120,286.072,-26.245
2.180,3.019,-1.376,-80.139,323.486,-14.160
2.698,3.006,-1.657,-83.191,344.543,10.315
3.058,2.916,-1.946,-85.449,351.318,48.645
3.213,2.928,-2.260,-79.407,353.210,95.154
3.166,2.918,-2.419,-57.190,358.704,145.325
3.128,2.739,-2.453,-10.132,366.821,195.862
3.115,2.401,-2.351,58.044,369.263,234.375
3.067,1.952,-2.198,137.573,359.009,254.089
3.028,1.391,-2.011,213.989,331.604,263.123
2.935,0.860,-1.782,276.978,288.330,265.442
2.663,0.494,-1.565,322.327,238.953,260.071
2.338,0.295,-1.371,349.121,194.580,252.136
2.020,-0.127,-1.308,361.206,170.044,258.362
1.635,-0.502,-1.254,349.182,168.396,264.771
1.241,-0.509,-1.032,316.589,187.317,259.705
0.973,-0.512,-0.849,289.673,218.445,250.671
0.799,-0.445,-0.651,269.409,246.460,231.079
0.690,-0.395,-0.461,255.188,265.869,202.698
0.742,-0.396,-0.278,247.253,272.034,168.213
0.854,-0.473,-0.125,240.295,263.184,132.385
0.936,-0.583,-0.010,227.783,238.342,101.685
0.972,-0.650,0.016,206.970,202.209,80.750
0.916,-0.634,0.002,180.725,163.086,69.580
0.830,-0.566,0.010,154.602,130.127,64.819
0.812,-0.569,0.019,132.751,105.530,66.345
0.718,-0.578,-0.025,110.352,83.984,75.256
0.532,-0.577,-0.110,88.074,65.796,84.839
0.336,-0.508,-0.168,69.702,58.167,85.938
0.225,-0.395,-0.156,59.082,60.486,76.721
0.167,-0.313,-0.124,56.702,65.857,62.317
0.138,-0.269,-0.090,58.716,70.007,47.363
0.112,-0.207,-0.047,61.890,70.435,35.950
0.112,-0.146,0.013,65.002,66.528,27.344
0.106,-0.126,0.063,67.566,58.044,20.874
0.096,-0.126,0.086,67.017,45.593,17.029
0.026,-0.100,0.079,60.730,31.921,14.893
-0.068,-0.052,0.066,50.781,22.156,12.451
-0.149,0.020,0.064,39.734,19.714,9.521
-0.177,0.085,0.073,30.762,23.682,6.287
-0.156,0.164,0.106,23.193,30.701,3.174
-0.118,0.241,0.154,19.287,35.889,-1.709
-0.055,0.296,0.187,18.250,36.560,-6.653
-0.007,0.348,0.214,18.982,32.043,-12.207
0.054,0.409,0.246,20.142,22.583,-16.479
0.090,0.461,0.261,21.790,7.996,-19.470
0.087,0.496,0.245,24.536,-9.094,-21.729
0.088,0.515,0.231,26.733,-25.513,-23.926
0.031,0.512,0.203,26.794,-38.940,-25.757
-0.015,0.515,0.178,24.048,-44.128,-27.710
0.001,0.538,0.166,18.921,-40.466,-28.015
0.041,0.577,0.170,13.123,-32.104,-27.771
0.068,0.620,0.173,8.362,-23.560,-28.809
0.087,0.660,0.173,5.676,-16.907,-30.579
0.125,0.687,0.183,4.089,-11.169,-31.555
0.133,0.737,0.196,3.174,-8.057,-30.762
0.120,0.768,0.187,2.502,-6.836,-27.283
0.168,0.815,0.220,2.319,-5.615,-21.545
0.184,0.765,0.203,4.578,-7.629,-18.188
0.184,0.844,0.236,6.592,-12.207,-22.095
0.174,0.809,0.235,8.789,-18.921,-23.621
0.204,0.867,0.299,9.888,-26.001,-27.344
0.230,0.860,0.290,11.169,-36.743,-26.062
0.205,0.866,0.281,10.437,-48.035,-21.973
0.148,0.906,0.253,8.850,-56.702,-16.052
0.116,0.826,0.208,7.690,-58.838,-8.423
-0.001,0.837,0.173,5.615,-55.969,-10.864
-0.025,0.881,0.177,2.502,-45.227,-17.395
0.011,0.889,0.196,-0.854,-30.212,-20.081
0.091,0.835,0.194,-4.578,-15.991,-16.846
0.163,0.883,0.205,-9.338,-7.690,-16.846
0.234,0.880,0.201,-12.268,-5.188,-14.832
0.284,0.859,0.200,-13.672,-7.507,-13.550
0.334,0.878,0.221,-13.611,-14.526,-14.465
0.360,0.879,0.206,-10.803,-27.222,-14.282
0.336,0.882,0.189,-7.385,-41.382,-13.672
0.309,0.878,0.174,-3.052,-53.406,-13.672
0.286,0.893,0.187,1.038,-63.232,-14.526
0.240,0.871,0.176,4.578,-71.655,-15.259
0.195,0.827,0.174,6.409,-76.599,-15.747
0.161,0.800,0.181,6.531,-77.393,-17.700
0.133,0.746,0.180,4.700,-75.989,-20.752
0.120,0.698,0.172,0.977,-72.998,-24.841
0.089,0.699,0.156,-5.432,-68.787,-30.029
0.050,0.725,0.139,-12.451,-62.805,-35.767
0.045,0.762,0.129,-18.433,-54.321,-40.955
0.077,0.789,0.124,-22.644,-45.410,-44.861
0.105,0.820,0.116,-25.635,-38.147,-47.729
0.135,0.856,0.113,-26.611,-32.898,-49.072
0.182,0.888,0.116,-26.611,-29.480,-48.157
0.220,0.900,0.116,-24.475,-29.785,-44.922
0.241,0.891,0.109,-20.996,-33.020,-40.222
0.251,0.874,0.106,-17.151,-37.842,-35.583
0.256,0.865,0.103,-13.733,-43.091,-31.250
0.243,0.853,0.099,-10.742,-48.340,-27.100
0.214,0.840,0.095,-8.789,-52.429,-24.048
0.200,0.837,0.092,-7.507,-54.260,-22.888
0.188,0.818,0.082,-7.629,-54.199,-22.400
0.187,0.794,0.079,-9.705,-52.795,-21.851
0.198,0.776,0.081,-13.062,-51.270,-21.851
0.214,0.774,0.079,-16.663,-50.537,-22.583
0.235,0.756,0.079,-19.958,-51.025,-22.949
0.252,0.737,0.081,-22.644,-53.894,-23.132
0.254,0.757,0.085,-24.353,-58.777,-24.109
0.252,0.777,0.082,-24.841,-64.819,-25.818
0.248,0.813,0.071,-24.170,-70.679,-27.344
0.251,0.859,0.076,-22.339,-75.073,-29.236
0.245,0.883,0.082,-19.287,-78.918,-31.189
0.242,0.870,0.082,-15.381,-82.153,-32.654
0.247,0.844,0.085,-13.245,-84.290,-33.752
0.250,0.806,0.094,-13.123,-85.938,-34.241
0.254,0.752,0.092,-13.916,-87.891,-34.973
0.260,0.741,0.088,-17.090,-89.050,-36.255
0.264,0.753,0.091,-21.301,-89.966,-38.269
0.268,0.777,0.086,-24.292,-91.187,-39.856
0.271,0.866,0.072,-26.611,-91.858,-41.321
0.286,0.933,0.066,-27.527,-91.553,-42.114

0.977,1.444,-0.865,0.427,148.010,26.550
1.174,1.688,-1.012,-4.395,178.345,35.400
1.375,1.982,-1.166,-5.066,200.256,47.729
1.546,2.336,-1.348,0.366,212.769,61.951
1.700,2.680,-1.521,11.841,219.910,78.918
1.958,2.970,-1.693,28.809,227.539,98.083
2.318,3.182,-1.829,49.622,237.427,118.835
2.768,3.229,-1.943,72.876,247.070,143.127
3.196,3.065,-2.072,96.252,249.451,174.805
3.498,2.844,-2.153,116.760,239.319,214.478
3.536,2.611,-2.202,138.245,216.248,254.822
3.486,2.253,-2.202,165.649,191.589,290.710
3.337,1.789,-2.148,196.167,170.471,321.045
3.039,1.273,-2.050,223.816,155.334,343.384
2.678,0.806,-1.920,244.751,152.527,356.262
2.366,0.404,-1.739,258.118,165.588,363.342
2.014,-0.047,-1.539,266.113,188.232,359.741
1.725,-0.233,-1.270,266.663,214.294,337.402
1.480,-0.300,-1.016,268.860,235.413,311.157
1.273,-0.399,-0.803,275.635,244.690,282.776
1.040,-0.445,-0.609,282.288,243.469,249.146
0.892,-0.432,-0.416,285.950,236.450,213.623
0.831,-0.456,-0.234,287.354,222.168,180.237
0.821,-0.506,-0.057,284.790,198.914,149.475
0.880,-0.625,0.079,275.635,166.504,123.840
0.967,-0.695,0.181,254.578,127.258,108.643
0.950,-0.737,0.233,222.656,81.177,103.699
0.773,-0.739,0.189,182.617,33.936,104.065
0.543,-0.721,0.083,140.747,-0.244,105.591
0.289,-0.687,-0.069,102.783,-13.855,103.577
0.046,-0.635,-0.211,73.730,-4.089,94.971
-0.111,-0.562,-0.273,55.054,28.137,81.726
-0.155,-0.510,-0.291,48.035,73.242,64.636
-0.071,-0.490,-0.265,49.744,117.432,46.753
0.076,-0.491,-0.204,54.260,150.940,31.433
0.207,-0.509,-0.126,56.824,167.297,19.897
0.335,-0.509,-0.029,56.335,165.833,12.329
0.374,-0.486,0.060,52.490,148.743,7.812
0.361,-0.449,0.106,44.678,122.070,5.615
0.300,-0.384,0.122,33.813,92.468,4.883
0.228,-0.288,0.133,23.071,66.772,2.563
0.137,-0.153,0.142,14.160,46.814,-1.099
0.045,-0.033,0.139,9.583,34.363,-5.188
0.001,0.084,0.144,9.583,29.663,-8.728
-0.007,0.196,0.175,12.878,29.968,-11.963
0.027,0.290,0.228,18.860,31.372,-15.198
0.095,0.343,0.295,25.452,30.029,-17.822
0.171,0.377,0.355,30.457,23.132,-18.738
0.225,0.418,0.406,32.227,10.742,-17.212
0.247,0.456,0.428,30.701,-4.272,-13.550
0.209,0.474,0.420,26.306,-18.738,-8.301
0.156,0.495,0.406,19.714,-28.809,-3.723
0.120,0.535,0.400,11.780,-32.654,-0.122
0.073,0.571,0.384,4.517,-32.349,1.709
0.050,0.609,0.370,-1.709,-28.259,1.465
0.026,0.667,0.357,-6.653,-21.729,0.549
0.005,0.713,0.339,-9.094,-13.184,0.122
-0.016,0.762,0.321,-10.498,-3.418,0.244
-0.043,0.806,0.314,-10.864,7.751,0.122
-0.023,0.846,0.333,-10.315,18.372,0.122
0.000,0.852,0.347,-9.766,25.146,1.099
0.001,0.876,0.355,-10.925,27.710,3.174
0.000,0.921,0.338,-13.123,27.710,6.836
-0.011,0.905,0.324,-15.381,27.649,11.475
-0.036,0.906,0.310,-18.066,26.184,11.169
-0.036,0.908,0.292,-20.386,23.865,9.033
-0.031,0.953,0.262,-22.217,20.813,7.629
-0.036,0.935,0.256,-23.315,18.433,9.338
-0.050,0.974,0.226,-24.109,15.076,9.827
-0.052,0.989,0.191,-23.682,12.634,10.498
-0.049,0.999,0.175,-21.790,11.536,10.376
-0.020,1.015,0.183,-18.616,10.071,8.118
0.019,1.008,0.196,-13.977,6.470,5.493
0.054,1.000,0.218,-8.911,-0.061,2.930
0.044,0.989,0.226,-4.211,-8.362,0.122
0.036,0.979,0.229,-0.916,-15.259,-1.465
0.026,0.979,0.233,0.061,-19.165,-0.977
-0.006,0.968,0.229,-0.488,-20.020,-0.061
-0.001,0.963,0.230,-2.686,-16.663,0.427
0.010,0.958,0.235,-6.409,-11.780,1.343
0.009,0.957,0.230,-10.132,-7.812,2.441
-0.007,0.962,0.219,-13.123,-3.906,2.502
-0.006,0.960,0.206,-15.564,0.610,2.197
0.001,0.972,0.198,-17.395,5.310,2.136
0.013,0.990,0.193,-18.616,8.789,2.686
0.032,1.008,0.196,-18.555,9.338,2.686
0.045,1.027,0.202,-16.968,6.958,2.625
0.037,1.033,0.201,-13.794,2.380,2.686
0.014,1.019,0.193,-10.803,-2.319,2.869
-0.000,1.002,0.188,-7.935,-5.066,2.869
-0.012,0.995,0.190,-5.676,-5.615,2.197
-0.020,1.000,0.189,-4.517,-5.371,1.648
-0.020,0.998,0.188,-3.845,-5.371,1.099
-0.011,0.986,0.191,-3.845,-5.859,0.916
-0.011,0.992,0.194,-5.005,-7.385,1.404
-0.020,0.996,0.187,-6.348,-9.460,2.258
-0.035,1.006,0.177,-7.812,-11.353,3.113
-0.071,1.020,0.170,-8.240,-12.146,3.479
-0.087,1.020,0.169,-6.958,-11.047,3.357
-0.090,1.014,0.181,-5.737,-8.606,3.235
-0.085,1.006,0.188,-4.700,-6.531,2.747
-0.092,0.993,0.192,-3.845,-5.798,1.892
-0.091,0.980,0.197,-3.845,-5.554,1.160
-0.079,0.967,0.203,-4.211,-6.104,0.732
-0.080,0.948,0.198,-5.127,-7.568,-0.061
-0.084,0.938,0.193,-6.836,-8.850,-0.427
-0.065,0.951,0.192,-8.240,-9.583,-0.244
-0.051,0.961,0.193,-8.789,-11.230,-0.183
-0.041,0.952,0.189,-8.301,-14.099,-0.427
-0.041,0.939,0.179,-7.446,-17.273,-0.793
-0.050,0.931,0.168,-7.080,-19.531,-1.038
-0.062,0.922,0.155,-7.690,-19.592,-1.221
-0.080,0.924,0.142,-8.667,-17.090,-1.038
-0.088,0.927,0.131,-9.888,-12.451,-0.183
-0.087,0.934,0.127,-10.742,-7.141,0.366
-0.081,0.943,0.125,-10.559,-2.014,-0.488
-0.057,0.952,0.132,-10.010,1.770,-1.343
-0.028,0.966,0.138,-9.094,3.052,-1.953
-0.013,0.981,0.145,-7.751,1.892,-1.953

1.357,1.529,-0.733,22.888,116.882,-1.587
1.587,1.866,-0.964,15.015,145.752,9.338
1.836,2.258,-1.291,6.287,178.711,24.048
2.250,2.649,-1.681,1.526,218.506,43.274
2.858,3.047,-2.027,3.418,263.062,67.261
3.483,3.315,-2.356,16.602,304.810,95.459
3.990,3.345,-2.686,41.565,336.182,135.620
4.000,3.167,-2.946,76.477,355.835,188.599
4.000,2.823,-3.043,123.352,366.089,247.681
4.000,2.312,-2.950,182.251,365.173,303.284
3.998,1.611,-2.715,249.390,345.642,345.398
3.785,0.849,-2.415,315.125,295.837,369.141
3.323,0.131,-2.155,369.019,218.872,373.474
2.792,-0.093,-1.944,402.771,135.864,367.737
2.318,-0.830,-2.001,426.392,70.740,372.009
1.673,-1.127,-1.909,418.701,30.457,349.731
1.106,-1.050,-1.684,393.188,25.879,317.078
0.851,-1.078,-1.495,376.770,50.476,293.701
0.902,-0.911,-1.226,359.375,86.548,272.156
0.727,-1.074,-1.046,345.154,119.751,253.418
0.728,-0.940,-0.800,322.815,141.846,216.187
0.780,-0.759,-0.507,301.270,156.494,181.702
0.788,-0.779,-0.320,286.438,153.625,153.564
0.777,-0.756,-0.142,269.226,138.062,128.967
0.712,-0.759,-0.020,249.084,114.685,111.328
0.612,-0.749,0.024,226.929,87.402,97.412
0.489,-0.667,0.062,203.247,64.758,86.670
0.391,-0.614,0.070,180.969,49.988,80.627
0.327,-0.608,0.038,158.875,41.931,79.712
0.227,-0.618,-0.025,136.475,39.063,80.017
0.128,-0.590,-0.051,115.723,43.152,77.271
0.097,-0.506,-0.048,100.708,50.598,69.336
0.098,-0.447,-0.037,93.079,55.115,57.556
0.110,-0.390,-0.005,91.614,55.542,43.579
0.143,-0.344,0.034,94.360,52.002,30.945
0.131,-0.285,0.062,97.595,44.861,18.433
0.129,-0.232,0.094,100.342,38.574,7.446
0.136,-0.150,0.119,100.281,33.813,0.122
0.105,-0.080,0.144,98.450,30.334,-4.211
0.091,-0.031,0.161,95.398,28.564,-7.385
0.056,0.007,0.181,90.820,28.809,-10.071
0.060,0.055,0.212,83.496,32.043,-10.986
0.076,0.126,0.256,73.914,35.217,-10.132
0.088,0.202,0.294,62.805,36.011,-8.972
0.114,0.271,0.325,51.880,34.363,-8.789
0.151,0.333,0.351,42.053,29.724,-8.362
0.184,0.393,0.378,33.936,21.179,-7.874
0.199,0.463,0.391,27.710,8.972,-7.568
0.192,0.520,0.386,23.682,-4.883,-7.385
0.175,0.560,0.372,21.240,-18.311,-6.042
0.119,0.590,0.360,20.325,-28.992,-5.127
0.087,0.615,0.357,20.630,-33.264,-5.066
0.088,0.626,0.368,20.569,-32.471,-5.676
0.109,0.646,0.392,19.104,-29.114,-6.470
0.129,0.665,0.415,16.846,-26.062,-6.897
0.122,0.681,0.424,14.038,-24.170,-6.470
0.108,0.684,0.417,10.681,-21.362,-4.333
0.073,0.695,0.407,6.653,-15.869,-2.686
0.047,0.739,0.430,1.648,-6.836,-1.709
0.058,0.759,0.445,-3.357,2.319,0.671
0.082,0.784,0.457,-7.751,8.972,3.601
0.106,0.804,0.461,-11.658,12.329,7.202
0.092,0.800,0.445,-14.221,12.451,9.399
0.056,0.808,0.426,-15.930,10.681,8.057
0.050,0.824,0.447,-16.602,8.789,4.517
0.092,0.863,0.455,-15.625,4.089,0.305
0.094,0.871,0.468,-12.573,-3.479,-1.404
0.046,0.907,0.445,-9.338,-12.207,-2.686
0.042,0.922,0.451,-5.371,-17.883,0.061
0.009,0.846,0.412,-0.671,-19.653,3.174
-0.040,0.842,0.424,1.099,-19.470,-2.441
-0.016,0.852,0.449,1.221,-17.029,-8.423
-0.012,0.846,0.438,0.000,-14.282,-14.404
0.023,0.869,0.479,-2.258,-9.460,-15.198
0.053,0.846,0.427,-2.380,-8.301,-12.268
0.123,0.937,0.490,-3.418,-9.583,-13.672
0.133,0.851,0.481,-3.052,-13.000,-9.216
0.185,0.894,0.500,-4.272,-18.982,-9.216
0.208,0.871,0.497,-4.639,-28.564,-8.484
0.175,0.868,0.477,-5.371,-39.856,-7.935
0.141,0.847,0.454,-6.348,-49.255,-7.324
0.114,0.848,0.423,-6.836,-55.176,-7.874
0.070,0.840,0.404,-7.202,-56.763,-9.216
0.012,0.828,0.372,-7.812,-54.138,-10.681
-0.004,0.821,0.365,-7.996,-45.532,-12.390
0.012,0.815,0.370,-8.301,-34.241,-13.123
0.016,0.812,0.374,-9.216,-23.682,-13.550
0.034,0.805,0.377,-10.986,-14.954,-13.245
0.062,0.808,0.375,-13.428,-8.667,-12.390
0.084,0.809,0.378,-15.808,-5.676,-11.963
0.112,0.809,0.377,-17.395,-5.981,-11.597
0.134,0.799,0.370,-18.738,-9.277,-11.108
0.144,0.792,0.356,-19.531,-14.771,-11.108
0.152,0.787,0.342,-19.287,-21.545,-11.719
0.151,0.777,0.321,-18.127,-29.114,-12.695
0.130,0.771,0.300,-15.503,-36.804,-14.038
0.086,0.756,0.275,-12.451,-42.786,-16.174
0.066,0.733,0.256,-9.216,-45.105,-18.494
0.059,0.724,0.249,-6.287,-44.922,-20.935
0.063,0.707,0.258,-3.723,-42.847,-23.315
0.089,0.674,0.275,-1.770,-41.077,-24.719
0.133,0.641,0.291,-0.671,-40.955,-25.818
0.171,0.604,0.312,-0.549,-43.640,-26.306
0.206,0.562,0.317,-0.977,-50.354,-26.001
0.205,0.521,0.312,-1.343,-60.486,-26.123
0.179,0.511,0.287,-1.160,-71.533,-27.588
0.159,0.547,0.269,-0.427,-81.116,-29.846
0.118,0.586,0.251,0.671,-88.196,-32.043
0.089,0.625,0.230,2.319,-91.553,-33.752
0.084,0.665,0.227,4.028,-91.003,-34.424
0.086,0.682,0.228,5.493,-88.440,-34.668
0.096,0.689,0.229,5.066,-85.510,-34.485
0.119,0.686,0.236,3.723,-83.374,-34.363
0.143,0.680,0.239,2.380,-83.313,-35.156
0.141,0.686,0.232,0.732,-85.510,-37.292
0.137,0.697,0.228,-0.122,-88.013,-39.856
0.139,0.710,0.230,0.732,-90.088,-42.053
0.139,0.713,0.237,1.831,-91.919,-43.640
0.148,0.708,0.245,3.845,-93.811,-45.471

1.468,1.185,-0.375,15.869,95.215,61.340
1.574,1.337,-0.494,12.390,112.671,69.092
1.691,1.550,-0.616,10.193,133.362,76.843
1.886,1.794,-0.738,12.329,159.790,85.388
2.186,2.087,-0.830,18.311,190.979,94.482
2.602,2.365,-0.878,30.579,220.215,106.262
3.018,2.486,-0.914,47.913,236.938,125.671
3.365,2.471,-0.976,66.589,236.267,152.954
3.578,2.385,-1.026,82.947,222.107,186.829
3.568,2.202,-1.119,97.107,202.271,225.525
3.385,1.961,-1.251,109.924,190.613,263.428
3.106,1.688,-1.381,119.812,196.838,298.096
2.870,1.404,-1.462,126.648,222.412,325.684
2.626,1.146,-1.487,133.057,260.193,342.590
2.484,0.871,-1.472,140.259,302.246,349.426
2.526,0.632,-1.390,149.414,335.449,352.661
2.530,0.337,-1.219,163.696,342.590,354.004
2.370,0.035,-1.025,178.711,319.580,344.788
2.053,-0.066,-0.848,192.688,274.719,329.224
1.631,-0.146,-0.744,211.426,222.839,313.599
1.223,-0.300,-0.699,230.774,176.819,292.419
0.859,-0.430,-0.649,243.591,147.461,264.404
0.586,-0.496,-0.554,247.742,136.841,231.323
0.409,-0.646,-0.458,244.385,139.099,196.533
0.443,-0.902,-0.343,228.821,151.001,166.870
0.577,-1.047,-0.288,190.857,164.429,151.306
0.580,-0.993,-0.245,136.536,169.983,144.348
0.520,-0.850,-0.260,88.135,167.908,132.080
0.475,-0.673,-0.293,58.899,161.438,108.887
0.453,-0.457,-0.266,51.025,154.236,78.735
0.439,-0.282,-0.255,64.697,145.386,48.828
0.450,-0.247,-0.243,96.802,136.719,22.949
0.492,-0.315,-0.182,135.986,128.723,2.136
0.541,-0.480,-0.052,171.448,118.530,-12.573
0.598,-0.637,0.090,193.054,102.539,-17.822
0.598,-0.728,0.207,195.068,78.796,-11.536
0.517,-0.763,0.280,181.519,49.377,-0.305
0.382,-0.697,0.322,156.982,20.874,8.423
0.214,-0.562,0.331,129.333,-0.671,9.949
0.085,-0.377,0.343,104.858,-12.756,5.066
0.026,-0.213,0.348,87.524,-17.883,-1.770
0.019,-0.066,0.367,77.148,-19.165,-6.958
0.018,0.041,0.383,72.083,-20.081,-10.437
-0.009,0.100,0.392,69.885,-21.057,-12.390
-0.019,0.152,0.406,68.359,-20.691,-13.306
-0.020,0.159,0.411,65.369,-19.714,-13.550
-0.013,0.174,0.417,59.204,-19.165,-13.245
0.004,0.220,0.428,50.110,-19.836,-13.367
0.034,0.259,0.431,41.321,-22.827,-13.428
0.025,0.307,0.416,32.715,-27.405,-12.756
-0.005,0.369,0.390,25.085,-30.945,-12.024
-0.033,0.420,0.368,19.775,-30.029,-11.902
-0.020,0.444,0.351,16.235,-24.841,-11.780
-0.010,0.466,0.328,12.512,-17.151,-12.390
0.012,0.517,0.324,8.545,-8.789,-13.550
0.044,0.595,0.338,4.639,-1.953,-13.672
0.061,0.654,0.356,2.930,1.770,-12.451
0.076,0.690,0.368,2.258,2.075,-10.254
0.083,0.723,0.384,1.709,-0.183,-7.874
0.081,0.750,0.391,0.671,-5.310,-5.371
0.069,0.766,0.389,-1.099,-12.634,-3.479
0.036,0.778,0.385,-2.502,-21.484,-3.296
0.006,0.772,0.375,-3.845,-30.457,-4.333
-0.004,0.755,0.366,-5.310,-39.490,-6.470
-0.026,0.755,0.334,-8.118,-48.462,-7.874
-0.100,0.774,0.268,-11.658,-54.138,-6.592
-0.156,0.765,0.211,-13.794,-51.880,-4.517
-0.195,0.824,0.188,-14.709,-43.152,-8.301
-0.164,0.825,0.184,-13.184,-30.945,-14.099
-0.095,0.893,0.194,-11.230,-19.653,-20.325
-0.008,0.887,0.234,-8.484,-10.681,-22.400
0.109,0.944,0.309,-4.700,-7.812,-24.658
0.199,0.938,0.354,1.648,-11.536,-25.269
0.260,0.945,0.392,7.690,-21.118,-24.963
0.292,0.934,0.412,11.230,-34.607,-23.010
0.312,0.912,0.422,12.146,-50.171,-18.372
0.317,0.904,0.420,9.338,-66.467,-12.207
0.260,0.895,0.387,5.005,-82.214,-7.202
0.136,0.894,0.340,0.244,-92.468,-5.249
0.021,0.887,0.293,-4.211,-91.003,-5.188
-0.058,0.870,0.257,-9.216,-76.660,-6.470
-0.053,0.863,0.254,-13.977,-52.368,-7.629
-0.021,0.883,0.260,-19.165,-25.635,-9.155
0.042,0.896,0.269,-23.804,-2.625,-10.498
0.114,0.904,0.287,-27.527,13.794,-10.620
0.180,0.914,0.309,-29.724,21.667,-10.193
0.232,0.900,0.319,-30.334,20.386,-9.521
0.268,0.893,0.327,-30.029,11.536,-8.728
0.303,0.869,0.336,-28.870,-2.197,-8.240
0.316,0.844,0.328,-26.855,-20.386,-8.606
0.289,0.824,0.307,-24.475,-41.199,-9.094
0.265,0.813,0.281,-22.278,-61.523,-8.850
0.244,0.805,0.264,-19.043,-80.200,-7.935
0.192,0.778,0.239,-14.404,-96.558,-6.775
0.126,0.729,0.211,-9.827,-108.826,-5.920
0.067,0.674,0.187,-5.798,-115.723,-5.737
0.017,0.644,0.169,-3.174,-117.249,-6.714
-0.023,0.630,0.156,-1.526,-115.051,-9.277
-0.071,0.638,0.149,-0.427,-110.779,-13.550
-0.106,0.663,0.158,1.160,-105.103,-19.104
-0.104,0.671,0.179,3.174,-99.365,-25.146
-0.077,0.669,0.193,5.310,-96.497,-31.006
-0.069,0.668,0.200,6.592,-97.961,-36.804
-0.052,0.629,0.204,6.470,-102.295,-42.908
-0.029,0.574,0.194,5.310,-108.032,-49.316
-0.008,0.527,0.177,2.808,-113.831,-55.359
-0.020,0.515,0.154,-1.160,-118.774,-61.523
-0.046,0.555,0.130,-5.127,-120.178,-67.932
-0.068,0.613,0.118,-7.935,-117.065,-73.730
-0.085,0.660,0.106,-9.277,-110.352,-78.918
-0.090,0.737,0.092,-10.437,-101.501,-83.801
-0.071,0.790,0.094,-12.817,-91.309,-86.853
-0.027,0.807,0.094,-15.686,-82.092,-87.952
0.068,0.848,0.117,-19.653,-75.134,-88.745
0.188,0.859,0.142,-22.705,-74.829,-89.478
0.291,0.845,0.153,-25.024,-83.679,-90.820
0.348,0.841,0.151,-26.611,-100.159,-94.055
0.361,0.837,0.126,-28.198,-119.934,-98.450
0.354,0.842,0.094,-29.419,-137.695,-101.563

1.406,1.086,-0.617,11.353,128.845,14.587
1.650,1.327,-0.775,4.333,172.180,17.273
2.014,1.573,-0.939,1.465,215.942,26.855
2.459,1.877,-1.113,3.174,251.160,43.640
2.911,2.226,-1.298,11.108,273.987,66.833
3.325,2.489,-1.517,27.649,284.546,94.971
3.692,2.655,-1.779,50.415,288.574,127.075
3.957,2.618,-2.068,75.378,294.128,162.903
4.000,2.531,-2.382,100.403,307.495,204.285
4.000,2.395,-2.638,125.977,332.642,249.878
4.000,2.196,-2.731,158.142,364.441,298.401
4.000,1.872,-2.693,202.148,374.573,343.445
4.000,1.383,-2.578,257.263,340.027,373.718
3.991,0.820,-2.433,315.918,271.362,387.573
3.616,0.262,-2.297,369.141,186.279,390.625
3.121,-0.221,-2.155,410.828,104.126,388.733
2.633,-0.591,-2.051,437.317,43.518,389.099
2.073,-1.124,-2.009,445.557,15.198,390.625
1.548,-1.259,-1.776,426.025,25.208,375.916
1.216,-1.200,-1.428,399.231,66.895,362.732
1.008,-1.234,-1.161,380.249,114.685,349.854
0.891,-1.118,-0.820,356.995,160.828,325.867
0.791,-0.951,-0.444,331.360,197.388,297.058
0.741,-0.862,-0.116,307.617,215.820,263.306
0.748,-0.846,0.207,282.776,215.088,226.929
0.828,-0.909,0.422,255.615,192.444,191.223
0.896,-0.890,0.553,224.670,152.222,157.776
0.894,-0.816,0.622,192.078,101.807,132.812
0.802,-0.823,0.519,160.767,47.119,117.859
0.650,-0.842,0.346,128.967,3.113,108.826
0.385,-0.820,0.104,95.703,-21.851,102.417
0.098,-0.778,-0.168,64.575,-21.179,97.046
-0.092,-0.716,-0.406,38.086,7.263,93.384
-0.125,-0.619,-0.528,21.301,56.091,87.524
0.003,-0.528,-0.546,17.822,105.774,75.562
0.193,-0.425,-0.484,25.940,138.550,58.655
0.308,-0.378,-0.392,40.283,147.217,42.786
0.331,-0.336,-0.297,57.251,133.911,29.602
0.250,-0.287,-0.206,73.425,107.727,17.883
0.172,-0.251,-0.098,86.304,77.576,7.751
0.108,-0.197,0.034,95.703,47.729,-0.854
0.044,-0.157,0.156,100.769,20.081,-7.202
-0.017,-0.121,0.258,98.877,-3.113,-10.864
-0.120,-0.073,0.313,91.736,-19.897,-15.320
-0.209,-0.004,0.353,81.726,-27.832,-22.217
-0.243,0.092,0.412,71.716,-25.879,-31.189
-0.202,0.161,0.475,61.890,-17.456,-38.818
-0.123,0.218,0.519,49.622,-8.606,-39.612
-0.049,0.263,0.540,33.875,-1.953,-36.926
-0.005,0.348,0.549,17.090,2.563,-34.241
0.012,0.444,0.533,2.075,4.517,-33.325
0.019,0.528,0.495,-9.399,4.578,-32.898
0.018,0.632,0.456,-17.273,4.395,-32.349
0.027,0.695,0.424,-21.606,5.493,-30.823
0.039,0.700,0.390,-24.048,7.141,-28.442
0.056,0.701,0.363,-26.306,8.301,-27.039
0.063,0.727,0.335,-28.564,7.874,-27.527
0.048,0.749,0.299,-30.518,6.409,-27.161
0.027,0.755,0.251,-31.189,6.409,-24.414
0.004,0.771,0.220,-31.189,8.484,-23.132
-0.024,0.792,0.206,-29.358,10.864,-24.902
0.014,0.793,0.202,-26.001,12.451,-26.489
0.084,0.819,0.228,-21.851,11.780,-27.466
0.141,0.849,0.249,-17.029,4.944,-29.663
0.122,0.909,0.248,-10.315,-7.507,-32.104
0.152,0.941,0.260,-2.075,-20.081,-31.067
0.131,0.895,0.224,8.789,-33.142,-31.250
0.124,0.894,0.265,16.235,-42.358,-34.668
0.139,0.887,0.270,21.851,-50.293,-36.072
0.118,0.884,0.287,24.902,-56.152,-37.476
0.132,0.888,0.318,26.855,-60.669,-36.560
0.144,0.833,0.272,30.762,-67.871,-32.654
0.064,0.886,0.341,30.029,-71.716,-34.973
0.038,0.820,0.317,28.381,-69.580,-28.748
-0.011,0.803,0.324,24.292,-59.021,-23.865
-0.022,0.787,0.345,18.860,-43.762,-22.461
0.017,0.766,0.373,13.245,-27.466,-22.095
0.075,0.771,0.405,6.653,-14.343,-22.461
0.118,0.769,0.418,0.488,-7.202,-21.606
0.156,0.779,0.438,-5.005,-5.127,-20.996
0.167,0.780,0.433,-8.667,-6.897,-20.386
0.193,0.776,0.442,-11.536,-10.620,-19.531
0.200,0.759,0.431,-13.550,-16.846,-19.470
0.186,0.742,0.416,-15.564,-23.437,-20.386
0.177,0.741,0.407,-17.456,-29.358,-21.423
0.189,0.732,0.403,-18.555,-34.302,-22.034
0.196,0.716,0.394,-19.165,-39.856,-22.766
0.182,0.703,0.372,-20.020,-46.021,-24.292
0.157,0.689,0.346,-21.606,-51.331,-25.452
0.143,0.687,0.323,-23.987,-54.626,-26.184
0.079,0.675,0.277,-25.757,-55.664,-27.405
0.041,0.668,0.245,-27.527,-50.842,-28.503
0.047,0.658,0.236,-28.198,-40.833,-29.297
0.073,0.645,0.239,-28.137,-30.029,-31.311
0.124,0.650,0.255,-27.954,-21.301,-34.058
0.174,0.658,0.271,-28.198,-16.541,-36.865
0.218,0.654,0.276,-28.259,-16.785,-39.490
0.259,0.648,0.281,-29.236,-21.301,-41.687
0.290,0.625,0.282,-30.945,-29.663,-43.579
0.309,0.574,0.271,-32.349,-41.138,-44.373
0.318,0.502,0.247,-33.752,-53.589,-43.579
0.306,0.450,0.218,-36.011,-65.491,-42.542
0.243,0.457,0.186,-37.781,-75.439,-42.603
0.175,0.513,0.161,-38.025,-80.811,-44.006
0.147,0.549,0.151,-36.377,-81.421,-46.387
0.149,0.572,0.157,-33.630,-79.285,-49.561
0.151,0.577,0.170,-32.654,-76.721,-53.345
0.150,0.550,0.163,-33.997,-75.256,-56.885
0.149,0.547,0.148,-38.818,-74.219,-59.692
0.157,0.533,0.132,-46.875,-73.853,-61.218
0.165,0.516,0.111,-55.115,-74.951,-62.439
0.142,0.555,0.078,-61.890,-76.538,-65.125
0.110,0.684,0.061,-65.979,-76.050,-69.580
0.126,0.744,0.054,-63.965,-73.303,-73.059
0.124,0.758,0.037,-58.167,-69.641,-76.111
0.134,0.792,0.039,-52.734,-64.026,-80.200
0.164,0.787,0.049,-49.011,-57.617,-84.229
0.185,0.755,0.055,-46.875,-50.842,-88.745
0.218,0.742,0.053,-48.279,-42.847,-94.238

1.090,1.779,-0.512,-29.846,176.025,2.930
1.280,2.108,-0.758,-34.729,221.863,13.306
1.735,2.483,-0.981,-36.926,279.541,25.208
2.568,2.833,-1.118,-34.546,335.876,39.429
3.549,3.103,-1.201,-24.658,364.380,58.411
4.000,3.245,-1.284,-8.789,352.783,88.135
4.000,3.288,-1.390,11.597,308.044,135.864
4.000,3.115,-1.584,39.246,255.615,197.510
4.000,2.742,-1.816,71.655,223.816,261.353
4.000,2.268,-1.948,101.868,228.027,319.702
4.000,1.771,-1.967,131.592,263.184,369.568
4.000,1.264,-1.873,162.354,306.274,408.142
3.967,0.834,-1.655,193.481,324.219,434.021
3.762,0.383,-1.433,227.417,298.828,443.787
3.403,-0.010,-1.247,262.451,242.737,442.749
2.974,-0.479,-1.147,293.579,177.124,439.392
2.439,-0.891,-1.080,311.157,119.385,421.997
1.929,-0.942,-0.921,311.157,84.229,390.259
1.517,-1.050,-0.802,306.030,72.021,369.324
1.242,-1.101,-0.657,293.091,77.148,348.999
1.010,-1.068,-0.494,273.804,93.628,324.219
0.831,-0.954,-0.336,252.747,113.770,293.335
0.704,-0.822,-0.201,236.877,131.653,258.789
0.672,-0.724,-0.046,227.356,144.226,225.281
0.713,-0.686,0.090,221.680,146.484,194.214
0.755,-0.653,0.216,217.285,136.230,166.382
0.747,-0.646,0.297,211.670,114.136,143.005
0.683,-0.647,0.344,202.820,84.717,126.099
0.574,-0.678,0.353,189.209,54.016,116.272
0.434,-0.711,0.321,169.678,27.649,110.352
0.246,-0.726,0.263,143.738,11.230,106.140
0.064,-0.708,0.195,114.380,7.324,101.440
-0.078,-0.653,0.124,85.327,16.785,93.384
-0.147,-0.582,0.072,59.570,37.109,82.581
-0.154,-0.502,0.022,39.429,62.561,71.350
-0.123,-0.436,-0.011,25.391,88.562,59.753
-0.060,-0.356,-0.019,17.517,112.244,47.546
0.030,-0.287,0.000,16.724,130.005,34.546
0.117,-0.222,0.033,20.447,138.550,22.217
0.168,-0.160,0.065,26.917,136.719,11.597
0.200,-0.109,0.095,34.424,126.831,3.906
0.182,-0.055,0.122,41.809,112.061,-2.014
0.161,-0.049,0.141,48.340,95.032,-7.507
0.164,-0.033,0.166,51.575,77.820,-12.695
0.153,0.009,0.205,50.720,60.425,-16.052
0.121,0.070,0.234,46.570,42.603,-16.785
0.093,0.081,0.224,40.527,25.696,-14.587
0.042,0.165,0.238,33.081,12.878,-14.893
0.024,0.276,0.271,28.076,4.211,-18.066
0.058,0.342,0.303,28.198,-2.625,-21.423
0.073,0.389,0.329,30.884,-9.766,-24.780
0.060,0.454,0.367,35.156,-17.212,-28.442
0.075,0.486,0.400,40.466,-24.475,-29.114
0.083,0.469,0.438,45.410,-31.677,-29.053
0.073,0.513,0.486,47.119,-37.598,-29.785
0.129,0.506,0.555,46.021,-42.847,-23.743
0.049,0.398,0.454,42.358,-48.645,-18.555
-0.068,0.549,0.512,32.043,-44.373,-22.583
-0.125,0.543,0.489,22.888,-36.194,-21.606
-0.097,0.601,0.540,13.794,-25.635,-22.339
-0.068,0.673,0.505,2.502,-16.113,-22.339
-0.033,0.705,0.528,-7.935,-8.728,-16.968
-0.050,0.773,0.492,-17.395,-4.822,-12.634
-0.119,0.813,0.439,-23.804,-0.305,-9.399
-0.096,0.922,0.438,-27.283,8.423,-7.690
-0.034,0.885,0.419,-26.123,15.930,-5.127
-0.034,0.858,0.410,-24.109,18.311,-8.484
0.011,0.932,0.441,-23.315,19.104,-13.916
0.023,0.897,0.413,-22.156,15.991,-14.648
0.031,0.900,0.420,-22.156,12.512,-14.709
0.045,0.946,0.420,-21.851,8.545,-15.259
0.048,0.950,0.424,-20.752,4.517,-13.367
0.071,0.948,0.440,-19.714,0.427,-10.742
0.094,0.909,0.442,-18.799,-4.211,-8.789
0.088,0.880,0.451,-18.921,-8.789,-9.460
0.086,0.847,0.461,-19.348,-12.329,-12.512
0.100,0.862,0.480,-20.142,-15.442,-15.686
0.122,0.852,0.490,-20.935,-19.226,-17.883
0.130,0.832,0.484,-21.240,-24.048,-19.226
0.127,0.833,0.484,-22.217,-29.236,-20.874
0.129,0.800,0.477,-23.865,-34.180,-21.912
0.145,0.756,0.470,-25.940,-39.673,-22.705
0.145,0.714,0.454,-28.809,-46.753,-23.560
0.133,0.674,0.428,-31.738,-54.626,-24.353
0.107,0.628,0.392,-34.241,-62.500,-24.902
0.047,0.616,0.358,-36.316,-68.542,-26.245
0.001,0.611,0.331,-36.682,-71.289,-29.114
-0.033,0.595,0.303,-35.828,-71.228,-33.264
-0.050,0.610,0.283,-35.522,-69.763,-38.269
-0.058,0.615,0.268,-35.828,-68.176,-43.945
-0.056,0.603,0.253,-35.767,-67.505,-49.927
-0.037,0.609,0.249,-36.133,-67.688,-56.335
-0.007,0.599,0.249,-36.316,-70.007,-63.477
0.024,0.574,0.251,-35.645,-75.012,-70.618
0.055,0.534,0.254,-35.583,-82.397,-77.271
0.098,0.525,0.257,-36.743,-92.102,-83.069
0.137,0.522,0.263,-39.307,-104.187,-88.623
0.154,0.531,0.257,-42.175,-118.530,-93.506
0.170,0.612,0.260,-44.983,-133.850,-97.961
0.177,0.648,0.262,-46.265,-149.475,-101.746
0.162,0.644,0.234,-45.288,-164.917,-104.614
0.133,0.673,0.187,-45.471,-177.246,-107.544
0.076,0.691,0.147,-45.715,-183.411,-110.291
0.044,0.667,0.110,-45.654,-181.274,-111.206
0.028,0.614,0.076,-45.959,-172.058,-112.427
0.008,0.569,0.051,-47.119,-156.982,-115.784
0.012,0.543,0.044,-48.828,-137.024,-121.277
0.046,0.560,0.053,-49.988,-115.051,-127.319
0.110,0.576,0.075,-49.622,-93.750,-133.423
0.194,0.561,0.095,-48.218,-75.867,-139.404
0.289,0.572,0.115,-46.631,-63.293,-145.752
0.400,0.636,0.164,-44.617,-57.068,-151.428
0.522,0.666,0.219,-40.283,-58.533,-154.297
0.638,0.629,0.245,-34.241,-68.542,-154.480
0.736,0.588,0.249,-30.334,-84.717,-152.893
0.803,0.566,0.245,-29.663,-103.577,-148.926
0.846,0.531,0.224,-31.128,-123.840,-143.005
0.828,0.507,0.169,-34.119,-142.456,-136.841
0.781,0.522,0.106,-37.903,-155.396,-132.996

1.427,1.520,-0.440,7.996,145.081,35.583
1.817,1.863,-0.591,2.930,179.565,41.992
2.354,2.314,-0.715,2.380,212.891,50.171
3.131,2.778,-0.806,10.986,241.150,61.401
3.997,3.019,-0.876,31.006,260.437,76.721
4.000,3.084,-0.970,57.312,264.038,103.210
4.000,3.000,-1.039,83.801,247.498,152.893
4.000,2.741,-1.126,109.619,210.327,229.980
4.000,2.251,-1.257,138.306,167.297,317.261
4.000,1.600,-1.348,173.157,140.015,389.282
3.513,0.882,-1.349,210.022,138.245,434.448
2.886,0.256,-1.251,240.112,157.532,456.970
2.372,-0.103,-1.135,261.414,185.547,460.144
2.197,-0.450,-0.891,278.870,213.379,462.769
1.853,-1.073,-0.904,291.565,224.731,448.792
1.523,-1.117,-0.647,281.250,229.919,393.921
1.260,-0.952,-0.481,268.433,226.624,349.487
0.997,-1.000,-0.404,256.287,216.980,314.514
0.748,-0.935,-0.371,236.389,210.754,281.067
0.546,-0.757,-0.304,210.999,209.961,249.451
0.403,-0.640,-0.290,189.880,211.731,221.313
0.343,-0.580,-0.258,176.147,214.417,190.369
0.367,-0.494,-0.187,167.358,216.797,157.349
0.437,-0.439,-0.101,162.476,213.684,128.723
0.484,-0.461,-0.066,158.997,201.050,106.445
0.492,-0.456,-0.018,152.771,181.885,88.867
0.505,-0.445,0.034,144.470,160.095,78.003
0.464,-0.467,0.046,135.254,135.559,72.266
0.415,-0.505,0.039,122.009,114.075,68.237
0.372,-0.516,0.045,105.042,97.656,66.040
0.317,-0.542,0.030,86.731,84.534,63.232
0.286,-0.508,0.028,69.092,74.524,57.556
0.265,-0.453,0.031,54.871,66.162,51.453
0.220,-0.411,0.009,45.349,58.594,45.105
0.193,-0.367,-0.005,40.588,53.894,37.903
0.185,-0.308,-0.007,39.917,51.453,30.334
0.189,-0.250,0.001,42.908,50.049,22.278
0.212,-0.199,0.013,47.791,47.974,14.648
0.224,-0.136,0.036,52.795,44.434,7.629
0.259,-0.075,0.083,57.251,38.513,2.808
0.287,-0.033,0.129,59.692,29.419,0.305
0.272,0.014,0.167,59.570,17.395,-0.671
0.228,0.053,0.182,57.800,4.456,-0.671
0.208,0.100,0.206,54.626,-5.127,0.732
0.171,0.166,0.224,49.988,-12.146,2.502
0.160,0.208,0.247,45.044,-17.029,3.174
0.145,0.243,0.264,40.588,-20.691,3.418
0.123,0.267,0.276,36.072,-22.827,2.869
0.121,0.289,0.284,32.227,-23.132,2.380
0.113,0.322,0.300,28.015,-22.217,0.183
0.139,0.355,0.322,24.963,-21.606,-2.625
0.174,0.388,0.343,22.583,-23.682,-5.188
0.166,0.411,0.353,20.264,-27.954,-8.118
0.157,0.436,0.355,17.517,-30.457,-9.644
0.131,0.456,0.355,14.404,-30.029,-9.644
0.109,0.507,0.360,10.986,-25.879,-9.399
0.115,0.576,0.391,8.606,-19.592,-9.338
0.132,0.615,0.416,6.958,-15.137,-8.545
0.138,0.634,0.434,4.700,-13.428,-7.935
0.117,0.649,0.445,0.488,-13.733,-8.118
0.080,0.656,0.425,-5.005,-14.038,-8.240
0.062,0.684,0.424,-11.230,-11.719,-7.874
0.090,0.635,0.417,-15.564,-8.179,-7.141
0.085,0.602,0.396,-19.348,-5.737,-11.536
0.136,0.639,0.420,-23.437,-4.517,-18.860
0.186,0.682,0.434,-25.635,-7.324,-22.522
0.222,0.695,0.428,-26.001,-15.625,-20.996
0.215,0.714,0.400,-25.513,-27.527,-20.569
0.185,0.721,0.378,-23.987,-37.781,-20.447
0.166,0.699,0.362,-22.034,-44.006,-20.813
0.149,0.701,0.357,-21.057,-46.021,-22.766
0.153,0.713,0.351,-21.484,-46.082,-24.780
0.149,0.717,0.330,-22.949,-45.349,-24.841
0.166,0.760,0.340,-25.696,-43.518,-25.146
0.178,0.769,0.329,-27.893,-43.274,-26.062
0.155,0.767,0.311,-30.457,-44.189,-27.832
0.181,0.767,0.309,-34.363,-43.579,-29.785
0.220,0.752,0.311,-37.720,-44.128,-31.738
0.259,0.733,0.297,-41.382,-46.997,-33.875
0.238,0.730,0.254,-45.654,-51.392,-35.583
0.207,0.719,0.213,-49.072,-52.551,-37.476
0.199,0.739,0.189,-50.781,-48.645,-39.124
0.205,0.815,0.187,-50.598,-41.626,-41.382
0.247,0.834,0.187,-47.546,-35.217,-42.114
0.287,0.831,0.186,-44.006,-30.945,-41.504
0.315,0.814,0.188,-41.504,-29.358,-40.649
0.302,0.786,0.167,-41.138,-30.029,-39.856
0.282,0.753,0.137,-43.030,-29.114,-39.978
0.286,0.731,0.108,-46.204,-25.330,-40.344
0.318,0.749,0.088,-51.025,-21.301,-39.734
0.331,0.784,0.075,-55.481,-19.470,-38.818
0.346,0.813,0.048,-57.373,-20.203,-38.330
0.365,0.844,0.038,-56.152,-23.804,-38.635
0.391,0.864,0.046,-51.636,-29.358,-39.490
0.396,0.883,0.064,-44.250,-37.415,-40.466
0.412,0.884,0.081,-35.400,-46.387,-41.199
0.427,0.886,0.093,-27.893,-55.786,-41.626
0.431,0.874,0.101,-22.644,-66.345,-42.236
0.441,0.859,0.109,-19.531,-78.186,-43.335
0.410,0.861,0.094,-18.921,-90.759,-44.861
0.342,0.848,0.072,-19.897,-100.708,-46.448
0.334,0.824,0.067,-21.057,-104.126,-47.180
0.324,0.792,0.073,-22.583,-104.187,-48.950
0.331,0.790,0.079,-23.804,-102.966,-51.514
0.372,0.809,0.102,-24.963,-102.661,-53.223
0.373,0.836,0.107,-25.208,-105.469,-54.749
0.395,0.875,0.120,-25.024,-109.192,-56.274
0.442,0.882,0.135,-24.536,-114.136,-56.885
0.505,0.858,0.134,-25.391,-122.559,-57.251
0.565,0.862,0.129,-29.175,-135.498,-57.495
0.575,0.861,0.102,-33.386,-152.771,-58.228
0.536,0.853,0.059,-36.377,-169.678,-59.998
0.497,0.846,0.022,-36.987,-181.458,-62.378
0.423,0.841,-0.012,-34.973,-185.913,-64.514
0.315,0.865,-0.033,-32.043,-180.908,-67.505
0.256,0.888,-0.028,-27.161,-164.612,-70.190
0.250,0.871,-0.012,-21.362,-140.076,-72.510
0.301,0.882,0.022,-18.555,-112.549,-75.195
0.367,0.892,0.068,-18.738,-87.952,-77.026

1.010,1.338,-0.971,-35.889,160.339,-14.587
1.348,1.587,-1.193,-51.392,195.801,-9.521
1.689,1.910,-1.469,-59.875,220.337,-8.362
2.107,2.192,-1.754,-57.190,242.981,-8.728
2.535,2.384,-2.101,-42.419,273.560,-7.019
2.942,2.502,-2.458,-22.034,321.960,3.113
3.478,2.411,-2.826,0.916,386.353,32.837
4.000,2.329,-3.140,23.865,448.914,84.595
4.000,2.335,-3.344,49.072,477.539,142.578
4.000,2.220,-3.324,88.440,466.431,198.486
4.000,1.949,-3.226,149.170,426.086,246.338
4.000,1.450,-3.084,224.487,374.451,278.625
3.758,0.758,-2.937,298.767,324.524,297.485
3.262,0.039,-2.854,357.117,282.837,307.861
2.895,-0.531,-2.664,391.052,262.268,309.570
2.721,-0.850,-2.296,408.264,261.353,303.711
2.579,-1.008,-1.961,416.199,264.099,295.410
2.389,-1.066,-1.713,414.307,258.179,291.443
2.152,-1.105,-1.503,405.823,245.911,289.307
1.898,-1.249,-1.307,396.606,233.704,279.053
1.654,-1.200,-1.056,382.874,221.191,252.319
1.435,-1.128,-0.817,371.094,206.238,223.633
1.223,-1.084,-0.629,359.680,186.523,195.740
0.996,-1.044,-0.449,344.543,166.687,166.870
0.788,-1.039,-0.304,327.515,150.391,138.428
0.616,-1.029,-0.204,306.946,139.160,112.305
0.476,-0.952,-0.097,283.691,133.667,89.233
0.391,-0.860,0.001,261.780,132.019,70.068
0.354,-0.808,0.086,242.920,130.920,55.664
0.357,-0.828,0.151,223.572,127.258,44.922
0.319,-0.787,0.187,199.402,119.568,37.292
0.247,-0.755,0.205,170.837,109.619,34.607
0.181,-0.718,0.190,142.944,99.304,30.945
0.136,-0.614,0.193,118.042,90.820,22.705
0.109,-0.513,0.193,98.206,82.336,13.123
0.124,-0.429,0.182,83.618,72.815,4.089
0.130,-0.344,0.177,73.669,61.340,-4.517
0.132,-0.270,0.167,67.810,48.035,-12.329
0.125,-0.209,0.145,65.613,33.997,-19.348
0.081,-0.141,0.127,65.247,21.484,-26.428
0.054,-0.100,0.124,66.223,13.367,-32.898
0.057,-0.088,0.116,67.139,9.399,-37.598
0.051,-0.065,0.128,66.528,7.874,-42.358
0.070,-0.057,0.145,64.087,8.118,-46.387
0.136,-0.030,0.182,58.289,8.484,-46.936
0.168,0.000,0.208,49.133,5.432,-44.739
0.190,0.042,0.214,37.964,-0.427,-40.955
0.178,0.099,0.212,26.978,-7.507,-39.490
0.184,0.201,0.245,18.494,-13.611,-41.260
0.226,0.269,0.287,14.160,-21.240,-43.213
0.278,0.329,0.332,12.939,-32.654,-45.593
0.319,0.352,0.359,13.428,-47.668,-45.410
0.308,0.380,0.360,13.062,-64.514,-43.091
0.256,0.409,0.341,11.414,-78.979,-39.307
0.197,0.441,0.325,9.216,-86.426,-34.912
0.159,0.461,0.320,6.836,-86.914,-31.372
0.119,0.465,0.302,3.662,-82.031,-29.236
0.106,0.492,0.297,-1.160,-72.144,-27.893
0.100,0.517,0.291,-7.935,-59.387,-26.611
0.090,0.555,0.284,-15.686,-45.471,-25.452
0.105,0.602,0.275,-23.315,-31.433,-23.682
0.129,0.657,0.264,-29.846,-19.043,-20.752
0.138,0.703,0.254,-35.522,-9.644,-17.822
0.167,0.747,0.253,-39.368,-4.028,-15.137
0.183,0.758,0.238,-41.992,-2.686,-13.428
0.188,0.769,0.208,-43.579,-4.761,-13.611
0.173,0.801,0.186,-45.227,-7.996,-15.137
0.184,0.812,0.169,-45.776,-10.376,-16.968
0.210,0.815,0.171,-45.166,-13.062,-19.348
0.252,0.827,0.182,-43.335,-16.968,-22.644
0.291,0.839,0.186,-40.466,-22.827,-25.940
0.314,0.850,0.185,-36.987,-30.151,-28.503
0.359,0.850,0.186,-33.386,-37.659,-28.931
0.372,0.857,0.180,-29.907,-45.898,-28.198
0.371,0.859,0.176,-26.428,-54.016,-26.917
0.368,0.850,0.166,-23.560,-61.584,-25.574
0.349,0.840,0.153,-22.766,-67.871,-24.963
0.347,0.821,0.152,-23.254,-71.960,-25.391
0.377,0.791,0.165,-24.475,-75.195,-26.306
0.415,0.768,0.182,-26.367,-79.773,-27.771
0.453,0.738,0.196,-28.503,-86.914,-29.602
0.491,0.707,0.203,-30.396,-97.168,-31.433
0.500,0.730,0.194,-33.325,-110.474,-33.020
0.479,0.742,0.168,-35.583,-124.634,-33.936
0.471,0.750,0.126,-36.865,-137.451,-32.104
0.438,0.750,0.081,-38.025,-148.071,-29.663
0.386,0.732,0.035,-38.086,-154.663,-27.710
0.354,0.709,0.000,-38.330,-155.945,-26.245
0.314,0.670,-0.026,-38.208,-153.564,-26.367
0.268,0.683,-0.053,-38.269,-147.339,-29.358
0.239,0.725,-0.064,-38.696,-136.841,-34.058
0.232,0.752,-0.052,-38.025,-124.451,-38.391
0.248,0.793,-0.019,-35.645,-112.549,-42.297
0.282,0.788,0.016,-32.837,-103.088,-45.837
0.300,0.746,0.035,-30.090,-97.900,-49.316
0.309,0.721,0.058,-29.785,-96.069,-53.101
0.313,0.740,0.078,-31.860,-96.741,-56.641
0.315,0.785,0.089,-34.790,-100.037,-59.692
0.324,0.844,0.083,-38.269,-104.980,-62.805
0.340,0.928,0.078,-42.969,-111.206,-65.430
0.370,0.990,0.076,-47.607,-119.263,-66.956
0.390,1.021,0.064,-52.368,-129.395,-67.200
0.393,0.994,0.035,-56.213,-140.259,-67.383
0.394,0.940,0.009,-59.448,-150.208,-68.542
0.407,0.899,-0.005,-62.805,-157.166,-71.228
0.421,0.893,-0.017,-66.162,-161.926,-75.012
0.434,0.879,-0.028,-67.017,-165.283,-78.308
0.429,0.856,-0.045,-65.857,-166.870,-80.200
0.387,0.864,-0.064,-64.148,-165.771,-80.811
0.335,0.889,-0.073,-61.951,-160.522,-80.505
0.295,0.899,-0.083,-58.044,-150.757,-79.346
0.275,0.876,-0.093,-54.810,-136.963,-77.698
0.265,0.853,-0.089,-52.734,-120.605,-77.393
0.270,0.820,-0.067,-51.575,-103.699,-78.369
0.318,0.778,-0.043,-51.025,-88.440,-79.895
0.365,0.755,-0.023,-51.392,-76.965,-82.031
0.384,0.736,0.000,-52.185,-69.336,-84.900
0.410,0.718,0.011,-52.551,-64.209,-87.585
0.448,0.708,0.023,-52.307,-61.462,-90.393

1.586,1.474,-0.584,9.460,132.263,11.353
1.981,1.801,-0.843,8.057,165.161,15.869
2.468,2.292,-1.188,9.766,201.660,20.813
3.120,2.812,-1.533,18.311,245.483,26.489
3.904,3.085,-1.911,38.208,297.729,42.542
4.000,3.127,-2.414,69.580,355.957,80.078
4.000,3.059,-2.898,104.370,419.189,145.447
4.000,2.957,-3.048,146.118,465.942,238.953
4.000,2.525,-2.934,206.177,449.463,340.027
4.000,1.715,-2.737,281.250,374.451,416.382
4.000,0.705,-2.578,352.478,276.245,455.444
4.000,-0.278,-2.471,404.419,185.791,463.074
3.430,-1.012,-2.286,428.528,119.263,455.322
2.668,-1.482,-2.080,429.382,85.449,440.308
2.070,-1.718,-1.836,415.833,87.402,420.715
1.652,-1.722,-1.576,397.644,115.417,398.621
1.467,-1.564,-1.257,384.033,156.616,374.634
1.431,-1.543,-1.001,375.916,195.312,350.647
1.355,-1.433,-0.776,358.948,219.482,319.092
1.281,-1.303,-0.487,334.167,227.051,286.255
1.140,-1.204,-0.283,310.364,214.905,250.183
0.977,-1.089,-0.118,289.490,192.688,214.233
0.846,-1.003,-0.029,273.376,166.321,185.364
0.709,-0.911,0.022,259.583,140.930,159.241
0.567,-0.894,0.019,248.901,119.202,137.329
0.440,-0.881,0.042,238.342,103.210,119.568
0.428,-0.872,0.114,222.778,92.957,108.826
0.425,-0.880,0.145,198.730,82.703,107.239
0.320,-0.911,0.106,166.992,70.862,105.286
0.181,-0.827,0.076,132.019,64.392,100.464
0.069,-0.698,0.054,101.379,65.125,93.201
-0.033,-0.578,0.026,78.613,70.496,83.130
-0.088,-0.479,0.020,62.317,80.139,71.350
-0.099,-0.395,0.033,52.368,90.515,57.617
-0.062,-0.325,0.069,47.668,98.206,41.931
-0.020,-0.260,0.092,45.776,99.854,26.245
-0.002,-0.224,0.104,45.410,96.252,10.986
0.043,-0.152,0.127,45.349,91.187,-2.441
0.074,-0.103,0.145,44.678,84.534,-13.428
0.136,-0.059,0.192,42.053,77.026,-20.874
0.200,0.003,0.244,37.170,64.758,-22.705
0.229,0.042,0.265,31.250,45.654,-21.973
0.260,0.091,0.289,24.475,23.987,-21.606
0.241,0.137,0.277,19.043,1.709,-23.132
0.183,0.213,0.264,14.343,-17.395,-26.855
0.141,0.299,0.260,12.939,-32.104,-30.884
0.116,0.349,0.256,15.259,-42.664,-34.302
0.106,0.371,0.250,19.226,-49.500,-37.292
0.113,0.368,0.248,22.888,-52.246,-39.368
0.125,0.363,0.257,24.902,-51.086,-41.077
0.141,0.382,0.268,24.414,-47.668,-42.175
0.143,0.396,0.270,22.827,-43.701,-43.335
0.145,0.463,0.297,20.142,-39.063,-44.617
0.189,0.525,0.334,17.944,-35.095,-42.725
0.253,0.539,0.349,17.212,-33.875,-37.598
0.251,0.549,0.366,15.442,-35.095,-33.752
0.225,0.600,0.388,12.573,-37.720,-33.203
0.193,0.641,0.384,10.193,-40.344,-31.921
0.156,0.680,0.388,7.446,-41.687,-29.114
0.105,0.700,0.376,5.249,-40.955,-26.123
0.071,0.726,0.375,3.418,-37.048,-23.926
0.032,0.753,0.376,1.404,-31.067,-21.057
0.026,0.788,0.387,0.000,-23.376,-17.944
0.040,0.803,0.397,-0.488,-15.320,-15.442
0.045,0.795,0.406,-0.732,-8.911,-14.893
0.074,0.804,0.427,-1.770,-4.395,-15.442
0.104,0.822,0.444,-2.808,-3.418,-16.296
0.114,0.817,0.446,-4.089,-5.249,-17.334
0.141,0.809,0.444,-5.920,-8.057,-17.273
0.158,0.822,0.445,-8.118,-10.437,-17.273
0.166,0.827,0.447,-10.010,-13.306,-18.005
0.175,0.825,0.445,-11.169,-16.296,-19.165
0.189,0.845,0.447,-12.268,-18.738,-20.996
0.197,0.864,0.451,-12.939,-21.057,-23.071
0.211,0.861,0.453,-13.306,-23.132,-24.597
0.226,0.858,0.457,-14.160,-25.574,-25.391
0.227,0.842,0.449,-15.564,-29.358,-25.696
0.228,0.821,0.431,-17.273,-32.898,-25.085
0.229,0.799,0.412,-19.775,-35.400,-22.949
0.236,0.781,0.397,-22.888,-35.950,-20.325
0.241,0.749,0.391,-25.269,-35.767,-18.555
0.238,0.693,0.372,-27.710,-35.522,-18.555
0.214,0.645,0.350,-30.762,-34.607,-19.409
0.222,0.609,0.343,-33.936,-30.701,-20.508
0.240,0.559,0.338,-36.926,-25.330,-21.423
0.268,0.540,0.333,-41.016,-20.142,-21.790
0.286,0.573,0.325,-45.471,-15.869,-21.912
0.312,0.598,0.318,-50.354,-14.709,-20.142
0.347,0.615,0.314,-54.749,-17.456,-17.761
0.378,0.620,0.317,-57.739,-24.780,-16.907
0.386,0.617,0.305,-58.228,-36.804,-18.311
0.368,0.612,0.282,-57.800,-51.697,-21.179
0.332,0.619,0.248,-56.335,-66.589,-24.414
0.296,0.650,0.214,-54.749,-78.186,-27.466
0.261,0.671,0.176,-53.162,-85.754,-29.663
0.229,0.699,0.140,-52.551,-88.989,-30.640
0.209,0.736,0.120,-53.711,-88.379,-30.273
0.187,0.749,0.103,-56.030,-86.121,-28.503
0.166,0.776,0.079,-58.777,-83.618,-26.550
0.164,0.792,0.068,-60.669,-79.834,-26.001
0.174,0.801,0.059,-61.523,-76.172,-27.222
0.202,0.806,0.060,-60.974,-73.059,-29.907
0.232,0.807,0.066,-59.692,-71.411,-33.813
0.250,0.836,0.068,-57.861,-71.594,-38.269
0.269,0.880,0.074,-55.908,-72.876,-41.687
0.293,0.895,0.081,-53.040,-75.317,-42.847
0.310,0.893,0.089,-49.805,-78.674,-42.786
0.313,0.867,0.094,-47.302,-83.435,-42.358
0.288,0.868,0.087,-46.265,-88.318,-42.358
0.246,0.861,0.071,-45.959,-91.919,-43.640
0.212,0.825,0.047,-46.753,-92.163,-46.448
0.193,0.804,0.033,-49.011,-88.501,-51.147
0.181,0.824,0.033,-52.429,-81.299,-57.251
0.176,0.822,0.032,-54.871,-71.838,-62.744
0.202,0.819,0.043,-56.396,-60.730,-66.528
0.243,0.806,0.054,-56.641,-50.049,-68.542
0.280,0.809,0.062,-56.213,-40.649,-68.970
0.318,0.815,0.078,-54.932,-33.386,-68.237
0.346,0.788,0.079,-53.406,-29.236,-66.223

1.567,1.111,-0.675,-27.283,126.282,-9.094
1.850,1.332,-0.958,-33.447,164.185,-8.728
2.263,1.615,-1.267,-39.307,202.942,-0.244
2.765,1.987,-1.535,-39.246,234.741,19.043
3.273,2.369,-1.763,-26.611,253.845,46.265
3.787,2.664,-1.937,3.235,262.695,79.529
4.000,2.814,-2.019,47.607,266.785,117.493
4.000,2.680,-2.025,98.938,272.278,161.560
4.000,2.353,-1.992,145.874,282.043,214.539
4.000,1.977,-1.805,182.068,292.664,273.254
4.000,1.535,-1.576,210.083,278.259,333.984
4.000,1.079,-1.358,234.741,229.492,382.019
4.000,0.609,-1.216,259.705,164.978,413.757
3.644,0.083,-1.228,283.081,106.812,433.838
3.084,-0.360,-1.245,295.715,73.425,445.374
2.532,-0.703,-1.237,297.974,70.313,450.928
2.053,-0.949,-1.233,293.945,94.849,447.937
1.619,-1.030,-1.197,284.973,140.991,434.509
1.373,-0.920,-1.095,276.855,201.416,411.926
1.371,-0.962,-0.976,275.818,260.376,391.296
1.300,-1.212,-0.850,274.231,299.133,361.633
1.237,-1.076,-0.585,259.644,312.317,312.256
1.139,-0.939,-0.312,245.789,301.147,267.944
1.012,-0.907,-0.155,237.183,267.944,230.286
0.878,-0.842,-0.042,228.577,226.074,193.665
0.717,-0.731,0.061,219.971,183.472,161.011
0.553,-0.661,0.091,213.318,142.883,135.681
0.397,-0.646,0.056,207.153,111.694,117.310
0.254,-0.646,0.024,199.280,94.055,102.051
0.140,-0.635,-0.004,190.125,89.111,84.900
0.044,-0.649,-0.029,179.138,96.863,69.336
0.095,-0.714,0.013,164.246,114.197,60.425
0.190,-0.694,0.058,144.104,128.418,53.223
0.219,-0.667,0.086,121.643,133.118,46.997
0.244,-0.633,0.101,100.098,128.967,39.612
0.261,-0.557,0.118,82.458,117.798,29.297
0.239,-0.473,0.115,71.411,101.257,16.602
0.202,-0.374,0.135,65.735,82.458,4.272
0.210,-0.291,0.174,66.162,63.049,-5.249
0.198,-0.253,0.173,71.411,41.382,-13.428
0.102,-0.243,0.146,76.782,22.522,-21.790
0.025,-0.241,0.118,79.895,11.963,-30.518
-0.010,-0.189,0.149,80.750,9.705,-39.185
0.020,-0.085,0.243,79.651,10.925,-43.945
0.080,-0.136,0.235,77.393,8.972,-41.260
0.126,-0.017,0.333,70.557,6.470,-40.649
0.156,0.020,0.359,61.096,-0.122,-35.095
0.160,0.056,0.381,51.575,-8.545,-30.762
0.177,0.145,0.424,41.382,-16.052,-28.931
0.208,0.213,0.443,33.569,-25.574,-28.992
0.208,0.254,0.449,27.771,-36.804,-31.067
0.246,0.308,0.461,23.437,-47.241,-33.752
0.255,0.348,0.453,19.592,-57.007,-34.668
0.234,0.399,0.446,16.479,-64.026,-34.729
0.177,0.450,0.426,12.878,-65.979,-32.715
0.142,0.441,0.377,9.766,-59.814,-29.175
0.134,0.528,0.416,5.249,-45.959,-28.931
0.157,0.597,0.433,0.427,-31.250,-28.687
0.203,0.614,0.435,-5.493,-18.555,-25.940
0.256,0.668,0.465,-12.329,-9.277,-23.499
0.284,0.723,0.464,-18.311,-5.737,-20.569
0.233,0.760,0.433,-23.315,-5.676,-17.456
0.202,0.826,0.417,-26.978,-4.700,-16.052
0.204,0.937,0.404,-27.832,-2.014,-14.526
0.229,0.925,0.402,-26.611,1.282,-9.705
0.226,0.949,0.386,-25.391,1.953,-8.911
0.227,0.976,0.398,-25.452,3.662,-6.775
0.245,0.930,0.394,-25.024,3.662,-3.418
0.263,0.964,0.428,-25.391,1.709,-2.930
0.256,0.938,0.418,-25.574,-2.991,-1.587
0.268,0.958,0.429,-26.001,-7.996,0.183
0.270,0.984,0.433,-25.574,-14.343,1.892
0.264,0.998,0.425,-24.292,-21.606,2.136
0.266,1.003,0.425,-23.254,-28.503,1.343
0.262,0.983,0.419,-22.522,-35.828,0.854
0.243,0.953,0.402,-23.254,-43.030,0.610
0.209,0.889,0.357,-25.513,-48.462,1.038
0.109,0.859,0.311,-29.236,-48.462,0.000
0.063,0.831,0.276,-33.081,-40.344,-1.526
0.068,0.791,0.256,-36.377,-26.428,-2.319
0.094,0.743,0.243,-39.124,-10.925,-3.113
0.134,0.714,0.246,-41.809,2.991,-3.845
0.178,0.706,0.248,-43.579,12.939,-5.066
0.210,0.726,0.251,-43.701,18.066,-6.714
0.244,0.751,0.262,-42.358,18.433,-8.362
0.281,0.749,0.267,-39.612,13.733,-9.583
0.284,0.750,0.265,-36.682,4.761,-10.925
0.275,0.759,0.263,-34.912,-5.676,-13.306
0.265,0.731,0.255,-33.142,-16.541,-15.503
0.258,0.687,0.236,-32.227,-27.283,-17.212
0.244,0.650,0.214,-33.508,-36.072,-18.494
0.220,0.613,0.185,-36.011,-42.969,-19.653
0.200,0.588,0.160,-38.269,-47.668,-21.423
0.190,0.584,0.139,-40.527,-49.988,-23.926
0.198,0.607,0.132,-41.748,-51.941,-26.672
0.208,0.659,0.131,-41.382,-55.115,-29.114
0.217,0.692,0.130,-38.879,-59.692,-31.616
0.226,0.711,0.119,-35.706,-65.430,-34.058
0.243,0.725,0.124,-32.959,-71.960,-36.194
0.255,0.722,0.129,-30.701,-79.895,-37.964
0.255,0.716,0.127,-29.236,-88.745,-39.612
0.245,0.705,0.113,-28.564,-98.389,-41.443
0.243,0.690,0.102,-28.931,-106.995,-43.518
0.241,0.675,0.092,-29.785,-114.868,-45.227
0.235,0.688,0.075,-31.250,-121.765,-48.035
0.233,0.727,0.071,-32.837,-126.038,-51.880
0.253,0.745,0.074,-32.776,-129.150,-55.664
0.276,0.758,0.075,-32.166,-131.592,-58.716
0.283,0.790,0.081,-31.372,-134.155,-61.646
0.287,0.795,0.078,-30.151,-136.230,-63.904
0.266,0.777,0.064,-28.870,-137.146,-65.613
0.226,0.756,0.046,-28.503,-135.010,-68.237
0.202,0.742,0.035,-28.442,-128.357,-71.655
0.184,0.734,0.037,-28.870,-117.737,-75.439
0.183,0.729,0.021,-29.968,-104.126,-80.322
0.214,0.747,0.020,-31.921,-88.013,-85.571
0.273,0.758,0.019,-34.729,-71.350,-89.172
0.362,0.772,0.022,-37.659,-56.213,-90.210
0.444,0.819,0.039,-41.260,-45.044,-87.952

1.653,1.493,-0.453,8.728,75.439,20.447
1.905,1.741,-0.600,13.306,89.600,30.029
2.212,2.018,-0.739,22.095,114.014,39.001
2.541,2.329,-0.885,36.316,153.198,49.011
2.891,2.598,-1.091,54.504,209.656,67.078
3.277,2.767,-1.351,73.486,281.860,97.168
3.774,2.823,-1.628,87.708,363.525,138.428
4.000,2.778,-1.826,96.130,430.237,188.354
4.000,2.700,-1.936,105.164,445.984,237.061
4.000,2.478,-1.986,125.427,416.321,281.311
4.000,2.046,-2.062,162.048,364.929,322.021
3.856,1.491,-2.159,209.473,312.500,351.929
3.263,0.932,-2.259,255.310,280.090,368.469
2.736,0.416,-2.297,293.091,278.748,373.169
2.319,0.135,-2.207,320.740,300.903,371.887
2.141,-0.287,-2.043,347.961,327.332,371.155
1.967,-0.801,-1.815,366.211,337.402,350.464
1.749,-0.871,-1.406,364.319,322.815,301.697
1.542,-0.903,-1.110,359.619,281.799,263.428
1.246,-0.989,-0.929,351.501,225.708,231.628
0.911,-0.971,-0.789,336.853,172.302,197.205
0.704,-0.796,-0.560,316.406,131.836,160.889
0.588,-0.780,-0.414,297.058,100.830,139.709
0.487,-0.761,-0.287,275.879,75.256,125.122
0.391,-0.786,-0.206,252.930,56.763,110.718
0.413,-0.822,-0.154,227.905,43.640,99.304
0.430,-0.821,-0.134,199.768,32.288,88.196
0.443,-0.799,-0.128,171.570,22.949,76.111
0.482,-0.767,-0.132,146.179,15.503,66.101
0.501,-0.727,-0.161,126.038,7.751,59.998
0.429,-0.678,-0.197,111.877,-0.854,55.176
0.319,-0.651,-0.237,105.652,-7.080,46.814
0.203,-0.648,-0.267,106.934,-9.094,33.203
0.091,-0.669,-0.260,112.122,-5.798,16.663
0.037,-0.696,-0.227,116.211,1.587,2.991
-0.008,-0.686,-0.174,116.150,10.498,-7.446
-0.013,-0.662,-0.114,111.633,18.860,-16.174
0.051,-0.635,-0.018,103.638,23.743,-23.743
0.108,-0.567,0.070,91.675,21.667,-30.334
0.128,-0.493,0.126,76.965,12.146,-37.354
0.111,-0.388,0.147,61.829,-0.244,-44.495
0.096,-0.271,0.155,48.828,-10.376,-50.720
0.100,-0.163,0.183,40.588,-16.296,-56.274
0.112,-0.079,0.204,36.133,-19.897,-60.303
0.118,-0.010,0.221,33.752,-22.644,-62.195
0.127,0.065,0.251,31.738,-24.170,-61.890
0.158,0.108,0.276,30.090,-25.513,-59.021
0.160,0.127,0.283,26.978,-26.917,-55.969
0.167,0.156,0.289,20.935,-26.367,-53.589
0.188,0.182,0.289,12.085,-23.865,-50.415
0.192,0.206,0.276,2.930,-20.447,-47.668
0.204,0.244,0.261,-7.507,-15.808,-45.410
0.243,0.303,0.247,-16.968,-11.597,-43.335
0.288,0.387,0.242,-24.475,-9.338,-41.077
0.301,0.476,0.227,-27.893,-9.094,-39.734
0.291,0.568,0.211,-27.405,-9.216,-37.598
0.321,0.649,0.226,-23.254,-7.324,-33.020
0.347,0.666,0.238,-17.151,-5.920,-28.809
0.372,0.730,0.263,-12.146,-8.423,-27.527
0.340,0.718,0.249,-8.972,-13.062,-23.132
0.329,0.756,0.276,-8.240,-16.846,-22.461
0.300,0.790,0.256,-8.545,-21.423,-23.682
0.269,0.771,0.263,-9.827,-23.499,-21.851
0.257,0.795,0.228,-13.245,-22.522,-18.860
0.228,0.810,0.235,-17.212,-18.250,-15.564
0.234,0.765,0.186,-20.264,-11.719,-12.451
0.231,0.776,0.159,-22.583,-3.601,-14.221
0.259,0.855,0.182,-24.597,5.493,-19.836
0.306,0.902,0.201,-23.865,12.329,-21.606
0.390,0.904,0.253,-21.240,14.343,-19.531
0.464,0.933,0.280,-17.883,7.385,-18.066
0.480,0.912,0.277,-14.954,-5.615,-15.442
0.471,0.919,0.281,-13.611,-19.592,-15.320
0.465,0.915,0.279,-12.329,-33.630,-18.066
0.460,0.904,0.266,-12.024,-46.997,-20.630
0.393,0.892,0.223,-12.573,-58.411,-21.851
0.337,0.889,0.196,-13.000,-62.073,-23.193
0.307,0.887,0.183,-13.123,-57.068,-24.353
0.292,0.885,0.177,-13.428,-46.936,-26.123
0.319,0.885,0.178,-13.916,-35.278,-26.550
0.372,0.901,0.204,-14.893,-25.085,-24.719
0.431,0.891,0.228,-16.052,-19.226,-21.423
0.481,0.885,0.240,-17.151,-19.714,-18.738
0.486,0.883,0.235,-19.348,-25.818,-16.296
0.470,0.868,0.216,-21.912,-34.729,-14.587
0.454,0.849,0.198,-23.682,-43.457,-14.465
0.441,0.834,0.171,-24.902,-51.270,-16.541
0.396,0.848,0.137,-25.208,-57.800,-20.142
0.342,0.840,0.099,-24.353,-60.120,-23.254
0.337,0.828,0.080,-22.339,-56.091,-23.254
0.325,0.817,0.078,-20.142,-46.875,-22.522
0.330,0.800,0.087,-17.761,-34.973,-22.522
0.369,0.787,0.109,-16.174,-23.865,-22.766
0.412,0.762,0.138,-15.259,-16.541,-23.315
0.461,0.755,0.168,-15.442,-14.038,-23.926
0.495,0.743,0.189,-17.029,-17.273,-25.085
0.501,0.712,0.195,-20.020,-25.635,-27.283
0.492,0.683,0.204,-24.231,-37.598,-31.860
0.464,0.672,0.191,-30.090,-51.453,-38.696
0.431,0.636,0.162,-35.645,-65.002,-47.424
0.394,0.616,0.121,-41.138,-76.172,-56.885
0.362,0.659,0.085,-46.570,-83.374,-66.345
0.330,0.739,0.059,-49.866,-85.388,-72.815
0.341,0.804,0.032,-49.194,-83.008,-71.960
0.367,0.854,0.010,-45.532,-77.698,-64.819
0.361,0.887,0.000,-39.612,-69.702,-57.129
0.349,0.880,-0.007,-31.982,-59.326,-51.270
0.342,0.854,-0.004,-24.231,-46.753,-48.767
0.353,0.821,0.010,-17.822,-34.119,-49.744
0.375,0.792,0.032,-13.733,-22.461,-53.406
0.408,0.762,0.051,-12.817,-12.878,-58.472
0.456,0.741,0.070,-13.672,-5.859,-63.904
0.507,0.737,0.098,-15.747,-2.319,-68.176
0.584,0.727,0.124,-17.883,-3.113,-70.618
0.666,0.763,0.155,-19.592,-8.606,-70.435
0.717,0.825,0.185,-18.921,-20.508,-67.810
0.735,0.865,0.198,-14.954,-37.476,-62.500
0.734,0.898,0.201,-8.667,-56.458,-56.519
0.681,0.900,0.193,-1.526,-74.341,-51.697

2.107,1.490,-0.485,20.752,145.386,-3.235
2.628,1.994,-0.673,20.325,202.881,-0.671
3.403,2.558,-0.837,23.743,268.250,9.033
4.000,3.125,-1.084,32.532,332.214,29.053
4.000,3.429,-1.468,46.509,391.052,63.293
4.000,3.478,-2.032,62.134,447.937,121.521
4.000,3.364,-2.625,79.590,499.329,205.994
4.000,3.117,-2.958,109.131,536.499,309.265
4.000,2.560,-2.936,166.992,540.100,405.579
4.000,1.699,-2.764,246.582,504.761,469.238
4.000,0.697,-2.571,329.285,447.083,492.065
4.000,-0.304,-2.428,402.100,374.756,488.037
3.501,-1.161,-2.357,458.557,295.776,468.872
2.862,-1.754,-2.214,490.601,223.267,441.284
2.074,-2.260,-1.982,495.361,161.377,407.532
1.376,-1.905,-1.728,473.389,115.967,361.572
1.182,-1.835,-1.335,461.121,114.563,347.046
0.846,-2.120,-1.151,449.219,124.756,329.590
0.754,-1.966,-0.769,397.095,117.981,276.001
0.737,-1.416,-0.404,346.985,113.892,231.567
0.661,-1.033,-0.113,317.261,107.300,200.317
0.583,-1.016,0.025,304.199,89.722,173.157
0.505,-1.090,0.123,290.039,64.819,144.775
0.390,-1.029,0.183,269.165,43.518,118.652
0.251,-0.997,0.150,244.446,28.442,99.243
0.198,-1.064,0.115,217.773,21.790,84.656
0.201,-0.946,0.099,188.477,21.118,66.589
0.117,-0.880,0.073,160.645,24.475,58.533
0.115,-0.898,0.056,132.629,30.212,55.908
0.098,-0.873,-0.002,101.074,33.264,52.917
0.101,-0.881,-0.026,69.153,37.598,54.565
0.117,-0.848,-0.100,39.856,37.537,51.086
0.116,-0.771,-0.131,17.944,36.438,45.471
-0.193,-0.808,-0.332,2.319,36.804,36.987
-0.341,-0.663,-0.395,-9.888,58.105,16.602
-0.124,-0.462,-0.215,-12.390,97.290,-4.089
0.059,-0.386,-0.166,-4.456,117.188,-19.897
0.192,-0.279,0.000,3.723,117.859,-33.325
0.362,-0.181,0.073,10.071,104.553,-38.757
0.364,-0.122,0.036,13.062,77.332,-41.077
0.357,-0.039,0.148,13.855,54.565,-41.687
0.379,0.093,0.201,16.479,23.376,-43.457
0.328,0.162,0.154,20.508,-10.681,-43.823
0.265,0.196,0.184,22.583,-36.316,-44.922
0.235,0.272,0.214,23.437,-57.800,-47.424
0.164,0.327,0.162,24.048,-76.660,-49.377
0.115,0.341,0.181,22.461,-84.839,-48.706
0.104,0.373,0.159,20.020,-86.975,-48.462
0.057,0.350,0.144,16.724,-82.397,-48.767
0.059,0.414,0.162,12.512,-69.519,-52.368
0.093,0.489,0.180,9.216,-53.162,-53.589
0.171,0.556,0.238,6.714,-36.255,-52.979
0.242,0.560,0.251,5.798,-25.391,-51.575
0.294,0.607,0.291,4.395,-18.982,-52.246
0.342,0.660,0.317,2.075,-17.212,-52.002
0.404,0.726,0.355,0.488,-20.142,-51.025
0.406,0.719,0.348,-0.427,-27.649,-46.692
0.380,0.775,0.372,-3.113,-35.278,-43.213
0.364,0.789,0.358,-5.859,-43.579,-38.025
0.333,0.776,0.324,-9.705,-50.110,-32.715
0.291,0.805,0.309,-15.564,-53.040,-28.992
0.246,0.807,0.275,-21.606,-54.260,-25.635
0.177,0.785,0.222,-27.039,-52.063,-23.437
0.161,0.786,0.190,-31.311,-44.006,-22.339
0.175,0.801,0.182,-32.898,-33.508,-21.729
0.191,0.825,0.191,-30.823,-23.560,-22.034
0.236,0.845,0.211,-26.489,-16.663,-23.071
0.297,0.837,0.229,-20.508,-14.893,-24.658
0.368,0.810,0.254,-14.526,-19.226,-26.794
0.428,0.757,0.264,-9.338,-29.602,-29.907
0.472,0.726,0.282,-5.737,-45.044,-35.461
0.500,0.718,0.300,-3.845,-64.087,-40.710
0.504,0.701,0.285,-3.113,-85.571,-43.213
0.474,0.705,0.255,-3.418,-105.957,-45.410
0.427,0.711,0.238,-4.211,-121.338,-47.913
0.395,0.700,0.221,-4.456,-131.897,-48.340
0.375,0.693,0.209,-4.272,-138.916,-46.936
0.357,0.700,0.207,-4.333,-143.372,-43.701
0.343,0.688,0.208,-4.395,-146.301,-39.551
0.310,0.671,0.205,-3.967,-148.804,-35.889
0.270,0.654,0.204,-3.113,-149.109,-34.058
0.254,0.676,0.198,-2.991,-146.484,-33.691
0.267,0.692,0.214,-3.479,-141.052,-34.546
0.286,0.668,0.228,-5.005,-135.437,-34.485
0.295,0.634,0.241,-7.751,-131.470,-34.119
0.309,0.592,0.256,-11.475,-128.113,-34.546
0.328,0.549,0.260,-15.625,-125.488,-36.011
0.332,0.524,0.254,-19.897,-123.962,-38.635
0.321,0.546,0.243,-23.926,-123.413,-41.382
0.298,0.603,0.227,-27.588,-122.986,-43.518
0.260,0.665,0.212,-28.931,-122.437,-45.593
0.221,0.761,0.218,-26.978,-120.544,-47.974
0.213,0.816,0.242,-21.790,-117.920,-51.025
0.214,0.794,0.254,-14.893,-115.295,-55.359
0.236,0.753,0.267,-9.766,-112.671,-61.462
0.264,0.707,0.288,-8.118,-110.962,-68.787
0.299,0.635,0.286,-8.484,-112.000,-75.928
0.349,0.625,0.294,-12.146,-114.929,-84.167
0.381,0.685,0.313,-16.968,-120.728,-91.370
0.377,0.656,0.286,-19.165,-130.005,-93.445
0.358,0.672,0.263,-20.386,-137.512,-95.703
0.327,0.749,0.266,-21.057,-140.808,-98.816
0.299,0.785,0.254,-18.982,-141.541,-99.487
0.273,0.820,0.245,-15.015,-139.160,-100.342
0.237,0.851,0.243,-10.742,-133.240,-102.844
0.198,0.846,0.246,-6.042,-125.000,-106.384
0.187,0.809,0.256,-1.160,-114.380,-110.352
0.204,0.778,0.278,2.319,-101.807,-116.394
0.248,0.743,0.317,5.981,-89.844,-124.023
0.289,0.691,0.351,9.094,-80.994,-131.287
0.338,0.655,0.393,10.681,-73.975,-138.184
0.389,0.646,0.427,11.475,-69.031,-143.188
0.415,0.634,0.459,12.268,-66.650,-145.569
0.436,0.611,0.477,12.878,-65.613,-147.827
0.464,0.593,0.501,13.123,-64.697,-151.184
0.493,0.582,0.516,12.024,-63.049,-155.823
0.513,0.569,0.514,10.010,-60.974,-160.767
0.539,0.561,0.493,7.080,-57.434,-166.077
0.570,0.557,0.449,2.075,-50.476,-171.875

1.179,0.673,-0.730,93.445,198.547,25.269
1.249,0.678,-0.725,102.295,192.200,27.344
1.319,0.722,-0.731,108.276,181.091,29.541
1.339,0.808,-0.764,112.732,167.114,31.738
1.378,0.883,-0.802,118.469,154.602,35.645
1.472,0.983,-0.824,124.084,145.630,40.283
1.575,1.130,-0.842,127.625,138.733,45.837
1.667,1.319,-0.898,128.967,132.874,53.162
1.767,1.473,-0.993,130.188,133.423,60.852
2.008,1.597,-1.090,130.554,146.912,70.129
2.366,1.791,-1.157,129.761,169.312,84.778
2.766,1.929,-1.267,129.883,191.650,103.577
3.168,1.974,-1.479,130.066,210.999,126.343
3.487,2.024,-1.777,128.845,231.262,152.710
3.712,2.025,-2.166,128.174,255.920,182.434
3.783,2.005,-2.505,132.996,286.804,213.440
3.699,1.944,-2.695,149.902,320.984,242.493
3.553,1.722,-2.799,182.007,350.647,264.893
3.402,1.324,-2.791,226.135,369.324,276.611
3.270,0.865,-2.638,273.193,369.141,275.818
3.160,0.449,-2.393,317.505,342.896,266.907
2.981,-0.041,-2.156,356.628,290.710,256.042
2.714,-0.482,-1.902,384.338,220.215,236.084
2.366,-0.759,-1.692,398.376,140.625,209.106
1.893,-1.032,-1.566,403.564,66.406,191.528
1.439,-1.213,-1.425,397.217,13.000,179.993
1.057,-1.301,-1.234,381.470,-9.399,177.185
0.689,-1.333,-1.022,358.154,-7.263,177.185
0.422,-1.251,-0.749,331.787,12.634,174.011
0.266,-1.150,-0.440,307.251,39.307,165.588
0.151,-1.196,-0.213,282.776,60.791,153.809
0.016,-1.317,-0.065,254.211,73.425,139.771
-0.076,-1.375,0.071,222.412,79.407,123.169
-0.088,-1.319,0.209,196.045,78.369,102.112
-0.062,-1.209,0.289,177.307,65.735,77.332
-0.029,-1.104,0.344,163.818,43.579,52.612
-0.016,-1.017,0.359,153.503,15.869,31.006
-0.054,-0.981,0.334,144.775,-11.902,13.611
-0.124,-0.983,0.311,134.705,-32.837,1.404
-0.191,-0.988,0.286,122.253,-45.166,-8.301
-0.275,-0.989,0.244,106.262,-48.767,-17.151
-0.336,-0.979,0.194,84.045,-40.039,-20.752
-0.297,-0.934,0.181,55.542,-20.447,-17.639
-0.178,-0.902,0.158,23.315,0.366,-13.550
-0.035,-0.835,0.140,-8.606,17.029,-11.780
0.062,-0.732,0.103,-36.926,28.076,-12.512
0.094,-0.578,0.041,-58.350,36.316,-14.954
0.097,-0.452,-0.040,-70.618,45.898,-18.127
0.157,-0.223,0.001,-72.754,57.190,-23.254
0.231,-0.031,-0.015,-65.063,59.753,-25.146
0.299,0.051,0.006,-51.086,58.289,-23.437
0.345,0.135,0.038,-34.851,54.077,-23.193
0.347,0.189,0.120,-18.616,46.387,-25.696
0.329,0.271,0.162,-6.470,36.865,-31.067
0.339,0.314,0.270,2.441,27.527,-35.583
0.379,0.372,0.308,6.775,14.221,-41.687
0.390,0.413,0.320,4.822,-1.099,-44.128
0.356,0.457,0.301,-3.174,-13.672,-43.701
0.316,0.503,0.245,-13.916,-23.315,-42.236
0.288,0.550,0.184,-25.696,-26.855,-42.114
0.316,0.612,0.155,-35.706,-26.733,-44.189
0.393,0.681,0.135,-42.542,-27.527,-46.204
0.437,0.682,0.080,-46.692,-30.457,-46.021
0.437,0.721,0.026,-49.133,-33.630,-45.349
0.410,0.760,-0.042,-48.218,-36.194,-44.067
0.376,0.813,-0.091,-44.373,-34.363,-43.640
0.317,0.820,-0.132,-37.537,-27.649,-44.617
0.386,0.873,-0.073,-28.992,-17.395,-45.532
0.437,0.864,-0.068,-20.142,-11.292,-45.410
0.450,0.823,-0.065,-14.038,-10.376,-49.072
0.585,0.862,0.060,-10.681,-13.672,-53.894
0.646,0.828,0.062,-7.568,-29.236,-58.350
0.660,0.780,0.095,-7.629,-47.180,-61.279
0.742,0.815,0.132,-10.193,-68.787,-63.354
0.783,0.772,0.115,-11.292,-96.191,-61.096
0.739,0.807,0.077,-12.146,-124.939,-59.143
0.664,0.911,0.043,-13.000,-146.667,-57.556
0.575,0.932,-0.003,-12.695,-159.302,-52.063
0.511,0.938,-0.020,-11.841,-160.828,-47.913
0.500,0.941,-0.002,-11.719,-154.419,-47.729
0.535,0.897,0.018,-12.695,-147.278,-49.011
0.588,0.867,0.052,-14.893,-144.043,-51.331
0.625,0.851,0.082,-17.273,-147.339,-54.199
0.638,0.886,0.111,-18.311,-157.166,-58.350
0.651,0.923,0.145,-16.663,-171.448,-64.270
0.660,0.933,0.157,-12.512,-190.186,-70.496
0.668,0.929,0.163,-7.263,-210.815,-75.012
0.660,0.942,0.164,-2.197,-231.018,-79.468
0.626,0.920,0.155,2.319,-247.070,-83.984
0.598,0.885,0.161,5.615,-257.019,-86.731
0.558,0.876,0.174,6.775,-261.902,-88.501
0.507,0.886,0.190,6.287,-263.489,-89.722
0.460,0.881,0.208,4.395,-262.878,-89.905
0.407,0.856,0.216,1.892,-260.010,-90.332
0.368,0.823,0.224,-2.258,-254.456,-91.431
0.315,0.819,0.226,-6.775,-246.155,-94.055
0.250,0.820,0.225,-10.315,-233.765,-97.595
0.213,0.796,0.228,-12.512,-217.041,-101.563
0.203,0.773,0.233,-14.221,-196.655,-105.408
0.213,0.795,0.249,-15.259,-174.683,-107.971
0.225,0.791,0.263,-16.113,-152.527,-108.643
0.266,0.762,0.276,-15.808,-129.028,-107.788
0.311,0.734,0.302,-16.541,-105.103,-106.567
0.360,0.695,0.319,-17.761,-82.886,-104.675
0.406,0.654,0.332,-20.020,-64.087,-102.173
0.449,0.629,0.346,-23.071,-48.584,-99.915
0.479,0.620,0.358,-26.978,-36.560,-97.961
0.489,0.627,0.362,-29.480,-27.527,-96.924
0.499,0.625,0.369,-31.006,-20.447,-96.619
0.511,0.635,0.376,-31.799,-15.564,-96.680
0.505,0.640,0.373,-31.494,-11.780,-98.206
0.520,0.626,0.368,-30.334,-7.263,-100.708
0.546,0.617,0.363,-29.419,-1.770,-104.492
0.565,0.607,0.362,-28.992,5.127,-107.910
0.591,0.582,0.354,-30.762,12.390,-109.680
0.647,0.547,0.344,-34.058,19.531,-110.229
0.703,0.518,0.326,-38.940,25.757,-110.352
0.753,0.507,0.312,-46.021,31.860,-109.009
0.812,0.511,0.296,-54.321,37.476,-106.445

1.645,1.009,-0.492,12.573,99.304,17.822
1.884,1.253,-0.627,17.700,113.586,24.963
2.143,1.515,-0.832,24.353,127.563,35.461
2.502,1.758,-1.154,32.715,146.362,46.875
2.976,2.122,-1.503,40.100,177.002,60.486
3.505,2.475,-1.821,48.218,215.210,79.529
3.999,2.675,-2.153,64.026,255.432,109.131
4.000,2.741,-2.436,84.778,292.236,151.367
4.000,2.695,-2.606,109.192,309.265,207.031
4.000,2.478,-2.659,144.043,288.086,267.456
4.000,2.002,-2.650,193.176,236.145,323.669
4.000,1.326,-2.643,249.023,172.607,367.737
4.000,0.540,-2.630,302.002,119.934,397.095
3.622,-0.219,-2.502,343.872,86.731,416.687
3.176,-0.816,-2.304,372.437,68.054,426.636
2.777,-1.254,-2.046,391.846,56.763,427.551
2.382,-1.506,-1.777,404.602,46.387,420.166
2.140,-1.509,-1.520,414.673,36.621,410.339
1.829,-1.819,-1.417,426.697,29.663,405.090
1.461,-1.970,-1.252,417.419,22.217,375.916
1.162,-1.707,-0.929,392.883,20.630,336.548
0.947,-1.519,-0.741,380.920,23.193,305.237
0.731,-1.423,-0.596,371.460,22.156,270.447
0.525,-1.377,-0.461,358.276,22.644,234.619
0.350,-1.366,-0.356,342.041,25.085,198.608
0.229,-1.306,-0.233,320.374,29.175,164.917
0.164,-1.182,-0.119,294.189,32.227,137.695
0.142,-1.111,-0.039,266.418,32.166,118.286
0.134,-1.109,-0.006,237.366,29.358,101.379
0.101,-0.997,0.029,204.346,26.794,86.304
0.080,-0.921,0.079,171.814,25.940,79.346
0.077,-0.880,0.090,142.456,22.644,73.730
0.054,-0.824,0.083,116.272,20.386,68.481
0.020,-0.775,0.080,93.750,21.606,65.552
-0.021,-0.710,0.064,76.294,25.940,60.486
-0.055,-0.660,0.051,62.927,34.546,53.833
-0.067,-0.609,0.038,53.711,45.837,46.814
-0.056,-0.543,0.048,47.241,57.800,38.696
-0.021,-0.451,0.083,43.640,68.054,30.823
0.017,-0.406,0.070,43.762,73.608,23.987
0.022,-0.362,0.066,44.861,77.209,15.381
0.036,-0.240,0.117,45.593,81.116,5.920
0.095,-0.132,0.174,50.293,80.627,-0.610
0.145,-0.079,0.224,56.335,74.280,-4.028
0.151,-0.030,0.275,60.669,63.354,-7.019
0.169,0.033,0.337,61.768,50.476,-7.935
0.178,0.088,0.392,60.974,35.583,-7.385
0.162,0.153,0.439,58.594,20.630,-7.874
0.155,0.212,0.485,54.810,7.629,-8.240
0.147,0.264,0.537,50.049,-2.991,-9.644
0.153,0.309,0.571,44.373,-12.756,-12.085
0.135,0.324,0.579,37.109,-21.973,-14.893
0.136,0.336,0.593,28.076,-27.161,-17.517
0.157,0.371,0.596,16.907,-29.724,-19.592
0.179,0.402,0.601,5.554,-30.701,-19.226
0.198,0.407,0.572,-4.211,-31.860,-17.029
0.136,0.421,0.538,-11.902,-30.884,-17.761
0.125,0.534,0.580,-18.127,-24.475,-22.583
0.166,0.601,0.559,-20.508,-19.104,-23.560
0.177,0.646,0.579,-21.301,-12.939,-20.630
0.166,0.674,0.571,-21.301,-7.019,-17.578
0.174,0.689,0.585,-21.118,-0.122,-15.625
0.193,0.670,0.583,-22.339,6.531,-15.869
0.229,0.653,0.590,-24.719,11.047,-17.822
0.278,0.616,0.594,-29.236,11.719,-18.555
0.316,0.591,0.585,-35.461,8.362,-18.250
0.332,0.590,0.568,-42.114,1.587,-17.334
0.323,0.605,0.546,-47.424,-7.019,-16.113
0.309,0.635,0.528,-50.171,-15.564,-15.564
0.312,0.656,0.520,-50.293,-23.071,-16.724
0.338,0.645,0.522,-48.950,-30.579,-18.250
0.356,0.624,0.522,-47.607,-39.612,-20.813
0.342,0.598,0.507,-46.570,-49.805,-24.353
0.320,0.566,0.482,-46.143,-58.716,-27.893
0.305,0.553,0.464,-47.363,-64.636,-31.555
0.290,0.558,0.455,-48.584,-68.604,-35.461
0.297,0.569,0.454,-49.988,-71.899,-39.856
0.329,0.598,0.462,-51.086,-76.660,-44.800
0.374,0.625,0.477,-50.720,-84.595,-49.988
0.423,0.625,0.486,-49.500,-96.985,-55.420
0.450,0.620,0.482,-48.096,-113.037,-61.768
0.453,0.591,0.454,-47.058,-131.714,-69.092
0.444,0.562,0.417,-48.096,-149.475,-76.111
0.419,0.565,0.374,-49.988,-164.917,-82.703
0.390,0.589,0.339,-51.819,-176.941,-88.196
0.357,0.581,0.302,-52.979,-185.486,-92.712
0.309,0.569,0.265,-52.734,-190.063,-97.595
0.270,0.597,0.253,-51.758,-189.941,-103.149
0.251,0.614,0.249,-48.889,-186.035,-109.192
0.243,0.619,0.254,-43.823,-179.382,-116.516
0.240,0.604,0.272,-37.842,-169.983,-125.061
0.226,0.575,0.290,-31.372,-159.973,-134.338
0.220,0.547,0.302,-25.269,-148.743,-145.020
0.221,0.551,0.305,-20.264,-135.681,-155.518
0.225,0.585,0.314,-17.334,-120.911,-165.039
0.246,0.614,0.320,-15.137,-104.553,-171.631
0.298,0.620,0.319,-14.587,-87.830,-173.462
0.355,0.638,0.323,-16.357,-71.289,-171.570
0.393,0.644,0.323,-19.958,-55.298,-167.175
0.423,0.630,0.316,-25.085,-39.856,-161.926
0.470,0.596,0.303,-31.799,-23.621,-157.532
0.518,0.609,0.287,-39.673,-6.836,-155.212
0.567,0.656,0.265,-47.363,9.460,-154.114
0.626,0.682,0.240,-53.833,24.719,-152.588
0.696,0.695,0.225,-58.533,37.720,-150.146
0.766,0.709,0.220,-61.890,46.875,-147.095
0.813,0.721,0.212,-63.904,50.598,-143.311
0.834,0.721,0.198,-64.697,49.500,-139.587
0.841,0.711,0.178,-64.270,46.082,-136.658
0.844,0.703,0.157,-63.293,41.931,-135.437
0.839,0.702,0.142,-61.462,38.025,-136.414
0.849,0.702,0.137,-58.960,35.278,-138.184
0.875,0.694,0.136,-56.030,33.142,-140.381
0.901,0.677,0.133,-53.650,30.945,-142.456
0.941,0.656,0.138,-51.636,29.114,-143.921
0.989,0.643,0.151,-50.354,26.428,-144.409
1.021,0.629,0.165,-49.316,22.522,-144.287
1.058,0.617,0.180,-49.072,17.639,-142.944
1.088,0.600,0.190,-50.049,10.681,-141.357

1.721,1.147,-0.417,0.061,198.792,7.141
1.960,1.334,-0.545,3.906,227.173,23.315
2.182,1.535,-0.720,6.653,250.183,43.701
2.359,1.745,-0.942,8.484,268.311,66.040
2.575,1.950,-1.197,12.085,286.621,88.806
2.834,2.190,-1.458,18.921,307.739,113.403
3.094,2.410,-1.693,31.555,330.444,139.099
3.388,2.530,-1.955,51.331,353.210,168.274
3.627,2.601,-2.178,76.599,372.864,200.806
3.779,2.526,-2.383,106.323,388.794,237.854
3.965,2.341,-2.545,140.625,400.085,278.015
4.000,2.101,-2.542,177.490,392.639,317.200
3.848,1.721,-2.512,222.900,357.727,346.619
3.521,1.264,-2.511,271.484,305.542,361.938
3.134,0.800,-2.481,315.186,252.625,365.234
2.749,0.373,-2.375,350.159,205.566,360.535
2.465,0.123,-2.168,377.258,164.368,351.685
2.240,-0.232,-2.035,404.907,131.531,351.196
1.918,-0.802,-1.892,420.166,104.614,342.957
1.621,-0.926,-1.535,402.710,79.163,313.110
1.366,-0.993,-1.176,384.888,61.829,293.945
1.055,-1.101,-0.909,368.652,43.701,277.039
0.682,-1.085,-0.664,344.666,28.870,254.089
0.373,-0.991,-0.419,315.125,21.790,223.999
0.085,-0.707,-0.170,293.701,24.963,193.054
-0.043,-0.682,-0.009,282.104,37.476,167.358
-0.057,-0.719,0.097,273.865,50.598,144.531
-0.048,-0.729,0.251,259.827,63.721,120.972
-0.101,-0.759,0.322,241.455,69.763,95.703
-0.128,-0.787,0.347,217.163,72.449,71.411
-0.114,-0.822,0.337,188.599,73.181,49.194
-0.079,-0.860,0.274,159.363,71.960,26.428
-0.058,-0.822,0.194,129.517,72.937,6.470
-0.061,-0.762,0.096,102.173,77.026,-7.080
-0.022,-0.690,0.023,80.322,84.839,-14.465
0.041,-0.633,-0.026,65.735,93.689,-15.320
0.091,-0.596,-0.060,56.396,100.647,-14.465
0.126,-0.586,-0.077,50.659,103.821,-15.137
0.163,-0.578,-0.068,45.471,103.699,-17.883
0.202,-0.555,-0.062,39.917,100.220,-22.339
0.237,-0.507,-0.022,34.302,93.994,-26.978
0.250,-0.415,0.050,28.931,83.862,-31.616
0.286,-0.298,0.132,25.635,68.054,-35.156
0.349,-0.216,0.178,24.963,46.082,-35.889
0.364,-0.134,0.214,25.146,21.362,-36.743
0.348,-0.042,0.239,26.306,-2.625,-38.330
0.301,0.046,0.258,28.809,-24.231,-40.283
0.258,0.104,0.264,31.982,-42.236,-40.833
0.188,0.144,0.271,33.936,-54.138,-40.527
0.150,0.180,0.287,33.508,-58.533,-39.307
0.156,0.238,0.330,30.579,-56.702,-37.170
0.180,0.283,0.370,26.733,-52.917,-35.950
0.197,0.305,0.398,22.034,-50.415,-36.011
0.206,0.368,0.401,15.991,-49.072,-36.255
0.229,0.429,0.418,9.033,-47.485,-32.532
0.235,0.443,0.404,2.869,-47.058,-28.625
0.208,0.539,0.423,-3.540,-46.875,-30.579
0.189,0.589,0.388,-8.667,-44.983,-28.870
0.219,0.632,0.406,-12.512,-39.612,-24.780
0.252,0.669,0.407,-15.259,-34.180,-20.630
0.172,0.683,0.346,-18.616,-29.419,-16.968
0.110,0.725,0.319,-23.376,-17.944,-13.123
0.097,0.752,0.293,-27.405,-1.160,-7.874
0.086,0.773,0.275,-30.762,16.602,-5.981
0.141,0.854,0.304,-34.058,32.471,-6.653
0.223,0.843,0.319,-36.133,40.955,-3.113
0.302,0.868,0.338,-37.537,39.673,-0.854
0.357,0.888,0.361,-37.659,29.907,0.183
0.394,0.891,0.369,-35.706,13.855,1.160
0.414,0.912,0.368,-32.593,-6.714,0.305
0.422,0.935,0.365,-28.503,-30.090,-2.136
0.395,0.926,0.342,-24.170,-54.932,-3.967
0.317,0.898,0.302,-19.531,-76.965,-6.653
0.260,0.914,0.288,-15.198,-90.454,-9.888
0.222,0.927,0.270,-10.681,-96.558,-11.963
0.142,0.912,0.245,-6.348,-96.191,-14.587
0.101,0.906,0.238,-3.113,-87.097,-17.456
0.119,0.895,0.250,-2.502,-71.350,-18.433
0.146,0.865,0.265,-4.639,-54.688,-17.273
0.193,0.815,0.284,-8.911,-39.368,-14.709
0.249,0.755,0.304,-14.648,-27.405,-12.451
0.283,0.721,0.319,-21.545,-20.569,-11.230
0.307,0.704,0.319,-27.832,-19.043,-10.559
0.327,0.675,0.315,-33.630,-20.996,-9.766
0.328,0.723,0.308,-36.987,-25.940,-9.888
0.332,0.780,0.304,-38.757,-31.738,-10.925
0.334,0.764,0.285,-38.513,-38.818,-10.742
0.335,0.750,0.277,-39.001,-46.875,-10.132
0.334,0.725,0.270,-39.551,-54.810,-9.460
0.315,0.701,0.247,-40.894,-62.195,-8.789
0.281,0.659,0.215,-42.664,-68.054,-8.423
0.233,0.637,0.167,-45.471,-71.350,-9.460
0.179,0.637,0.119,-49.683,-70.251,-11.536
0.138,0.656,0.086,-53.772,-64.880,-13.367
0.119,0.719,0.073,-56.030,-56.580,-15.137
0.122,0.777,0.077,-56.030,-47.791,-17.212
0.136,0.843,0.090,-52.734,-40.710,-19.714
0.161,0.893,0.117,-47.668,-36.438,-22.400
0.194,0.886,0.138,-41.748,-35.889,-24.841
0.213,0.843,0.140,-37.354,-38.574,-27.466
0.219,0.803,0.140,-36.499,-42.969,-30.090
0.222,0.775,0.136,-38.330,-48.157,-32.166
0.221,0.741,0.116,-41.382,-53.162,-34.363
0.196,0.713,0.093,-45.471,-56.458,-37.354
0.168,0.719,0.064,-48.889,-57.495,-41.199
0.161,0.767,0.056,-51.147,-55.542,-45.715
0.168,0.810,0.056,-51.575,-52.368,-48.950
0.162,0.872,0.058,-49.255,-50.232,-51.208
0.165,0.924,0.076,-44.495,-48.523,-53.589
0.187,0.939,0.090,-38.330,-47.363,-56.824
0.204,0.938,0.100,-32.532,-47.119,-61.279
0.218,0.917,0.113,-28.015,-47.913,-66.650
0.242,0.886,0.121,-25.208,-48.767,-72.449
0.266,0.849,0.120,-23.682,-49.683,-78.674
0.273,0.838,0.107,-24.597,-50.842,-84.412
0.273,0.846,0.092,-27.405,-51.086,-88.013
0.264,0.836,0.060,-32.166,-49.988,-87.952
0.262,0.828,0.023,-38.818,-46.936,-85.205
0.279,0.856,0.009,-47.852,-41.809,-81.665

1.483,0.809,-0.569,-1.770,86.121,-15.808
1.641,0.944,-0.654,-1.282,102.844,-10.071
1.803,1.103,-0.762,0.610,109.497,-1.282
1.901,1.271,-0.899,4.761,106.628,10.254
1.916,1.425,-1.038,12.512,99.487,23.254
1.891,1.551,-1.167,23.010,95.947,37.598
1.891,1.649,-1.294,35.034,100.281,53.223
1.957,1.725,-1.427,45.898,114.380,68.298
2.075,1.775,-1.566,54.260,137.146,80.872
2.258,1.805,-1.722,59.814,168.213,92.529
2.536,1.855,-1.897,62.439,203.918,107.117
2.906,1.889,-2.055,66.223,236.145,126.892
3.312,1.871,-2.225,78.186,259.155,149.841
3.612,1.881,-2.316,97.046,270.996,176.941
3.820,1.815,-2.300,121.399,271.423,209.412
3.909,1.603,-2.247,155.334,262.878,244.324
3.882,1.216,-2.172,192.322,247.681,280.273
3.761,0.765,-2.085,226.562,229.675,313.477
3.515,0.381,-1.937,256.348,213.928,338.806
3.235,0.115,-1.763,283.447,205.261,356.445
2.981,-0.186,-1.608,309.753,205.017,370.178
2.671,-0.659,-1.467,329.956,209.961,377.014
2.335,-0.889,-1.266,334.778,216.736,368.958
1.977,-0.999,-1.038,333.984,226.990,357.300
1.699,-1.072,-0.817,333.862,237.854,342.102
1.481,-1.113,-0.605,332.214,242.249,322.205
1.267,-1.075,-0.403,327.881,237.732,296.265
1.112,-0.973,-0.173,321.716,224.609,266.724
0.967,-0.848,0.033,315.674,201.172,238.098
0.801,-0.816,0.181,309.509,169.067,210.876
0.668,-0.925,0.290,298.340,135.498,184.998
0.601,-1.060,0.355,274.170,107.788,163.452
0.467,-1.072,0.381,233.765,86.182,148.560
0.317,-1.022,0.343,185.852,73.425,136.230
0.213,-0.982,0.241,138.977,71.655,122.009
0.119,-0.898,0.137,99.792,79.651,100.891
0.127,-0.822,0.089,71.716,95.581,77.087
0.212,-0.695,0.092,52.490,113.708,57.800
0.284,-0.556,0.100,42.114,122.986,44.006
0.278,-0.479,0.082,42.419,122.253,32.898
0.215,-0.444,0.056,50.476,115.967,19.958
0.147,-0.393,0.053,61.584,108.765,4.395
0.104,-0.351,0.086,73.730,101.685,-10.254
0.063,-0.329,0.135,84.045,94.788,-23.560
0.103,-0.305,0.219,90.820,87.708,-33.813
0.193,-0.306,0.289,91.858,76.233,-37.842
0.232,-0.280,0.344,86.060,58.655,-37.537
0.248,-0.157,0.402,74.768,36.011,-33.936
0.206,-0.089,0.377,63.110,9.705,-27.771
0.092,0.010,0.335,52.368,-12.146,-26.367
0.001,0.129,0.321,44.434,-26.184,-27.466
-0.015,0.198,0.302,40.344,-33.508,-28.687
-0.024,0.266,0.314,38.940,-36.682,-31.189
-0.003,0.306,0.328,38.879,-37.231,-34.058
0.014,0.328,0.337,39.673,-36.987,-36.255
0.006,0.371,0.347,39.185,-34.851,-37.476
0.018,0.414,0.377,39.063,-31.494,-38.330
0.073,0.448,0.407,38.757,-28.992,-38.940
0.105,0.448,0.414,37.659,-30.457,-37.598
0.135,0.463,0.420,34.119,-33.875,-35.522
0.099,0.475,0.410,28.870,-37.964,-34.729
0.056,0.546,0.417,21.362,-39.185,-34.363
-0.003,0.598,0.390,13.855,-36.804,-30.884
-0.056,0.571,0.374,7.751,-29.236,-28.259
-0.029,0.650,0.439,1.648,-19.287,-30.457
0.032,0.693,0.445,-2.930,-16.418,-29.968
0.020,0.664,0.414,-6.714,-19.897,-26.245
-0.000,0.715,0.398,-12.695,-22.949,-23.071
-0.035,0.664,0.343,-16.541,-23.315,-18.372
-0.016,0.810,0.379,-18.250,-19.836,-19.165
0.016,0.728,0.377,-15.564,-20.691,-21.362
0.073,0.772,0.370,-14.038,-24.475,-26.306
0.068,0.736,0.373,-13.367,-28.992,-26.367
0.080,0.760,0.363,-13.184,-34.790,-28.625
0.098,0.781,0.355,-12.878,-40.039,-32.104
0.114,0.789,0.356,-12.268,-44.800,-33.997
0.152,0.794,0.353,-12.024,-50.903,-34.546
0.194,0.766,0.346,-11.719,-58.472,-33.997
0.211,0.748,0.343,-12.085,-67.810,-34.485
0.203,0.730,0.338,-12.756,-78.003,-34.851
0.180,0.688,0.302,-13.306,-86.731,-33.325
0.138,0.670,0.277,-14.526,-91.675,-32.104
0.117,0.694,0.271,-15.076,-91.248,-32.471
0.122,0.705,0.261,-14.099,-88.440,-33.752
0.104,0.711,0.244,-13.794,-84.473,-36.133
0.093,0.706,0.245,-14.465,-78.308,-39.612
0.138,0.670,0.262,-15.137,-69.824,-42.053
0.199,0.622,0.278,-17.090,-62.927,-43.579
0.250,0.556,0.298,-20.813,-60.120,-44.189
0.282,0.481,0.301,-25.635,-61.951,-44.189
0.280,0.411,0.282,-31.677,-67.200,-44.128
0.255,0.391,0.251,-39.368,-73.547,-44.617
0.254,0.393,0.230,-47.485,-79.468,-45.715
0.276,0.406,0.218,-53.223,-85.693,-47.668
0.291,0.492,0.214,-55.969,-92.957,-51.208
0.302,0.628,0.224,-55.664,-101.685,-55.237
0.329,0.650,0.231,-52.856,-112.427,-56.335
0.386,0.624,0.220,-51.270,-125.305,-54.504
0.411,0.645,0.205,-54.626,-138.672,-51.697
0.397,0.640,0.172,-61.218,-151.978,-48.401
0.375,0.627,0.122,-68.054,-163.940,-46.570
0.351,0.653,0.078,-74.219,-172.119,-48.218
0.315,0.705,0.054,-78.064,-177.124,-53.467
0.295,0.758,0.041,-77.087,-178.772,-60.425
0.267,0.869,0.033,-71.960,-177.979,-66.833
0.235,0.980,0.023,-63.843,-175.842,-70.862
0.211,1.021,0.004,-54.443,-172.913,-71.167
0.149,1.024,-0.025,-46.143,-168.335,-70.801
0.096,1.015,-0.059,-41.443,-159.912,-73.792
0.066,1.000,-0.081,-39.307,-146.301,-79.529
0.072,0.961,-0.081,-39.063,-128.784,-87.524
0.109,0.941,-0.054,-40.161,-109.985,-97.229
0.153,0.953,-0.013,-41.504,-92.224,-108.032
0.207,0.995,0.019,-41.504,-76.843,-116.577
0.288,1.020,0.062,-39.795,-64.941,-121.216
0.376,1.024,0.101,-36.255,-58.899,-122.681
0.453,1.023,0.124,-32.532,-59.692,-122.375
0.507,1.010,0.129,-30.457,-66.833,-122.620
0.510,0.990,0.107,-29.663,-76.965,-123.779

1.578,0.971,-0.208,16.296,71.899,-21.118
1.603,1.064,-0.329,26.184,69.275,-14.221
1.679,1.169,-0.448,36.377,70.679,-7.324
1.802,1.301,-0.527,46.570,72.205,1.099
1.906,1.427,-0.607,57.495,71.594,13.000
2.013,1.523,-0.699,67.810,72.083,28.076
2.109,1.629,-0.750,75.073,77.637,46.570
2.228,1.753,-0.781,81.909,91.736,66.467
2.428,1.899,-0.834,90.576,118.652,83.801
2.723,2.072,-0.899,97.168,159.851,99.060
3.185,2.181,-0.907,100.708,207.581,117.737
3.724,2.139,-0.887,105.164,246.765,143.677
4.000,2.051,-0.828,108.582,264.343,180.054
