aX,aY,aZ,gX,gY,gZ
-1.804,-0.879,-0.851,-33.264,85.938,-35.4
-2.27,-0.998,-0.949,-40.649,109.192,-57.312
-2.468,-1.121,-0.969,-28.748,120.361,-99.243
-2.385,-1.42,-1.036,3.723,117.432,-167.603
-2.445,-1.755,-1.079,42.725,101.929,-258.972
-2.514,-2.064,-1.074,77.881,73.364,-352.783
-2.305,-2.404,-1.013,110.413,38.635,-427.612
-2.0,-2.713,-0.947,137.756,5.371,-479.736
-1.75,-2.943,-0.886,162.048,-24.78,-514.771
-1.488,-3.228,-0.855,190.247,-47.974,-539.062
-1.095,-3.587,-0.754,221.619,-56.702,-558.044
-0.709,-3.917,-0.595,246.643,-55.908,-569.885
-0.322,-4.0,-0.418,265.991,-52.734,-572.144
0.084,-4.0,-0.197,279.297,-34.851,-567.627
0.287,-4.0,0.029,277.283,0.305,-553.162
0.572,-4.0,0.276,267.09,45.837,-537.781
0.894,-4.0,0.353,255.798,100.159,-518.921
0.844,-4.0,0.342,237.61,164.49,-502.563
1.984,-4.0,0.747,197.449,270.63,-476.807
3.495,-4.0,0.698,154.175,359.68,-410.461
3.697,-4.0,0.964,109.985,342.651,-376.77
3.55,-3.995,0.872,71.96,242.31,-375.488
3.394,-3.249,0.647,32.166,137.024,-358.887
2.921,-2.983,0.196,16.113,37.17,-317.2
2.193,-2.661,0.071,-9.949,-46.936,-300.354
1.811,-2.346,-0.124,-40.161,-76.599,-267.212
1.537,-1.981,-0.406,-55.237,-50.293,-219.299
1.529,-1.59,-0.052,-53.345,20.752,-179.932
1.325,-1.444,-0.354,-38.635,86.548,-160.706
1.293,-1.073,-0.083,-25.879,172.974,-149.231
1.427,-1.019,-0.133,-4.883,244.019,-129.028
1.59,-1.043,-0.159,13.977,295.715,-107.3
1.656,-0.923,-0.094,22.156,329.407,-90.027
1.73,-0.891,-0.071,28.87,338.867,-65.491
1.833,-0.865,0.03,30.579,328.857,-38.635
1.845,-0.813,0.11,28.564,297.485,-15.137
1.761,-0.768,0.201,24.109,252.625,5.92
1.637,-0.705,0.299,19.592,201.05,25.269
1.488,-0.692,0.34,18.005,145.508,42.603
1.317,-0.695,0.364,16.602,93.445,56.274
1.129,-0.703,0.388,14.465,47.974,64.88
0.937,-0.734,0.371,11.78,10.132,69.153
0.752,-0.765,0.388,6.958,-16.174,69.946
0.616,-0.816,0.369,1.526,-34.912,68.726
0.515,-0.868,0.358,-4.578,-45.41,66.345
0.408,-0.884,0.377,-10.925,-48.035,62.134
0.334,-0.921,0.39,-16.357,-45.837,58.533
0.282,-0.963,0.391,-22.949,-40.466,55.237
0.239,-0.992,0.391,-30.273,-31.128,51.758
0.223,-1.007,0.396,-37.476,-18.982,48.401
0.236,-1.014,0.397,-43.274,-5.92,45.654
0.261,-1.009,0.404,-47.241,6.226,44.25
0.26,-0.993,0.406,-49.011,15.991,44.678
0.268,-0.992,0.421,-48.828,23.254,47.974
0.291,-1.023,0.435,-47.18,27.588,53.406
0.284,-1.064,0.45,-45.593,27.405,58.228
0.258,-1.087,0.455,-45.349,23.682,61.462
0.213,-1.103,0.439,-45.349,18.005,64.148
0.152,-1.089,0.424,-44.434,13.428,66.956
0.087,-1.075,0.409,-42.542,11.108,70.984
0.06,-1.08,0.397,-40.222,11.169,75.256
0.064,-1.086,0.397,-37.598,12.878,77.576
0.083,-1.089,0.408,-34.241,14.771,77.942
0.103,-1.089,0.418,-29.846,15.625,76.843
0.111,-1.085,0.422,-24.536,14.709,75.806
0.1,-1.078,0.423,-19.226,11.414,76.172
0.1,-1.089,0.418,-14.832,6.165,78.552
0.114,-1.114,0.419,-11.719,0.366,81.665
0.127,-1.138,0.423,-9.46,-6.104,84.351
0.134,-1.158,0.432,-7.996,-13.611,85.999
0.148,-1.167,0.444,-7.385,-22.522,86.67
0.167,-1.18,0.449,-7.202,-32.41,86.731
0.179,-1.203,0.451,-7.324,-43.396,86.914
0.18,-1.219,0.446,-8.606,-54.993,86.853
0.184,-1.227,0.443,-10.559,-66.589,87.219
0.189,-1.232,0.44,-12.512,-78.003,87.769
0.184,-1.226,0.432,-14.404,-88.562,87.646
0.181,-1.206,0.428,-16.418,-97.961,87.402
0.193,-1.188,0.429,-17.883,-105.774,87.83
0.187,-1.177,0.419,-18.433,-112.244,89.417
0.152,-1.167,0.396,-18.982,-115.845,91.797
0.149,-1.175,0.406,-18.982,-114.624,94.299
0.179,-1.183,0.441,-18.555,-109.985,95.825
0.201,-1.174,0.453,-18.677,-106.14,96.252
0.176,-1.136,0.43,-19.226,-102.783,97.778
0.122,-1.178,0.362,-20.813,-96.68,100.952
0.167,-1.208,0.439,-24.963,-84.045,99.854
0.16,-1.172,0.445,-29.297,-72.815,94.36
0.152,-1.111,0.434,-32.471,-64.148,90.149
0.149,-1.112,0.433,-35.706,-54.932,87.402
0.155,-1.072,0.431,-39.49,-45.532,84.412
0.113,-0.981,0.43,-42.297,-37.231,82.092
0.113,-0.95,0.407,-42.969,-29.297,83.374
0.075,-0.895,0.344,-42.847,-20.142,85.083
0.136,-0.963,0.372,-42.236,-7.141,85.999
0.062,-0.802,0.359,-43.274,3.662,79.895
0.152,-0.849,0.349,-40.833,13.794,78.369
0.159,-0.658,0.348,-37.903,23.499,74.951
0.172,-0.897,0.35,-30.945,32.288,79.956
0.287,-0.849,0.434,-30.151,32.41,68.542
0.227,-0.706,0.367,-30.334,25.757,56.213
0.183,-0.752,0.339,-28.503,26.184,57.739
0.325,-0.833,0.446,-27.405,29.724,57.556
0.331,-0.669,0.432,-27.283,23.437,49.438
0.228,-0.668,0.445,-26.428,13.367,49.927
0.394,-0.75,0.441,-25.452,3.357,54.321
0.37,-0.707,0.42,-26.794,-7.507,51.575
0.304,-0.705,0.412,-28.625,-16.602,49.622
0.339,-0.688,0.434,-29.907,-23.315,48.34
0.264,-0.617,0.385,-30.212,-29.541,46.997
0.229,-0.66,0.366,-29.053,-30.823,49.927
0.288,-0.751,0.336,-28.076,-26.062,49.133
0.297,-0.62,0.386,-29.297,-18.066,40.771
0.234,-0.585,0.43,-27.771,-10.864,36.621
0.208,-0.585,0.328,-23.193,-8.423,38.574
0.279,-0.618,0.397,-18.921,1.526,40.1
0.354,-0.6,0.427,-14.587,7.996,35.156
0.311,-0.596,0.395,-10.681,9.216,30.945
0.358,-0.653,0.411,-8.118,12.573,30.457
-1.836,-0.385,-0.777,107.3,-183.289,-81.665
-2.181,-0.585,-0.659,148.437,-166.565,-127.93
-2.473,-0.912,-0.539,193.787,-144.531,-178.772
-2.563,-1.371,-0.409,238.22,-115.173,-236.084
-2.57,-1.925,-0.314,276.001,-79.041,-299.561
-2.462,-2.446,-0.223,297.241,-38.086,-365.051
-2.132,-2.913,-0.102,298.95,2.991,-424.011
-1.638,-3.259,0.069,283.447,40.649,-470.215
-1.09,-3.543,0.266,256.531,66.345,-502.563
-0.527,-3.766,0.424,221.313,76.416,-523.01
0.075,-3.909,0.611,178.406,72.388,-530.762
0.761,-4.0,0.818,130.92,53.04,-521.79
1.363,-3.966,0.903,79.773,19.287,-497.009
1.75,-3.55,1.04,37.964,-27.649,-473.022
1.722,-3.154,1.139,27.588,-83.435,-457.031
1.442,-3.013,1.088,45.532,-132.507,-454.651
1.127,-3.116,0.935,77.393,-153.259,-471.497
0.895,-3.3,0.875,110.84,-134.338,-504.517
1.035,-3.684,0.952,134.155,-91.797,-534.668
1.531,-4.0,0.958,134.705,-50.781,-544.067
2.23,-4.0,1.05,105.164,-20.081,-527.466
2.675,-4.0,1.024,62.134,-19.104,-502.502
2.789,-3.864,0.939,27.1,-37.17,-472.29
2.782,-3.972,1.173,5.31,-49.683,-424.316
2.656,-3.708,1.025,0.977,-57.312,-386.719
2.087,-3.254,0.696,16.235,-65.491,-398.132
2.345,-2.471,0.668,40.894,-59.204,-382.385
1.72,-2.764,0.644,71.289,-43.091,-357.361
2.193,-2.786,0.639,63.049,-27.527,-363.037
1.706,-1.523,0.208,48.34,4.7,-332.397
1.947,-1.846,0.192,61.523,64.88,-305.786
1.733,-1.323,0.215,52.429,113.647,-275.085
1.581,-1.203,0.149,44.434,154.724,-245.972
1.665,-1.238,0.146,48.34,195.496,-206.604
1.606,-1.049,0.261,51.025,224.182,-166.87
1.523,-0.97,0.344,55.359,231.201,-115.479
1.449,-0.865,0.392,60.242,220.398,-58.716
1.355,-0.936,0.448,66.101,201.965,-6.104
1.146,-0.983,0.494,69.153,173.34,33.997
1.033,-0.992,0.536,67.139,140.625,61.707
0.861,-1.013,0.584,64.392,107.3,81.97
0.615,-0.994,0.604,60.364,74.402,92.957
0.346,-1.042,0.58,55.237,47.241,98.633
0.138,-1.037,0.545,47.18,29.236,101.074
-0.026,-1.035,0.54,34.546,21.484,101.99
-0.133,-1.064,0.532,19.775,18.921,97.839
-0.176,-1.061,0.547,4.089,21.729,86.609
-0.214,-1.019,0.539,-10.01,27.832,70.984
-0.268,-0.989,0.499,-22.583,35.278,55.908
-0.3,-0.942,0.453,-34.18,44.373,44.861
-0.318,-0.921,0.413,-44.312,54.871,38.635
-0.298,-0.924,0.385,-51.514,66.345,34.485
-0.276,-0.913,0.393,-54.81,78.003,28.748
-0.266,-0.917,0.386,-55.603,87.341,22.949
-0.223,-0.964,0.373,-54.077,95.52,16.418
-0.198,-0.966,0.378,-50.842,102.905,8.545
-0.183,-0.953,0.384,-47.546,108.704,2.563
-0.165,-0.965,0.379,-43.335,111.511,-0.183
-0.177,-0.98,0.376,-39.429,112.976,-1.221
-0.182,-1.022,0.377,-35.95,114.502,-1.526
-0.178,-1.066,0.394,-33.813,116.76,-1.953
-0.187,-1.092,0.433,-34.729,120.239,-1.099
-0.152,-1.146,0.443,-40.405,123.413,2.747
-0.101,-1.161,0.474,-51.941,126.404,7.019
-0.066,-1.131,0.502,-65.857,127.563,9.705
-0.026,-1.085,0.516,-78.674,124.634,12.329
0.018,-1.063,0.51,-89.355,118.103,15.442
0.07,-1.035,0.499,-96.252,109.558,17.578
0.131,-1.004,0.47,-98.755,99.121,20.081
0.166,-0.986,0.437,-96.68,87.341,23.804
0.138,-0.945,0.377,-91.37,75.073,27.527
0.128,-0.874,0.352,-83.618,66.65,32.532
0.165,-0.876,0.316,-72.388,60.364,42.847
0.148,-0.889,0.291,-60.486,53.223,52.307
0.145,-0.864,0.276,-49.805,48.34,58.96
0.19,-0.891,0.28,-37.903,42.786,63.171
0.128,-0.947,0.279,-28.259,37.842,63.171
0.094,-0.949,0.3,-24.292,38.086,58.411
0.075,-0.998,0.34,-22.827,43.274,53.955
-0.044,-1.001,0.328,-26.001,50.476,44.556
-0.116,-0.975,0.327,-31.006,69.702,30.64
-0.037,-0.933,0.347,-33.386,99.06,18.188
0.057,-0.946,0.358,-32.715,124.939,11.719
0.117,-0.997,0.352,-33.264,143.799,10.437
0.238,-0.986,0.415,-36.987,158.813,12.085
0.348,-0.93,0.451,-41.016,165.833,18.005
0.425,-0.944,0.474,-43.213,162.781,25.696
0.489,-0.938,0.498,-46.509,155.212,33.936
0.47,-0.933,0.488,-49.683,141.357,40.222
0.411,-0.934,0.472,-52.917,125.549,42.725
0.4,-0.921,0.451,-56.213,113.77,42.908
0.377,-0.885,0.423,-58.228,102.6,43.091
0.323,-0.87,0.399,-58.044,90.515,43.091
0.298,-0.847,0.389,-56.519,82.275,41.748
0.336,-0.793,0.393,-53.711,78.369,40.771
0.383,-0.774,0.39,-47.729,73.303,42.175
0.398,-0.782,0.391,-40.283,65.308,44.067
0.358,-0.783,0.381,-33.508,56.58,45.471
0.363,-0.784,0.389,-27.1,51.208,47.363
0.401,-0.777,0.42,-21.118,48.401,48.706
0.421,-0.792,0.457,-15.747,45.288,47.485
0.444,-0.81,0.476,-11.658,40.466,44.434
0.463,-0.825,0.484,-8.911,33.875,42.48
0.453,-0.826,0.489,-8.057,27.039,42.664
0.436,-0.826,0.498,-9.094,21.24,43.945
0.436,-0.826,0.504,-12.451,17.456,45.227
0.426,-0.838,0.493,-16.907,14.221,45.593
0.386,-0.842,0.471,-22.278,11.78,44.739
0.346,-0.822,0.472,-28.137,13.245,42.847
0.34,-0.798,0.474,-33.447,18.25,40.771
0.369,-0.776,0.484,-36.682,24.353,38.513
0.407,-0.756,0.488,-38.086,28.87,35.767
0.432,-0.744,0.476,-37.659,29.846,33.02
0.437,-0.738,0.467,-35.706,29.053,30.396
0.437,-0.732,0.458,-33.691,28.259,27.893
0.452,-0.733,0.445,-31.738,28.32,25.757
0.475,-0.74,0.436,-29.968,28.259,24.414
0.489,-0.748,0.432,-28.809,27.222,23.621
0.511,-0.765,0.431,-27.71,25.024,23.499
-1.681,-1.259,-1.516,61.34,-119.812,143.311
-2.44,-1.395,-1.632,89.478,-120.3,129.456
-2.997,-1.197,-1.562,140.747,-123.413,79.834
-3.509,-1.33,-1.485,233.337,-129.883,-15.198
-3.941,-1.895,-1.523,348.511,-146.545,-150.146
-3.974,-2.65,-1.429,454.407,-165.649,-294.373
-3.817,-3.345,-1.182,522.949,-171.387,-413.33
-3.519,-3.942,-0.938,556.091,-165.405,-494.141
-2.985,-4.0,-0.709,570.312,-149.658,-539.795
-2.354,-4.0,-0.392,578.43,-124.207,-567.2
-1.701,-4.0,-0.148,592.224,-91.675,-588.928
-0.925,-4.0,0.071,611.328,-54.321,-608.948
0.303,-4.0,0.489,614.99,-13.611,-613.098
1.497,-4.0,1.144,570.74,21.484,-577.759
2.233,-4.0,1.74,471.558,11.047,-521.118
2.926,-4.0,1.865,359.497,-36.438,-446.106
3.398,-4.0,1.81,255.31,-78.735,-375.244
2.937,-4.0,1.823,156.433,-93.262,-328.064
2.354,-3.409,1.885,75.989,-72.571,-289.124
2.04,-2.913,1.945,25.269,-26.184,-253.784
1.832,-2.438,1.827,-10.071,32.776,-233.826
1.742,-2.169,1.601,-25.269,86.06,-231.75
1.732,-2.021,1.458,-25.696,124.207,-241.516
1.762,-1.965,1.332,-18.555,145.752,-249.817
1.833,-1.867,1.222,-9.399,149.719,-256.531
1.688,-1.789,1.035,-0.549,141.785,-263.794
1.496,-1.71,0.888,4.211,136.414,-272.4
1.37,-1.642,0.719,3.113,140.93,-276.245
1.241,-1.6,0.542,-1.953,155.64,-277.405
1.192,-1.609,0.412,-9.46,179.199,-278.564
1.137,-1.566,0.348,-21.24,205.2,-279.724
1.216,-1.471,0.321,-34.058,224.365,-276.184
1.214,-1.335,0.268,-43.152,232.91,-267.944
1.245,-1.213,0.206,-47.913,236.572,-252.258
1.303,-0.964,0.203,-46.57,225.464,-226.868
1.356,-0.926,0.252,-36.377,199.951,-190.491
1.253,-0.884,0.213,-22.156,160.095,-162.231
1.143,-0.914,0.187,-3.845,122.742,-135.315
1.101,-0.818,0.247,15.259,92.346,-112.671
0.962,-0.875,0.246,34.668,62.134,-94.666
0.773,-0.805,0.206,50.659,37.476,-80.444
0.628,-0.898,0.087,61.157,20.996,-58.96
0.551,-0.948,0.129,65.613,15.686,-43.274
0.45,-0.893,0.1,66.895,13.184,-32.41
0.398,-0.943,0.14,70.19,16.541,-20.142
0.393,-0.871,0.222,71.411,18.738,-9.094
0.393,-0.88,0.248,74.341,16.724,6.042
0.351,-0.949,0.259,77.637,12.085,20.752
0.299,-1.007,0.261,80.017,6.165,31.86
0.245,-1.005,0.295,81.299,-0.427,36.743
0.206,-1.018,0.325,80.017,-6.348,41.87
0.205,-1.077,0.322,76.843,-17.395,49.377
0.12,-1.128,0.287,70.557,-26.733,54.688
0.004,-1.149,0.285,61.89,-30.396,57.678
-0.069,-1.17,0.288,51.697,-30.701,60.425
-0.1,-1.172,0.258,38.696,-30.212,61.646
-0.13,-1.172,0.248,24.658,-25.94,62.378
-0.189,-1.175,0.187,11.475,-19.165,61.523
-0.2,-1.169,0.227,1.343,-8.667,58.228
-0.172,-1.2,0.184,-6.47,0.61,53.162
-0.153,-1.134,0.192,-13.245,11.292,44.922
-0.141,-1.096,0.186,-18.86,20.508,40.588
-0.158,-1.067,0.147,-23.804,28.625,38.94
-0.163,-1.046,0.15,-27.161,37.903,40.039
-0.142,-1.04,0.13,-29.785,45.959,42.786
-0.123,-1.035,0.122,-32.104,53.528,44.922
-0.119,-1.041,0.113,-34.18,59.57,46.814
-0.094,-1.037,0.124,-35.156,64.026,47.729
-0.038,-1.042,0.128,-35.095,66.162,47.974
0.014,-1.053,0.141,-33.691,66.162,46.387
0.02,-1.024,0.159,-31.067,63.782,43.335
0.013,-0.999,0.182,-27.039,58.838,42.48
0.022,-0.988,0.195,-22.888,50.781,44.006
-0.008,-0.989,0.185,-18.86,41.992,46.57
-0.05,-0.986,0.184,-16.052,34.363,49.438
-0.066,-1.02,0.182,-14.221,28.259,51.941
-0.072,-1.053,0.178,-13.245,23.376,51.575
-0.056,-1.083,0.178,-13.0,20.63,47.974
-0.013,-1.096,0.18,-13.123,18.25,41.26
0.032,-1.1,0.181,-13.367,15.747,33.142
0.078,-1.095,0.186,-13.794,12.817,25.574
0.117,-1.084,0.182,-14.221,8.667,19.714
0.147,-1.072,0.177,-14.465,3.845,16.479
0.123,-1.041,0.169,-14.404,-0.793,15.686
0.087,-1.028,0.157,-14.709,-4.761,18.799
0.084,-1.038,0.139,-16.235,-7.263,24.78
0.089,-1.046,0.134,-18.127,-6.714,30.884
0.092,-1.058,0.137,-19.714,-5.066,36.499
0.099,-1.061,0.138,-20.569,-2.625,40.527
0.118,-1.062,0.142,-20.264,0.671,42.236
0.149,-1.063,0.151,-18.738,5.005,41.992
0.175,-1.072,0.152,-16.907,9.766,40.466
0.207,-1.073,0.156,-15.503,14.16,38.757
0.241,-1.07,0.164,-14.526,17.273,37.292
0.275,-1.068,0.17,-13.977,19.348,37.231
0.297,-1.07,0.172,-14.343,19.836,39.001
0.31,-1.066,0.171,-15.686,18.616,42.542
0.319,-1.067,0.172,-17.395,16.418,47.607
0.332,-1.073,0.175,-19.714,13.733,52.734
0.333,-1.078,0.177,-21.179,11.353,57.068
0.324,-1.073,0.173,-22.156,9.277,60.425
0.325,-1.07,0.177,-22.705,7.996,63.049
0.331,-1.067,0.182,-22.766,7.202,65.002
0.342,-1.064,0.19,-22.644,6.775,66.956
0.354,-1.056,0.194,-22.034,6.287,68.604
0.364,-1.052,0.199,-21.606,5.615,70.129
0.378,-1.051,0.207,-20.874,4.822,71.899
0.389,-1.051,0.215,-20.264,3.662,74.036
0.395,-1.054,0.216,-20.081,2.38,76.416
0.416,-1.066,0.219,-20.874,1.343,78.735
0.43,-1.077,0.216,-22.461,1.038,80.688
0.427,-1.076,0.209,-24.841,1.587,82.764
0.427,-1.066,0.208,-27.161,3.906,85.693
0.432,-1.056,0.208,-29.053,6.958,88.867
0.442,-1.044,0.217,-29.724,10.681,91.736
0.461,-1.041,0.223,-30.273,14.954,93.689
0.474,-1.031,0.225,-30.457,18.616,94.727
0.481,-1.011,0.228,-30.151,21.729,95.215
0.489,-1.0,0.23,-29.358,24.231,96.13
-1.87,-0.749,-0.65,5.371,-113.525,-31.433
-1.92,-0.788,-0.745,17.639,-87.28,-88.074
-1.825,-0.956,-0.72,43.64,-51.636,-154.297
-1.661,-1.204,-0.609,74.951,-21.118,-223.145
-1.413,-1.382,-0.463,102.112,-5.188,-288.269
-1.109,-1.562,-0.369,125.366,-4.15,-342.224
-0.759,-1.75,-0.267,148.437,-13.306,-383.057
-0.418,-1.889,-0.16,170.41,-31.25,-412.292
-0.151,-1.986,-0.075,193.726,-56.946,-435.547
0.052,-2.089,-0.01,220.459,-86.304,-455.811
0.213,-2.214,0.025,250.305,-115.173,-473.511
0.347,-2.366,0.015,281.067,-140.93,-486.755
0.45,-2.534,0.039,311.646,-161.621,-494.69
0.677,-2.899,0.187,334.839,-177.429,-495.361
1.388,-3.39,0.449,331.36,-190.918,-474.731
1.946,-3.414,0.637,295.898,-200.745,-421.143
1.73,-3.071,0.643,256.042,-231.628,-376.526
1.318,-2.823,0.55,232.727,-260.315,-347.656
1.32,-2.879,0.561,224.609,-264.038,-307.19
1.321,-2.832,0.641,211.914,-253.235,-261.719
1.181,-2.669,0.788,199.158,-235.901,-231.079
1.052,-2.563,0.936,200.623,-215.088,-218.506
0.815,-2.54,1.018,214.05,-186.646,-221.252
0.76,-2.577,1.176,222.656,-131.287,-237.366
1.019,-2.607,1.418,225.708,-60.791,-252.014
1.39,-2.482,1.492,224.304,-17.944,-261.108
1.556,-2.269,1.182,222.595,-23.376,-268.433
1.449,-2.159,1.115,216.736,-35.461,-263.916
1.145,-1.969,0.919,186.279,-40.161,-270.081
0.916,-1.858,0.534,156.494,-39.551,-279.175
0.862,-1.782,0.34,128.784,-20.935,-277.039
0.836,-1.658,0.284,100.586,16.296,-264.893
0.826,-1.523,0.386,72.876,67.871,-244.019
0.874,-1.393,0.47,50.781,116.028,-215.637
0.892,-1.134,0.562,35.278,152.283,-179.382
0.898,-1.085,0.627,26.611,173.645,-132.996
0.854,-1.009,0.635,20.752,178.284,-90.332
0.735,-0.92,0.584,18.555,172.424,-48.889
0.654,-0.875,0.567,21.301,162.292,-6.042
0.545,-0.854,0.512,27.222,146.545,34.241
0.512,-1.035,0.518,34.485,130.005,65.002
0.37,-0.783,0.476,38.147,110.718,81.421
0.274,-0.978,0.466,42.908,91.797,109.07
0.136,-1.198,0.4,41.687,77.881,118.042
0.014,-1.1,0.491,29.48,73.425,107.727
-0.014,-0.988,0.49,13.977,67.627,105.286
-0.025,-1.093,0.372,-0.977,65.308,103.882
-0.065,-1.069,0.377,-17.395,71.838,91.37
-0.106,-0.935,0.401,-33.203,74.707,79.468
-0.049,-1.091,0.359,-42.419,71.777,71.472
-0.009,-0.975,0.335,-50.659,68.97,53.772
0.001,-0.972,0.283,-54.749,61.768,44.373
-0.014,-1.006,0.242,-56.58,56.335,37.048
-0.053,-0.992,0.212,-57.8,53.772,28.931
-0.084,-0.958,0.194,-56.763,55.542,22.339
-0.094,-0.95,0.182,-53.04,61.157,18.494
-0.047,-0.966,0.157,-47.058,67.078,17.151
-0.0,-1.003,0.162,-39.795,72.388,17.212
0.03,-1.016,0.153,-33.63,74.036,18.066
0.048,-1.029,0.152,-29.236,73.059,20.874
0.057,-1.043,0.168,-26.245,69.641,23.743
0.062,-1.049,0.142,-24.475,63.171,25.33
0.067,-1.056,0.142,-22.888,57.312,25.818
0.067,-1.064,0.147,-21.301,50.537,26.245
0.029,-1.079,0.136,-20.935,43.945,26.55
-0.01,-1.088,0.133,-21.79,39.551,27.283
-0.035,-1.09,0.128,-23.987,37.476,27.893
-0.07,-1.082,0.116,-26.672,37.964,28.32
-0.115,-1.068,0.104,-29.663,40.955,29.114
-0.122,-1.055,0.099,-33.081,46.814,29.968
-0.102,-1.04,0.095,-36.743,54.321,30.457
-0.071,-1.024,0.091,-39.795,61.89,29.541
-0.026,-1.009,0.096,-41.931,67.993,27.71
0.026,-0.996,0.101,-43.213,71.106,25.208
0.086,-0.986,0.117,-43.213,71.167,21.912
0.143,-0.972,0.114,-42.603,67.81,18.677
0.207,-0.989,0.121,-40.588,62.744,16.907
0.291,-1.017,0.142,-37.781,55.481,16.052
0.366,-1.043,0.158,-34.912,45.288,15.869
0.43,-1.075,0.181,-31.372,33.63,17.7
0.453,-1.104,0.178,-27.466,20.874,22.705
0.47,-1.145,0.181,-25.33,10.071,30.396
0.484,-1.167,0.187,-24.231,1.526,39.368
0.482,-1.179,0.18,-24.475,-5.432,49.255
0.471,-1.189,0.177,-25.94,-11.108,60.303
0.46,-1.206,0.173,-27.71,-15.808,70.984
0.454,-1.224,0.172,-29.907,-19.47,80.566
0.445,-1.238,0.168,-32.776,-21.362,89.661
0.429,-1.253,0.161,-35.217,-21.912,97.778
0.438,-1.26,0.182,-37.842,-20.508,104.858
0.444,-1.265,0.183,-39.795,-19.226,110.901
0.442,-1.272,0.192,-41.443,-17.944,116.699
0.441,-1.277,0.19,-43.396,-16.846,122.192
0.436,-1.278,0.186,-46.021,-15.503,127.991
0.434,-1.271,0.182,-48.462,-13.916,133.24
0.44,-1.27,0.181,-50.415,-12.146,138.367
0.448,-1.263,0.179,-52.185,-10.132,142.578
0.449,-1.25,0.174,-53.467,-8.362,146.179
0.453,-1.235,0.169,-53.833,-6.226,148.865
0.458,-1.214,0.171,-53.101,-3.052,151.123
0.473,-1.189,0.181,-51.88,-0.122,153.076
0.492,-1.172,0.191,-50.354,2.502,154.48
0.492,-1.152,0.198,-49.866,5.249,155.945
0.491,-1.124,0.197,-49.561,7.751,157.715
0.489,-1.089,0.199,-48.706,10.986,159.424
0.49,-1.046,0.2,-47.485,15.015,161.072
0.516,-1.022,0.206,-45.959,18.738,161.804
0.524,-1.002,0.205,-44.983,22.217,161.743
0.488,-0.968,0.192,-44.25,25.269,160.034
0.455,-0.933,0.181,-43.152,30.212,157.227
0.435,-0.9,0.166,-41.809,38.025,154.297
0.446,-0.866,0.16,-40.649,47.058,150.818
0.505,-0.843,0.161,-38.818,56.58,145.63
0.562,-0.831,0.167,-37.048,64.209,139.832
0.617,-0.831,0.181,-36.255,69.397,135.62
0.675,-0.802,0.19,-36.316,70.801,134.033
0.74,-0.781,0.2,-36.56,67.078,134.949
0.791,-0.769,0.21,-36.865,59.509,137.878
0.791,-0.735,0.205,-36.804,49.194,140.625
-2.568,-0.713,-0.448,21.484,-130.432,3.357
-2.926,-0.909,-0.555,52.856,-108.459,-49.561
-3.167,-1.252,-0.618,95.093,-73.242,-123.779
-3.262,-1.668,-0.691,139.587,-36.377,-220.032
-3.176,-2.102,-0.746,182.556,-3.357,-327.576
-2.898,-2.593,-0.722,219.604,24.231,-428.04
-2.421,-3.024,-0.64,245.056,41.687,-509.46
-1.792,-3.366,-0.48,262.146,49.438,-564.819
-1.145,-3.57,-0.295,274.414,40.71,-596.313
-0.608,-3.66,-0.164,287.964,15.93,-616.394
-0.164,-3.737,-0.107,308.838,-13.55,-638.977
0.195,-3.862,-0.081,336.975,-40.527,-661.011
0.649,-4.0,-0.058,367.859,-62.134,-674.744
1.22,-4.0,-0.099,396.545,-69.214,-679.016
1.554,-4.0,-0.06,414.551,-61.768,-688.965
1.681,-4.0,0.255,420.532,-55.542,-694.824
1.663,-4.0,0.528,415.894,-58.899,-673.828
1.532,-4.0,0.561,388.184,-75.256,-636.047
1.337,-4.0,0.486,333.313,-79.346,-583.862
1.184,-3.92,0.458,266.663,-65.735,-521.667
1.203,-3.594,0.512,216.248,-46.814,-458.74
1.248,-3.523,0.586,182.373,-29.541,-399.78
1.271,-3.537,0.693,151.855,-18.799,-354.187
1.168,-3.704,0.722,130.92,-27.1,-324.524
1.179,-3.705,0.797,118.286,-42.542,-310.791
1.237,-3.394,0.845,113.037,-46.021,-303.04
1.122,-2.994,0.626,107.239,-39.795,-294.006
0.91,-2.762,0.462,90.576,-13.367,-283.264
0.915,-2.53,0.137,56.885,25.085,-271.484
1.012,-2.229,-0.199,13.672,83.618,-253.418
1.181,-1.85,-0.291,-31.25,146.667,-228.149
1.418,-1.386,-0.366,-66.589,190.308,-190.308
1.622,-1.406,-0.271,-82.397,218.933,-140.015
1.768,-1.178,-0.276,-80.566,216.309,-99.976
1.743,-0.994,-0.103,-60.669,204.041,-59.082
1.624,-0.826,0.02,-33.081,176.575,-19.836
1.423,-0.899,0.094,-3.784,143.433,19.897
1.179,-0.927,0.13,22.705,109.192,48.95
0.988,-0.859,0.171,44.495,75.623,74.402
0.817,-1.03,0.169,65.674,43.701,100.159
0.596,-1.047,0.284,81.055,16.479,111.023
0.379,-1.051,0.224,91.37,-10.62,117.798
0.147,-1.027,0.19,97.168,-29.968,125.671
-0.083,-1.073,0.211,98.206,-33.081,134.277
-0.273,-1.112,0.193,89.783,-28.259,136.658
-0.386,-1.1,0.177,75.5,-17.334,132.812
-0.448,-1.05,0.198,58.594,-1.099,122.62
-0.464,-1.0,0.195,41.199,14.648,109.802
-0.433,-0.964,0.193,25.818,28.931,96.924
-0.378,-0.973,0.193,14.221,39.246,84.167
-0.359,-0.881,0.199,5.981,44.983,71.228
-0.31,-0.924,0.169,2.502,46.082,63.599
-0.235,-0.992,0.16,1.831,42.48,53.894
-0.149,-1.041,0.161,2.808,37.72,43.884
-0.098,-1.07,0.166,4.089,30.884,35.889
-0.091,-1.094,0.152,6.165,23.743,31.555
-0.088,-1.127,0.126,7.446,19.47,31.006
-0.078,-1.162,0.101,7.263,19.409,32.898
-0.096,-1.18,0.064,4.822,23.071,36.682
-0.122,-1.192,0.027,1.587,29.419,42.542
-0.119,-1.209,0.01,-2.258,38.269,49.622
-0.094,-1.225,0.018,-4.822,47.668,57.617
-0.053,-1.237,0.016,-6.165,54.749,66.65
-0.061,-1.263,0.065,-6.653,58.655,75.928
-0.086,-1.286,0.071,-8.179,61.584,83.923
-0.064,-1.308,0.085,-11.841,66.711,90.881
0.009,-1.344,0.073,-17.7,69.641,97.839
0.085,-1.379,0.073,-25.513,69.397,102.966
0.158,-1.409,0.066,-34.79,64.575,107.117
0.232,-1.443,0.056,-44.678,54.81,110.596
0.29,-1.461,0.045,-55.542,41.26,114.563
0.339,-1.471,0.036,-66.162,24.048,119.568
0.359,-1.466,0.024,-75.378,2.38,125.671
0.361,-1.491,0.016,-83.496,-22.888,132.935
0.309,-1.499,-0.021,-90.82,-49.316,138.428
0.242,-1.484,-0.035,-97.778,-71.594,143.799
0.178,-1.464,-0.051,-102.6,-90.881,150.146
0.132,-1.465,-0.063,-103.76,-103.821,154.724
0.062,-1.447,-0.082,-103.577,-110.229,155.823
0.002,-1.438,-0.088,-101.746,-109.985,155.029
-0.002,-1.418,-0.091,-98.45,-103.699,152.588
0.004,-1.378,-0.083,-93.567,-91.614,149.536
0.017,-1.345,-0.071,-88.318,-75.684,146.545
0.033,-1.304,-0.047,-82.825,-58.167,143.25
0.065,-1.275,-0.023,-77.271,-41.687,141.724
0.102,-1.243,-0.018,-73.059,-29.358,141.907
0.136,-1.217,-0.001,-70.19,-19.409,142.822
0.189,-1.217,0.026,-68.115,-10.803,144.592
0.217,-1.185,0.037,-67.993,-4.7,146.79
0.19,-1.13,0.03,-68.176,0.549,149.17
0.17,-1.095,0.035,-67.322,7.812,151.917
0.181,-1.079,0.044,-66.223,16.296,153.931
0.221,-1.065,0.052,-65.247,24.597,155.151
0.274,-1.07,0.069,-66.833,34.668,156.799
0.317,-1.048,0.079,-70.496,43.823,157.776
0.373,-1.021,0.088,-73.059,49.5,159.18
0.446,-1.021,0.108,-74.219,52.307,161.621
0.547,-1.004,0.129,-74.646,51.27,162.842
0.618,-1.019,0.217,-74.829,46.204,160.095
0.616,-1.014,0.061,-73.608,32.959,158.936
0.593,-0.989,0.045,-68.665,24.353,156.799
0.543,-0.915,0.115,-64.758,24.231,152.466
0.551,-0.898,0.072,-59.57,18.982,154.968
0.555,-0.9,0.064,-56.58,18.86,156.25
0.566,-0.847,0.099,-56.03,24.78,153.564
0.61,-0.84,0.117,-56.274,29.053,150.085
0.651,-0.821,0.089,-56.824,30.945,145.508
0.64,-0.777,0.084,-55.42,32.776,139.648
0.629,-0.751,0.046,-51.514,35.583,132.324
0.611,-0.742,0.015,-45.166,43.823,125.488
0.582,-0.705,-0.011,-38.391,56.458,119.446
0.591,-0.69,-0.026,-31.128,72.693,114.197
0.638,-0.672,-0.016,-23.621,90.332,108.582
0.653,-0.631,-0.005,-16.968,104.736,104.553
0.675,-0.595,0.012,-11.108,114.319,103.088
0.735,-0.575,0.027,-5.31,117.737,102.6
0.795,-0.572,0.038,0.366,115.356,102.6
0.841,-0.567,0.042,4.7,107.178,102.539
0.853,-0.56,0.042,8.423,94.299,102.356
-2.802,-1.619,-0.309,12.878,-142.029,6.287
-3.259,-1.558,-0.688,36.377,-134.888,-61.523
-3.475,-1.75,-0.703,95.703,-105.652,-164.917
-3.775,-2.281,-0.577,172.852,-102.966,-315.918
-3.994,-3.035,-0.646,250.916,-129.395,-465.942
-4.0,-3.7,-0.536,301.208,-143.738,-575.867
-3.715,-4.0,-0.488,329.773,-140.808,-649.719
-3.013,-4.0,-0.505,352.173,-131.531,-701.721
-2.283,-4.0,-0.583,378.723,-121.46,-740.417
-1.556,-4.0,-0.704,413.574,-111.084,-771.484
-0.753,-4.0,-0.84,458.13,-89.172,-806.396
0.359,-4.0,-0.711,514.771,-50.11,-840.21
1.754,-4.0,-0.351,562.988,-13.184,-838.013
2.108,-4.0,-0.003,586.792,-13.794,-801.88
1.661,-4.0,0.377,614.685,-63.599,-763.916
1.383,-4.0,-0.012,614.136,-131.958,-704.59
1.218,-4.0,0.336,535.767,-151.489,-594.666
1.008,-4.0,0.409,441.345,-139.709,-488.098
0.808,-4.0,0.259,362.732,-127.014,-429.077
0.723,-4.0,0.463,278.259,-87.036,-387.512
0.779,-4.0,0.66,203.308,-28.687,-365.234
0.988,-4.0,0.781,153.503,29.236,-354.919
1.246,-4.0,0.754,118.958,70.923,-346.375
1.453,-4.0,0.818,90.576,101.501,-340.393
1.683,-3.573,0.565,56.03,118.225,-331.665
2.0,-2.995,0.233,8.179,132.446,-304.871
2.273,-2.275,-0.2,-34.79,143.677,-268.982
2.68,-1.397,-0.231,-61.584,154.114,-223.633
3.042,-0.87,-0.021,-53.467,146.667,-158.386
2.823,-0.764,0.002,-18.555,119.141,-90.637
2.571,-0.904,0.133,17.7,87.891,-19.104
2.211,-0.854,0.29,43.457,59.448,37.659
1.747,-0.888,0.347,60.608,25.757,96.313
1.339,-1.162,0.294,72.266,-0.305,150.391
1.009,-1.297,0.522,79.834,-14.954,182.861
0.599,-1.43,0.167,79.468,-38.269,205.566
0.406,-1.85,0.434,67.139,-36.865,205.505
0.067,-1.307,0.176,44.128,-35.95,182.983
-0.297,-1.343,0.417,21.301,-23.499,190.369
-0.701,-1.142,0.016,-8.667,-19.714,169.739
-0.569,-1.229,0.242,-39.856,-4.639,169.312
-0.677,-1.073,-0.001,-63.477,5.371,156.677
-0.648,-0.603,0.086,-82.336,19.043,114.624
-0.381,-0.686,-0.014,-83.496,2.319,91.675
-0.457,-0.768,-0.276,-71.228,-6.531,72.021
-0.315,-0.685,-0.089,-55.908,-6.042,48.401
-0.158,-0.665,-0.186,-37.842,-27.1,33.691
-0.172,-0.647,-0.243,-17.029,-45.898,27.527
-0.22,-0.719,-0.143,3.418,-58.716,28.198
-0.243,-0.84,-0.16,20.386,-74.951,29.785
-0.255,-0.944,-0.172,31.372,-83.496,31.738
-0.252,-1.063,-0.152,38.391,-84.656,34.546
-0.299,-1.1,-0.173,41.504,-82.703,37.17
-0.359,-1.148,-0.18,41.809,-71.96,43.64
-0.47,-1.177,-0.2,38.574,-55.42,50.293
-0.558,-1.216,-0.21,32.471,-31.799,58.594
-0.635,-1.23,-0.204,22.156,-4.089,67.139
-0.624,-1.26,-0.186,9.46,24.17,76.05
-0.567,-1.269,-0.173,-3.601,50.537,81.421
-0.473,-1.271,-0.132,-14.465,74.951,86.243
-0.343,-1.3,-0.066,-22.522,92.468,90.088
-0.201,-1.335,-0.0,-27.954,101.44,92.346
-0.116,-1.337,0.039,-31.555,101.929,92.224
-0.148,-1.323,0.006,-36.255,97.351,92.529
-0.163,-1.302,-0.035,-45.715,90.698,94.971
-0.157,-1.299,-0.066,-55.481,84.473,98.755
-0.163,-1.31,-0.038,-60.12,80.322,102.173
-0.158,-1.303,-0.017,-60.425,76.66,104.065
-0.109,-1.318,0.006,-58.105,73.425,105.347
-0.033,-1.35,0.033,-54.504,70.313,104.614
0.036,-1.384,0.057,-51.086,65.979,101.135
0.095,-1.412,0.076,-48.645,60.669,97.107
0.156,-1.453,0.078,-47.974,53.711,94.177
0.207,-1.487,0.073,-49.683,45.593,92.285
0.249,-1.478,0.063,-52.673,35.767,92.468
0.243,-1.533,0.036,-56.885,21.667,93.567
0.278,-1.629,0.023,-65.002,13.916,99.121
0.295,-1.588,0.031,-74.951,1.465,100.342
0.283,-1.568,-0.007,-87.097,-12.207,105.225
0.292,-1.596,-0.034,-100.281,-23.071,114.38
0.285,-1.564,-0.048,-113.831,-31.494,122.009
0.274,-1.558,-0.106,-125.366,-39.001,128.662
0.25,-1.512,-0.126,-135.01,-42.786,133.24
0.221,-1.459,-0.137,-142.639,-43.396,138.916
0.224,-1.401,-0.147,-146.851,-40.771,142.517
0.268,-1.351,-0.097,-148.987,-35.339,142.639
0.278,-1.314,-0.147,-149.536,-37.598,142.944
0.269,-1.25,-0.149,-145.508,-44.128,144.592
0.236,-1.241,-0.156,-139.16,-46.143,147.888
0.235,-1.205,-0.148,-133.667,-38.086,149.719
0.227,-1.161,-0.094,-130.676,-16.968,149.536
0.311,-1.155,-0.035,-128.418,8.301,144.775
0.476,-1.11,0.047,-122.498,27.405,141.602
0.601,-1.009,0.031,-112.244,33.997,140.076
0.614,-0.961,-0.043,-96.069,27.588,139.893
0.585,-0.936,-0.07,-74.89,18.921,140.869
0.57,-0.918,-0.086,-53.833,10.742,140.747
0.557,-0.881,-0.116,-35.4,4.15,136.414
0.541,-0.866,-0.138,-21.79,1.953,132.874
0.51,-0.859,-0.153,-15.076,3.601,132.202
0.521,-0.889,-0.135,-14.038,6.348,132.751
0.618,-0.91,-0.109,-17.822,10.071,133.118
0.734,-0.933,-0.076,-24.78,13.123,134.094
0.803,-0.93,-0.034,-32.532,11.719,134.155
0.804,-0.883,-0.005,-40.283,4.7,133.911
0.771,-0.837,0.012,-47.791,-5.798,136.108
0.756,-0.812,0.062,-55.176,-16.724,139.832
0.743,-0.764,0.098,-59.937,-25.94,141.724
0.682,-0.723,0.075,-60.303,-33.936,140.686
0.6,-0.705,0.029,-54.932,-39.246,137.878
0.6,-0.738,0.04,-45.532,-40.405,133.179
0.632,-0.734,0.042,-34.424,-39.307,125.061
0.604,-0.71,0.005,-22.034,-40.466,114.441
0.57,-0.73,-0.013,-7.751,-42.908,103.027
0.525,-0.729,-0.046,4.883,-45.41,91.37
0.479,-0.745,-0.04,15.32,-46.509,80.2
0.47,-0.759,0.015,21.729,-45.532,68.542
0.457,-0.706,0.054,22.461,-43.762,55.298
0.438,-0.635,0.052,21.24,-43.64,42.053
-1.947,-1.623,-0.504,-94.849,-249.207,36.133
-2.193,-2.244,-0.671,-133.667,-245.789,51.025
-2.281,-2.684,-0.924,-152.893,-234.07,50.354
-2.512,-2.663,-1.261,-131.226,-205.566,12.268
-2.551,-1.809,-1.279,-66.04,-160.645,-79.285
-2.17,-1.418,-0.971,50.415,-127.563,-208.557
-1.819,-1.791,-0.946,222.473,-125.427,-354.736
-1.569,-2.23,-0.819,398.071,-133.85,-484.619
-1.242,-2.904,-0.709,545.105,-129.761,-586.182
-0.858,-3.745,-0.802,660.034,-125.244,-665.222
-0.59,-4.0,-0.954,744.568,-118.286,-723.267
-0.309,-4.0,-1.104,797.729,-99.426,-755.798
0.239,-4.0,-1.048,835.083,-66.345,-764.893
0.91,-4.0,-0.801,853.821,-31.799,-742.798
1.423,-4.0,-0.42,840.149,-9.033,-706.604
1.811,-4.0,0.018,792.603,-10.254,-660.156
1.75,-4.0,0.272,701.599,-33.264,-582.153
1.532,-4.0,0.26,594.543,-73.975,-501.77
1.48,-4.0,0.142,503.418,-107.727,-419.8
1.418,-4.0,0.229,416.382,-115.906,-335.815
1.343,-4.0,0.489,337.708,-108.459,-271.912
1.329,-4.0,0.76,283.63,-93.933,-234.314
1.252,-3.804,0.88,254.272,-72.632,-213.684
1.036,-3.461,0.88,231.384,-36.987,-202.698
0.845,-3.129,0.745,196.167,14.038,-197.571
0.824,-2.778,0.511,145.264,75.745,-191.162
0.954,-2.422,0.209,85.022,137.878,-177.673
1.13,-2.118,0.057,24.292,192.627,-152.283
1.365,-1.717,-0.19,-26.062,222.473,-121.277
1.519,-1.385,-0.353,-55.603,234.253,-78.613
1.609,-1.224,-0.279,-61.157,237.0,-25.452
1.655,-1.063,-0.262,-52.307,222.534,16.052
1.589,-1.024,-0.117,-30.212,201.538,49.133
1.452,-1.017,-0.063,-4.517,172.058,68.481
1.282,-0.965,0.035,18.25,143.311,76.416
1.162,-0.978,0.141,36.011,108.948,84.045
0.961,-0.897,0.041,50.842,70.129,92.102
0.77,-1.081,0.094,65.552,45.715,102.661
0.529,-1.269,0.022,71.777,21.973,96.924
0.442,-1.249,0.156,72.632,11.963,84.9
0.312,-0.98,0.084,65.613,-5.127,75.623
0.12,-0.995,-0.0,56.946,-13.367,88.44
0.295,-1.355,0.003,45.898,-7.751,103.943
-0.258,-0.99,-0.116,29.907,-2.136,120.667
-0.345,-0.983,-0.236,10.864,21.912,96.619
0.091,-0.919,-0.056,2.136,43.823,100.769
-0.035,-1.077,-0.063,-6.653,54.199,98.755
-0.009,-0.914,-0.037,-9.827,56.702,92.834
0.114,-0.971,-0.029,-6.958,41.199,96.313
0.1,-0.971,-0.064,-1.831,17.578,92.224
0.005,-0.961,-0.054,5.859,-4.211,87.708
-0.153,-0.999,-0.121,12.573,-21.851,82.764
-0.31,-1.004,-0.152,16.968,-28.503,75.134
-0.408,-0.996,-0.187,19.165,-24.658,66.589
-0.403,-1.072,-0.228,19.47,-12.451,55.176
-0.435,-0.978,-0.193,17.212,2.991,46.143
-0.36,-1.03,-0.201,13.428,14.648,36.743
-0.304,-1.085,-0.204,8.911,21.79,29.358
-0.292,-1.082,-0.199,4.089,24.963,23.865
-0.255,-1.095,-0.208,-1.648,25.635,22.339
-0.206,-1.134,-0.242,-8.789,24.475,22.4
-0.209,-1.078,-0.262,-17.029,24.78,22.339
-0.182,-1.114,-0.299,-25.94,25.33,24.231
-0.151,-1.099,-0.334,-34.973,25.391,24.353
-0.104,-1.088,-0.352,-41.748,25.635,26.489
-0.07,-1.061,-0.369,-47.607,22.4,28.137
-0.058,-1.056,-0.379,-51.086,16.174,29.724
-0.05,-1.043,-0.39,-52.856,8.301,30.273
-0.054,-1.036,-0.383,-53.162,0.244,30.334
-0.069,-1.034,-0.387,-51.331,-6.104,29.358
-0.076,-1.05,-0.392,-49.133,-10.803,27.222
-0.078,-1.057,-0.403,-48.34,-13.306,23.315
-0.061,-1.066,-0.391,-47.607,-12.878,18.921
-0.017,-1.095,-0.373,-46.448,-11.78,13.672
0.049,-1.096,-0.35,-46.509,-11.108,7.996
0.114,-1.089,-0.319,-46.143,-11.902,3.967
0.177,-1.106,-0.294,-44.495,-13.916,2.38
0.221,-1.114,-0.264,-42.419,-17.029,2.258
0.252,-1.127,-0.218,-39.429,-19.897,3.235
0.265,-1.136,-0.175,-35.522,-22.644,4.578
0.267,-1.14,-0.136,-32.776,-24.109,7.019
0.273,-1.171,-0.116,-31.86,-23.743,10.681
0.297,-1.212,-0.118,-34.241,-21.729,14.038
0.321,-1.23,-0.128,-40.283,-17.883,17.273
0.341,-1.249,-0.148,-47.852,-13.123,22.339
0.366,-1.249,-0.167,-57.556,-8.484,30.64
0.392,-1.252,-0.162,-68.176,-4.211,40.955
0.416,-1.259,-0.147,-76.233,-1.099,52.734
0.429,-1.276,-0.128,-82.031,1.587,65.247
0.424,-1.279,-0.104,-86.853,4.578,76.294
0.417,-1.285,-0.076,-91.064,7.812,86.304
0.419,-1.308,-0.064,-95.032,11.597,95.52
0.445,-1.336,-0.068,-100.22,15.625,102.844
0.469,-1.344,-0.097,-106.628,19.592,107.483
0.479,-1.336,-0.133,-114.624,23.01,111.45
0.496,-1.316,-0.165,-123.352,25.574,115.479
0.536,-1.305,-0.168,-130.371,25.757,120.117
0.542,-1.291,-0.2,-135.132,23.193,126.038
0.538,-1.257,-0.162,-138.611,20.386,132.996
0.574,-1.285,-0.148,-140.137,16.785,140.076
0.595,-1.25,-0.12,-140.686,12.451,140.808
0.59,-1.211,-0.101,-139.099,7.202,142.09
0.593,-1.213,-0.099,-135.01,1.953,145.386
0.602,-1.217,-0.103,-129.944,-2.258,147.705
0.594,-1.199,-0.108,-125.793,-4.333,149.17
0.574,-1.189,-0.109,-122.131,-3.784,151.428
0.576,-1.175,-0.107,-117.981,-0.488,153.564
0.608,-1.141,-0.1,-114.38,4.333,156.616
0.645,-1.123,-0.094,-111.511,9.583,161.987
0.646,-1.103,-0.098,-109.497,14.465,168.152
0.64,-1.064,-0.1,-107.3,19.47,173.767
0.651,-1.029,-0.094,-103.943,24.658,178.284
0.652,-1.0,-0.087,-100.525,29.785,182.007
0.651,-0.974,-0.077,-96.741,35.4,184.753
0.654,-0.943,-0.068,-92.529,40.955,186.279
0.682,-0.921,-0.063,-88.928,46.265,186.89
0.72,-0.902,-0.061,-86.548,49.805,186.951
0.719,-0.869,-0.073,-84.839,51.575,187.134
0.732,-0.848,-0.086,-83.74,52.795,188.171
-1.128,-1.681,-0.936,-58.044,-250.549,42.664
-1.262,-2.089,-1.081,-60.425,-276.855,52.002
-1.305,-2.463,-1.177,-52.49,-292.725,40.161
-1.238,-2.609,-1.242,-31.433,-300.598,3.418
-1.148,-2.39,-1.184,9.033,-302.612,-54.688
-1.093,-1.955,-0.964,82.825,-303.223,-129.7
-1.011,-1.707,-0.742,195.801,-307.8,-212.769
-1.004,-1.634,-0.59,336.243,-306.824,-294.006
-0.958,-1.764,-0.422,483.887,-288.635,-366.882
-0.849,-2.126,-0.438,629.761,-258.728,-430.542
-0.824,-2.628,-0.576,769.165,-221.13,-492.249
-0.721,-3.195,-0.596,892.639,-174.683,-545.837
-0.26,-3.99,-0.571,1007.69,-130.676,-574.402
0.194,-4.0,-0.39,1103.882,-117.065,-578.247
0.251,-4.0,-0.098,1144.104,-134.949,-560.73
-0.047,-4.0,0.347,1081.055,-162.598,-518.677
0.278,-4.0,1.207,928.345,-136.78,-437.805
0.691,-4.0,1.694,785.339,-87.097,-310.303
0.995,-4.0,1.106,661.804,-101.257,-229.248
1.175,-4.0,0.557,540.527,-162.17,-175.232
0.905,-4.0,0.971,390.137,-213.379,-123.779
0.455,-3.997,1.229,276.978,-204.895,-100.586
0.317,-3.745,1.121,229.37,-132.08,-93.018
0.383,-3.49,1.019,195.19,-43.701,-100.22
0.683,-3.095,1.015,158.875,30.701,-120.972
1.048,-2.725,1.033,123.474,86.914,-134.521
1.256,-2.344,0.98,91.614,122.192,-133.057
1.408,-2.064,0.942,67.749,139.343,-121.582
1.518,-1.789,0.799,49.805,139.221,-101.746
1.546,-1.469,0.701,44.312,130.981,-68.237
1.476,-1.221,0.72,45.593,120.667,-27.405
1.37,-1.148,0.694,52.979,102.478,15.015
1.188,-1.161,0.587,58.716,81.604,51.575
0.907,-1.18,0.615,58.411,71.777,85.022
0.579,-1.212,0.573,51.941,61.646,117.92
0.278,-1.292,0.529,38.818,52.856,145.447
0.066,-1.357,0.455,19.348,49.805,162.781
-0.083,-1.383,0.43,-2.747,53.772,169.8
-0.198,-1.36,0.314,-28.381,59.021,169.495
-0.226,-1.274,0.289,-54.993,65.247,163.147
-0.207,-1.221,0.193,-80.872,67.749,152.71
-0.132,-1.179,0.069,-101.318,65.43,136.475
-0.072,-1.03,-0.031,-116.577,62.866,115.784
-0.07,-0.864,-0.094,-122.131,56.458,100.281
-0.059,-0.816,-0.141,-119.568,45.532,91.187
-0.0,-0.816,-0.219,-112.061,30.64,79.529
0.008,-0.781,-0.192,-101.44,16.785,66.65
-0.152,-0.66,-0.228,-88.623,3.235,60.547
-0.151,-0.758,-0.244,-72.205,-5.859,65.552
-0.131,-0.814,-0.328,-52.124,-16.968,61.89
-0.146,-0.858,-0.235,-35.583,-16.174,53.284
-0.136,-0.869,-0.208,-21.301,-15.32,44.434
-0.106,-0.911,-0.23,-9.155,-14.526,36.438
-0.05,-0.973,-0.214,0.122,-10.925,28.625
-0.035,-0.997,-0.229,5.493,-9.46,20.142
-0.088,-1.014,-0.26,6.042,-8.545,14.954
-0.138,-1.037,-0.273,1.831,-5.859,14.282
-0.146,-1.071,-0.292,-6.531,-2.441,16.296
-0.13,-1.123,-0.312,-16.113,2.441,18.555
-0.107,-1.162,-0.32,-25.757,9.277,19.836
-0.073,-1.18,-0.313,-35.339,17.029,19.836
-0.029,-1.188,-0.3,-43.884,23.56,20.203
-0.034,-1.15,-0.305,-50.537,28.503,20.935
-0.067,-1.109,-0.299,-58.289,33.508,24.414
-0.091,-1.116,-0.321,-66.162,36.072,29.419
-0.108,-1.133,-0.326,-72.083,39.49,32.898
-0.121,-1.123,-0.293,-75.195,44.739,34.424
-0.115,-1.112,-0.257,-75.012,49.866,34.302
-0.111,-1.1,-0.21,-73.364,54.016,32.593
-0.124,-1.098,-0.163,-70.251,56.335,29.297
-0.109,-1.124,-0.142,-65.552,58.228,24.536
-0.041,-1.156,-0.159,-62.805,59.814,17.944
0.002,-1.164,-0.155,-62.5,61.096,10.681
0.032,-1.175,-0.159,-61.829,61.279,5.005
0.07,-1.177,-0.178,-61.462,61.218,0.854
0.12,-1.176,-0.212,-64.27,61.035,-1.16
0.141,-1.179,-0.237,-69.214,59.265,-0.427
0.141,-1.173,-0.245,-72.571,56.824,2.075
0.142,-1.147,-0.237,-74.219,54.749,5.615
0.151,-1.119,-0.215,-73.547,53.772,9.888
0.144,-1.096,-0.186,-71.472,53.528,14.282
0.133,-1.111,-0.169,-67.627,54.81,18.005
0.167,-1.134,-0.161,-64.575,56.335,20.264
0.2,-1.133,-0.158,-63.11,57.495,21.362
0.255,-1.134,-0.182,-63.293,57.19,21.79
0.322,-1.123,-0.199,-65.918,53.284,21.912
0.356,-1.095,-0.191,-68.054,45.776,23.56
0.364,-1.056,-0.167,-67.383,35.095,26.489
0.357,-1.033,-0.132,-63.904,22.339,30.945
0.338,-1.051,-0.106,-58.472,8.667,35.95
0.289,-1.063,-0.083,-52.307,-2.686,39.429
0.234,-1.081,-0.07,-47.058,-9.644,41.199
0.206,-1.1,-0.084,-44.922,-12.939,40.894
0.196,-1.088,-0.106,-46.326,-13.123,38.391
0.197,-1.096,-0.124,-47.791,-10.437,35.217
0.231,-1.116,-0.162,-49.927,-7.629,31.006
0.28,-1.11,-0.178,-54.138,-5.066,27.222
0.344,-1.102,-0.164,-55.908,-4.578,24.902
0.428,-1.116,-0.138,-55.664,-7.568,23.865
0.49,-1.132,-0.11,-52.734,-16.052,23.987
0.521,-1.137,-0.062,-48.035,-28.564,24.78
0.554,-1.162,0.001,-42.603,-42.786,26.489
0.529,-1.186,0.038,-37.109,-57.312,29.785
0.443,-1.197,0.069,-32.837,-68.726,33.264
0.368,-1.209,0.099,-30.457,-73.12,36.621
0.308,-1.228,0.108,-30.273,-70.251,40.833
0.236,-1.242,0.09,-33.508,-61.279,45.593
0.164,-1.258,0.055,-40.466,-46.265,49.438
0.15,-1.273,0.037,-51.697,-22.949,52.246
0.2,-1.265,0.013,-64.88,3.784,54.382
0.271,-1.222,-0.003,-78.064,28.076,55.847
0.354,-1.188,0.012,-87.83,45.41,58.716
0.412,-1.164,0.009,-94.177,54.993,63.721
0.446,-1.109,0.047,-98.511,59.937,69.214
0.493,-1.07,0.079,-100.22,60.059,75.562
0.527,-1.071,0.106,-99.487,55.786,81.97
0.504,-1.05,0.106,-98.511,49.377,87.402
0.49,-1.041,0.122,-97.839,44.189,93.262
0.489,-1.041,0.123,-99.365,41.504,100.22
-1.487,-0.941,-1.311,44.006,-272.583,66.711
-1.645,-1.247,-1.482,83.74,-253.235,49.5
-1.772,-1.656,-1.659,143.066,-228.882,18.982
-1.858,-1.993,-1.834,215.698,-205.383,-27.893
-1.866,-2.126,-1.91,295.349,-183.838,-94.849
-1.739,-2.18,-1.8,384.094,-163.33,-179.077
-1.418,-2.487,-1.647,482.788,-145.508,-268.311
-0.927,-2.923,-1.483,578.247,-130.493,-341.614
-0.26,-3.387,-1.192,653.503,-120.117,-387.878
0.46,-3.7,-0.898,711.487,-117.981,-400.94
0.863,-3.905,-0.719,754.944,-128.296,-389.282
0.973,-4.0,-0.443,782.104,-147.583,-365.54
1.169,-4.0,-0.174,788.879,-167.725,-332.886
1.223,-4.0,-0.071,784.973,-175.781,-295.959
1.268,-4.0,0.151,774.536,-168.396,-269.531
1.594,-4.0,0.542,753.113,-156.067,-239.99
1.659,-4.0,0.798,722.351,-163.208,-208.13
1.422,-4.0,0.951,680.786,-185.608,-187.561
1.083,-4.0,1.017,629.944,-203.369,-167.542
0.674,-4.0,1.072,579.956,-205.078,-153.87
0.381,-3.944,1.223,535.339,-179.26,-151.733
0.276,-3.751,1.341,498.352,-132.568,-153.442
0.273,-3.668,1.368,463.379,-78.674,-155.945
0.419,-3.554,1.342,418.701,-25.757,-158.325
0.608,-3.308,1.251,362.793,18.921,-156.189
0.754,-3.017,1.094,300.11,57.8,-147.156
0.94,-2.667,0.96,236.328,91.064,-135.986
1.104,-2.3,0.77,179.077,115.601,-116.577
1.178,-1.917,0.766,135.681,134.277,-87.097
1.135,-1.765,0.674,106.934,139.221,-45.715
0.964,-1.663,0.627,82.397,140.015,-6.042
0.74,-1.542,0.682,58.594,144.897,31.799
0.584,-1.263,0.62,32.715,138.367,69.397
0.458,-1.396,0.526,9.888,127.93,108.215
0.238,-1.393,0.448,-10.742,121.521,126.221
0.06,-1.242,0.417,-27.039,117.92,136.169
0.043,-1.3,0.412,-40.1,111.511,143.066
0.1,-1.223,0.285,-55.054,96.069,136.475
0.073,-1.205,0.118,-68.604,82.825,130.737
-0.025,-1.149,0.173,-81.36,80.994,123.901
-0.15,-1.082,-0.015,-94.055,61.707,117.371
-0.21,-1.035,-0.107,-100.22,45.166,107.971
-0.229,-0.982,-0.169,-98.694,33.813,97.717
-0.265,-0.904,-0.221,-90.454,27.161,86.67
-0.239,-0.882,-0.205,-77.209,27.405,77.515
-0.175,-0.856,-0.204,-62.317,26.611,67.993
-0.143,-0.914,-0.231,-46.997,24.048,60.059
-0.223,-0.963,-0.253,-36.011,22.827,53.223
-0.412,-0.957,-0.329,-31.86,21.851,50.781
-0.544,-0.955,-0.418,-34.668,24.841,53.284
-0.541,-0.971,-0.439,-37.659,36.194,54.993
-0.478,-1.009,-0.422,-37.476,51.819,50.964
-0.393,-1.047,-0.392,-35.583,67.871,42.236
-0.315,-1.063,-0.343,-33.813,82.031,31.494
-0.293,-1.08,-0.317,-34.241,90.942,21.179
-0.229,-1.09,-0.318,-38.696,94.604,13.123
-0.184,-1.102,-0.355,-45.349,94.849,7.202
-0.167,-1.11,-0.418,-52.612,95.215,2.991
-0.123,-1.086,-0.469,-60.913,98.816,0.061
-0.085,-1.056,-0.491,-67.505,103.943,-2.136
-0.02,-1.039,-0.484,-70.923,109.619,-3.296
0.057,-1.003,-0.483,-71.411,113.525,-4.822
0.088,-0.968,-0.438,-69.092,115.662,-6.042
0.073,-0.952,-0.366,-62.988,116.76,-5.005
0.078,-0.952,-0.351,-55.969,117.615,-3.174
0.265,-0.935,-0.406,-55.42,117.126,-3.174
0.395,-0.925,-0.422,-60.913,111.206,-4.944
0.419,-0.951,-0.367,-61.829,101.44,-2.991
0.415,-0.933,-0.366,-58.838,87.036,2.441
0.354,-0.912,-0.347,-54.443,73.792,10.986
0.216,-0.938,-0.297,-51.147,65.369,23.376
0.074,-0.972,-0.271,-48.523,60.852,36.011
-0.042,-1.0,-0.241,-46.692,64.026,46.57
-0.137,-1.025,-0.185,-44.983,76.66,54.749
-0.189,-1.039,-0.114,-44.678,95.642,59.692
-0.19,-1.068,-0.066,-45.654,115.173,59.57
-0.123,-1.121,-0.034,-48.34,134.399,54.81
0.003,-1.148,-0.03,-53.833,151.001,46.387
0.142,-1.162,-0.024,-60.974,162.598,36.682
0.253,-1.175,-0.005,-66.223,166.687,28.809
0.347,-1.173,0.021,-68.726,162.109,23.01
0.434,-1.172,0.067,-68.359,150.024,20.691
0.471,-1.174,0.101,-65.613,132.751,22.766
0.475,-1.194,0.137,-62.256,113.22,28.259
0.474,-1.213,0.155,-59.875,91.98,35.522
0.455,-1.24,0.146,-59.753,71.411,43.762
0.409,-1.253,0.121,-62.378,54.993,51.575
0.366,-1.283,0.105,-66.284,43.884,58.655
0.321,-1.289,0.083,-71.35,37.109,63.904
0.303,-1.303,0.072,-75.562,35.4,67.81
0.308,-1.321,0.073,-79.59,36.682,69.58
0.32,-1.327,0.074,-84.839,38.33,69.031
0.325,-1.329,0.075,-90.881,39.185,67.749
0.355,-1.332,0.089,-96.558,38.33,67.505
0.39,-1.321,0.095,-101.563,34.912,68.787
0.402,-1.301,0.078,-106.323,29.236,71.594
0.406,-1.269,0.058,-109.924,23.071,77.148
0.427,-1.235,0.036,-113.586,17.7,85.083
0.447,-1.216,0.013,-116.821,13.428,94.666
0.462,-1.209,-0.005,-119.873,10.803,104.858
0.491,-1.208,-0.011,-122.192,9.888,113.403
0.546,-1.207,-0.014,-123.108,10.132,119.629
0.574,-1.186,-0.026,-122.742,10.132,123.84
0.58,-1.161,-0.028,-121.887,11.292,128.601
0.606,-1.146,-0.01,-119.629,12.634,134.155
0.629,-1.126,-0.003,-116.211,14.038,141.052
0.62,-1.111,-0.01,-112.0,15.869,147.522
0.615,-1.107,-0.01,-106.812,20.02,153.259
0.614,-1.09,-0.012,-101.563,26.917,158.081
0.604,-1.057,-0.009,-96.741,34.912,162.415
0.63,-1.038,0.008,-91.675,43.335,167.114
0.665,-1.025,0.019,-87.341,50.476,171.997
0.682,-1.011,0.026,-84.473,55.664,176.88
0.708,-1.004,0.031,-81.848,59.998,181.58
0.738,-0.992,0.029,-79.285,64.27,185.608
0.767,-0.962,0.041,-77.087,67.932,189.514
0.814,-0.934,0.058,-75.867,69.885,193.542
0.842,-0.903,0.067,-75.5,69.458,197.998
0.841,-0.858,0.066,-75.195,67.627,201.538
-1.489,-1.69,-0.814,-18.494,-141.541,-52.307
-1.724,-1.667,-0.813,-10.864,-121.155,-92.041
-1.784,-1.688,-0.748,11.353,-95.764,-141.296
-1.717,-1.861,-0.722,50.293,-77.576,-203.125
-1.628,-2.02,-0.721,94.543,-69.763,-274.048
-1.419,-2.137,-0.597,136.597,-67.932,-344.421
-1.084,-2.29,-0.435,173.035,-73.059,-400.208
-0.714,-2.44,-0.305,202.637,-84.9,-441.101
-0.356,-2.545,-0.18,222.961,-100.891,-470.398
-0.024,-2.644,-0.031,236.328,-118.713,-490.295
0.25,-2.728,0.057,246.765,-128.784,-500.732
0.474,-2.703,0.214,255.554,-121.704,-506.165
0.689,-2.552,0.505,263.672,-103.882,-508.484
0.861,-2.358,0.74,278.687,-96.619,-506.714
0.824,-2.302,0.775,301.086,-103.394,-501.648
0.676,-2.446,0.778,321.472,-107.3,-498.718
0.544,-2.643,0.705,335.144,-100.83,-508.301
0.422,-2.687,0.608,342.834,-75.317,-526.367
0.524,-2.945,0.63,346.191,-27.405,-530.945
1.079,-3.415,0.815,334.778,18.555,-520.203
2.077,-3.881,1.214,299.988,41.87,-481.018
2.915,-3.881,1.486,252.563,13.794,-424.133
3.05,-3.258,1.357,222.778,-77.148,-374.146
2.746,-2.593,1.147,222.839,-173.889,-322.449
2.364,-2.246,1.05,237.915,-238.953,-258.301
1.922,-2.17,0.954,250.244,-276.062,-194.458
1.454,-2.194,0.75,254.272,-280.823,-146.24
1.083,-2.187,0.623,246.582,-245.667,-116.821
0.853,-2.113,0.547,227.539,-181.946,-98.511
0.749,-2.073,0.551,203.613,-104.004,-86.426
0.732,-1.982,0.525,179.321,-26.917,-78.369
0.741,-1.825,0.495,156.25,42.419,-72.937
0.766,-1.686,0.463,135.376,102.234,-65.491
0.787,-1.571,0.423,114.197,146.24,-53.772
0.782,-1.442,0.38,90.637,175.11,-38.391
0.784,-1.305,0.309,66.284,188.049,-19.226
0.769,-1.19,0.298,44.983,187.988,1.038
0.717,-1.01,0.259,28.381,173.767,20.691
0.629,-0.917,0.226,18.372,150.757,45.166
0.505,-0.957,0.195,15.015,123.84,67.383
0.364,-1.005,0.171,15.808,94.727,79.407
0.212,-0.975,0.085,14.893,67.871,84.778
0.097,-0.945,0.082,11.353,48.828,88.257
0.029,-0.984,0.026,7.385,32.532,89.355
-0.027,-0.983,-0.026,3.052,19.043,82.642
-0.097,-0.956,-0.053,0.244,10.62,74.097
-0.158,-0.932,-0.084,-0.427,5.676,66.162
-0.207,-0.944,-0.09,0.122,4.944,60.181
-0.218,-0.967,-0.109,1.587,5.493,53.894
-0.23,-0.951,-0.118,2.136,6.409,47.119
-0.255,-0.946,-0.104,2.075,7.019,43.091
-0.26,-0.964,-0.109,2.075,6.042,40.833
-0.254,-0.979,-0.114,2.502,4.822,39.368
-0.257,-0.994,-0.117,1.953,4.211,38.33
-0.244,-1.016,-0.119,1.465,3.723,36.438
-0.246,-1.026,-0.134,0.488,3.54,33.691
-0.259,-1.027,-0.143,-2.625,4.089,31.067
-0.23,-1.047,-0.162,-7.08,4.211,28.381
-0.194,-1.06,-0.184,-11.597,3.235,25.146
-0.172,-1.07,-0.186,-16.724,0.977,22.156
-0.134,-1.089,-0.173,-20.569,-3.54,19.775
-0.107,-1.07,-0.192,-22.461,-9.705,17.578
-0.073,-1.072,-0.19,-22.827,-15.503,16.541
-0.058,-1.056,-0.181,-21.973,-22.461,15.137
-0.068,-1.043,-0.189,-19.409,-28.687,15.32
-0.09,-1.048,-0.191,-16.907,-31.738,16.968
-0.118,-1.082,-0.192,-14.648,-31.982,19.226
-0.15,-1.105,-0.202,-13.489,-29.48,21.301
-0.157,-1.114,-0.204,-14.832,-23.926,23.132
-0.137,-1.123,-0.208,-17.578,-17.029,23.987
-0.107,-1.119,-0.2,-21.545,-9.766,23.804
-0.06,-1.115,-0.183,-25.391,-3.723,23.315
-0.013,-1.119,-0.169,-28.198,0.305,22.583
0.029,-1.11,-0.154,-31.677,2.014,22.522
0.063,-1.088,-0.146,-34.973,1.465,22.522
0.034,-1.041,-0.138,-38.086,-0.61,23.499
-0.025,-1.022,-0.136,-40.161,-2.502,26.855
-0.039,-1.051,-0.147,-41.321,-3.601,30.762
-0.033,-1.084,-0.155,-42.297,-2.869,33.386
-0.03,-1.102,-0.148,-43.64,-0.549,34.18
0.001,-1.117,-0.13,-44.556,2.441,33.325
0.052,-1.129,-0.099,-43.945,4.517,30.823
0.11,-1.144,-0.057,-42.664,5.554,27.954
0.165,-1.159,-0.006,-40.283,4.761,24.658
0.214,-1.167,0.048,-37.17,2.38,22.278
0.249,-1.182,0.094,-33.997,-1.221,21.362
0.268,-1.219,0.102,-32.227,-5.432,22.217
0.269,-1.253,0.091,-35.461,-8.911,24.719
0.263,-1.285,0.083,-43.518,-10.071,29.297
0.264,-1.305,0.071,-55.054,-9.827,36.255
0.289,-1.317,0.073,-69.763,-7.446,45.898
0.308,-1.333,0.082,-87.769,-2.014,60.242
0.363,-1.319,0.097,-108.093,5.127,77.698
0.335,-1.428,0.034,-129.822,11.169,97.961
0.338,-1.421,0.165,-158.142,27.832,122.925
0.302,-1.461,0.029,-182.556,38.147,146.851
0.268,-1.429,-0.027,-201.294,56.396,164.795
0.288,-1.349,-0.056,-212.769,81.421,182.434
0.363,-1.285,-0.067,-213.867,109.924,195.496
0.515,-1.197,-0.042,-205.139,135.62,202.087
0.514,-1.136,-0.079,-186.829,145.691,201.66
0.502,-1.104,-0.034,-165.161,148.682,196.655
0.615,-1.119,0.011,-146.912,154.907,192.505
0.675,-1.098,0.06,-132.141,159.912,188.416
0.719,-1.061,0.082,-117.92,157.288,184.265
0.78,-1.065,0.068,-103.088,142.273,180.908
0.829,-1.087,0.052,-91.919,122.925,179.871
0.839,-1.082,0.021,-84.412,103.271,179.749
0.841,-1.057,-0.002,-77.698,85.205,177.551
0.835,-1.063,-0.005,-70.313,68.97,173.767
0.812,-1.053,-0.017,-65.308,54.016,169.922
0.769,-1.044,-0.041,-61.707,41.077,167.114
0.727,-1.019,-0.063,-58.594,31.738,165.039
0.691,-0.98,-0.062,-55.359,24.963,163.025
0.705,-0.933,-0.038,-49.194,20.264,158.936
0.725,-0.9,-0.012,-41.504,15.381,152.161
0.685,-0.863,-0.012,-33.264,8.362,143.372
0.673,-0.856,-0.008,-24.109,0.793,135.254
0.693,-0.881,-0.023,-17.09,-5.859,128.357
-1.841,-1.003,-1.062,-22.339,-22.339,63.721
-2.101,-1.174,-1.312,-20.874,17.212,33.386
-1.936,-1.147,-1.455,-0.732,57.556,-14.465
-1.667,-1.341,-1.412,54.199,86.304,-72.083
-1.573,-1.481,-1.304,133.362,84.167,-157.959
-1.396,-1.719,-1.141,219.238,47.241,-260.986
-1.222,-2.094,-0.996,305.969,-8.301,-350.952
-1.07,-2.481,-0.959,382.202,-62.439,-416.321
-0.9,-2.831,-1.025,442.627,-107.788,-458.618
-0.755,-3.14,-1.05,489.807,-137.878,-482.849
-0.657,-3.388,-1.034,526.428,-149.17,-497.62
-0.564,-3.632,-1.017,554.565,-139.954,-507.507
-0.496,-3.96,-0.914,574.28,-112.549,-512.573
-0.406,-4.0,-0.732,583.313,-72.693,-516.235
-0.154,-4.0,-0.561,580.75,-26.917,-520.569
0.261,-4.0,-0.308,564.575,22.095,-515.686
0.56,-4.0,-0.067,527.893,59.998,-512.024
0.735,-4.0,0.077,469.666,75.439,-522.705
0.981,-4.0,0.414,416.26,90.21,-509.766
1.125,-4.0,0.506,386.23,87.708,-485.413
1.157,-4.0,0.5,365.784,71.899,-462.646
1.141,-4.0,0.472,343.994,53.833,-439.331
1.106,-4.0,0.473,322.144,40.039,-421.509
1.041,-4.0,0.393,300.415,33.447,-407.532
0.965,-3.967,0.271,275.269,44.678,-394.47
0.937,-3.72,0.159,239.807,71.228,-379.089
1.11,-3.285,-0.168,190.796,98.633,-358.765
1.327,-2.927,-0.319,143.86,132.874,-321.777
1.52,-2.523,-0.269,109.497,161.804,-278.198
1.572,-2.089,-0.451,84.351,158.752,-234.924
1.838,-1.874,-0.406,79.102,143.555,-193.359
1.876,-1.556,-0.308,87.646,132.263,-148.682
1.834,-1.403,-0.262,102.295,107.239,-108.765
1.707,-1.322,-0.166,118.225,81.787,-73.853
1.662,-1.147,-0.049,132.08,50.537,-45.349
1.544,-1.17,-0.006,143.311,16.357,-17.517
1.309,-1.252,0.093,150.452,-13.367,5.737
1.016,-1.255,0.073,146.179,-44.922,29.968
0.585,-1.225,0.047,134.46,-65.918,57.251
0.51,-1.42,0.013,117.432,-72.083,85.388
0.363,-1.498,0.029,97.778,-57.312,106.018
-0.024,-1.257,0.015,70.74,-45.044,131.287
-0.116,-1.367,0.029,42.053,-33.691,140.991
-0.158,-1.107,-0.14,10.742,-26.367,142.212
-0.172,-1.08,-0.14,-10.62,-5.554,156.25
-0.131,-1.133,-0.131,-25.452,9.46,163.818
-0.099,-1.019,-0.197,-35.767,12.39,159.424
-0.126,-0.972,-0.265,-37.17,9.888,149.231
-0.161,-0.891,-0.173,-31.86,14.282,138.489
-0.187,-0.853,-0.221,-23.071,4.7,130.432
-0.287,-0.833,-0.239,-11.719,-4.517,118.652
-0.345,-0.828,-0.264,1.404,-10.437,105.896
-0.348,-0.85,-0.266,14.709,-14.221,91.919
-0.35,-0.857,-0.305,26.855,-17.151,77.881
-0.332,-0.903,-0.289,37.354,-16.602,62.866
-0.304,-0.911,-0.289,45.105,-16.418,47.363
-0.294,-0.905,-0.285,50.415,-15.259,36.621
-0.283,-0.927,-0.268,52.612,-12.024,30.334
-0.276,-0.913,-0.258,50.964,-9.705,26.733
-0.269,-0.949,-0.256,45.898,-7.935,26.794
-0.266,-0.976,-0.224,38.208,-5.737,27.893
-0.27,-1.038,-0.277,27.649,-4.944,29.724
-0.271,-1.056,-0.292,15.442,0.488,30.823
-0.248,-1.062,-0.332,2.686,5.31,32.715
-0.222,-1.059,-0.359,-9.766,8.972,34.912
-0.268,-1.021,-0.386,-21.545,11.719,38.33
-0.32,-0.999,-0.423,-32.043,13.794,43.457
-0.311,-1.023,-0.441,-41.077,17.273,48.035
-0.29,-1.042,-0.441,-48.035,21.545,50.72
-0.258,-1.062,-0.426,-52.795,25.391,51.27
-0.211,-1.088,-0.4,-54.077,28.198,50.415
-0.172,-1.122,-0.369,-52.673,29.663,48.584
-0.111,-1.168,-0.399,-50.903,30.518,45.532
0.027,-1.16,-0.432,-54.81,29.785,40.344
0.154,-1.174,-0.449,-61.157,23.926,34.79
0.243,-1.201,-0.454,-64.758,11.658,31.25
0.313,-1.229,-0.43,-65.308,-4.639,30.212
0.332,-1.249,-0.394,-63.538,-22.888,31.067
0.289,-1.264,-0.357,-60.547,-39.795,33.997
0.208,-1.289,-0.307,-56.641,-51.88,40.649
0.112,-1.314,-0.261,-52.734,-57.129,49.988
0.024,-1.335,-0.22,-51.147,-53.833,59.998
-0.042,-1.354,-0.229,-54.138,-42.969,69.519
-0.008,-1.426,-0.224,-62.561,-26.245,75.684
-0.017,-1.394,-0.22,-74.646,-4.883,83.069
0.019,-1.415,-0.283,-90.515,15.259,87.28
0.045,-1.401,-0.272,-106.018,34.302,89.844
0.084,-1.406,-0.249,-119.568,50.72,94.91
0.156,-1.396,-0.233,-131.47,61.401,97.9
0.176,-1.291,-0.21,-140.869,65.125,102.112
0.308,-1.411,-0.235,-147.095,59.509,104.187
0.416,-1.315,-0.153,-154.541,57.129,117.798
0.417,-1.343,-0.205,-161.621,44.678,127.197
0.352,-1.26,-0.219,-169.861,31.677,131.714
0.365,-1.354,-0.267,-176.819,20.752,142.334
0.383,-1.372,-0.29,-183.472,14.587,144.226
0.399,-1.29,-0.29,-189.209,10.01,142.639
0.422,-1.284,-0.298,-191.467,5.493,144.958
0.465,-1.258,-0.27,-191.04,3.052,145.996
0.502,-1.215,-0.239,-186.89,-4.089,146.606
0.451,-1.184,-0.231,-179.932,-21.667,145.325
0.35,-1.16,-0.318,-168.213,-40.344,142.456
0.282,-1.168,-0.269,-157.532,-40.039,140.747
0.227,-1.14,-0.238,-152.283,-21.973,139.038
0.284,-1.109,-0.229,-148.01,-1.526,137.146
0.412,-1.066,-0.209,-141.968,10.986,137.085
0.479,-1.037,-0.207,-134.644,14.099,140.198
0.495,-1.026,-0.199,-127.319,15.015,143.86
0.523,-0.999,-0.175,-121.887,17.822,147.583
0.539,-0.961,-0.173,-117.126,20.386,152.039
0.559,-0.947,-0.17,-113.342,21.545,156.494
0.559,-0.924,-0.175,-110.901,22.095,160.645
0.552,-0.896,-0.172,-108.765,22.644,164.795
0.569,-0.888,-0.157,-105.835,23.621,169.25
0.569,-0.865,-0.152,-102.844,24.719,173.645
0.562,-0.837,-0.143,-99.548,25.635,177.124
0.577,-0.826,-0.118,-95.947,28.198,180.359
0.604,-0.815,-0.104,-92.529,30.762,183.655
0.621,-0.806,-0.097,-89.722,32.41,184.875
-1.858,-1.111,-0.682,13.794,-109.985,-37.781
-1.985,-1.362,-0.859,18.372,-71.411,-64.27
-2.013,-1.525,-0.993,36.072,-30.151,-107.117
-1.907,-1.649,-1.06,72.449,7.202,-170.837
-1.691,-1.824,-1.008,125.427,33.569,-249.512
-1.339,-2.073,-0.937,189.209,38.086,-333.679
-0.924,-2.403,-0.868,253.052,16.846,-412.292
-0.564,-2.716,-0.894,309.448,-23.193,-475.037
-0.248,-2.855,-0.837,358.826,-72.693,-518.005
0.027,-3.075,-0.985,409.485,-126.221,-540.649
0.151,-3.262,-1.069,461.426,-173.401,-558.105
0.189,-3.435,-1.125,506.226,-207.52,-567.139
0.151,-3.699,-1.084,549.072,-226.013,-571.594
0.145,-3.868,-1.23,586.609,-215.271,-570.679
0.767,-4.0,-0.432,617.859,-182.068,-556.03
0.977,-4.0,-0.623,599.182,-202.515,-526.245
1.031,-4.0,-0.257,602.6,-202.515,-480.225
1.148,-4.0,0.296,586.975,-222.717,-462.585
1.534,-4.0,0.328,542.969,-273.743,-423.218
1.09,-3.905,0.11,513.611,-291.748,-334.9
0.946,-4.0,0.658,485.107,-259.399,-273.376
1.249,-4.0,0.756,450.439,-248.901,-233.704
1.304,-3.739,1.065,393.127,-234.131,-222.473
1.205,-3.065,0.983,327.698,-200.928,-200.256
1.102,-3.03,0.942,269.592,-147.888,-168.945
1.37,-2.647,0.688,200.073,-97.046,-150.696
1.207,-2.589,0.679,140.137,-54.321,-121.277
1.1,-2.158,0.622,87.158,6.592,-90.576
1.08,-1.934,0.504,55.176,50.171,-49.438
0.965,-1.775,0.546,38.574,99.182,-3.54
0.945,-1.623,0.612,31.799,139.526,33.997
0.83,-1.595,0.504,30.396,165.344,58.899
0.738,-1.29,0.729,27.039,187.622,68.97
0.748,-1.231,0.721,26.245,180.603,82.764
0.651,-1.241,0.696,28.809,159.363,92.529
0.453,-1.118,0.646,29.236,131.042,92.102
0.38,-1.097,0.593,29.297,104.614,93.811
0.244,-1.157,0.492,22.339,76.904,85.51
0.086,-0.96,0.403,9.644,48.828,71.716
-0.107,-0.95,0.291,3.723,37.598,72.571
-0.185,-0.979,0.1,-6.897,33.264,67.993
-0.123,-0.847,0.146,-19.653,41.016,60.669
-0.139,-0.935,0.137,-26.367,45.715,59.692
-0.159,-0.923,0.082,-31.799,38.696,50.842
-0.224,-0.85,0.077,-35.767,36.316,46.143
-0.234,-0.903,0.012,-36.072,36.255,46.326
-0.201,-0.923,-0.02,-36.194,39.368,41.443
-0.17,-0.93,-0.014,-35.95,42.297,34.424
-0.133,-0.946,-0.032,-34.363,41.199,27.954
-0.122,-0.959,-0.053,-32.349,37.415,22.095
-0.137,-0.971,-0.079,-30.762,32.593,17.7
-0.155,-0.973,-0.109,-29.419,27.588,14.465
-0.158,-1.0,-0.127,-28.809,24.536,11.902
-0.157,-1.05,-0.144,-29.114,22.705,9.033
-0.153,-1.053,-0.138,-30.884,21.545,5.066
-0.129,-1.063,-0.172,-33.752,20.386,2.136
-0.143,-1.074,-0.222,-37.231,20.508,1.343
-0.176,-1.083,-0.252,-40.466,23.804,2.441
-0.186,-1.091,-0.276,-44.556,29.663,2.93
-0.16,-1.084,-0.288,-48.828,36.56,3.418
-0.126,-1.092,-0.288,-52.246,43.823,4.333
-0.107,-1.081,-0.278,-54.688,50.171,6.104
-0.066,-1.111,-0.274,-56.58,54.321,8.667
-0.009,-1.104,-0.289,-60.425,54.26,9.644
0.007,-1.095,-0.294,-64.27,52.246,11.536
-0.005,-1.076,-0.29,-66.589,48.645,13.489
-0.019,-1.068,-0.325,-67.261,44.067,15.991
-0.035,-1.071,-0.358,-67.932,40.588,18.555
-0.052,-1.083,-0.368,-67.627,40.039,19.409
-0.066,-1.084,-0.359,-65.552,41.992,18.677
-0.069,-1.079,-0.331,-62.927,46.204,17.517
-0.059,-1.075,-0.291,-60.12,51.27,16.724
-0.053,-1.07,-0.248,-56.519,56.702,16.174
-0.027,-1.081,-0.203,-53.345,63.293,16.663
0.073,-1.118,-0.175,-50.72,69.58,17.151
0.202,-1.144,-0.153,-52.551,71.533,16.113
0.288,-1.16,-0.121,-56.885,68.726,15.686
0.349,-1.178,-0.084,-59.692,61.34,17.334
0.399,-1.198,-0.06,-61.89,50.171,20.386
0.401,-1.173,-0.038,-64.636,37.964,25.513
0.371,-1.218,-0.042,-65.796,26.917,34.058
0.308,-1.26,-0.033,-67.932,20.447,41.199
0.242,-1.271,-0.004,-71.472,20.02,47.058
0.202,-1.267,0.024,-75.134,23.865,53.528
0.184,-1.284,0.042,-78.43,30.396,62.012
0.185,-1.316,0.046,-83.008,38.818,70.679
0.198,-1.34,0.039,-89.233,47.974,77.637
0.218,-1.343,0.028,-97.412,57.678,83.801
0.262,-1.352,0.006,-105.835,65.918,89.355
0.322,-1.356,-0.002,-114.014,72.144,94.971
0.372,-1.342,-0.006,-121.521,75.439,101.135
0.409,-1.364,-0.008,-127.136,75.256,107.544
0.43,-1.357,0.001,-132.263,73.181,112.488
0.45,-1.351,0.003,-135.803,69.58,117.249
0.449,-1.352,-0.008,-137.817,65.918,122.742
0.443,-1.328,-0.018,-139.832,63.293,128.357
0.486,-1.309,0.01,-142.761,63.721,133.606
0.533,-1.307,0.008,-144.226,59.143,139.648
0.533,-1.301,-0.017,-143.616,47.241,145.996
0.496,-1.293,-0.01,-142.761,34.546,150.757
0.459,-1.298,-0.016,-143.25,29.968,154.175
0.39,-1.252,-0.056,-146.179,35.034,155.884
0.426,-1.23,-0.042,-151.428,55.542,154.053
0.552,-1.196,-0.019,-153.32,75.256,156.494
0.65,-1.138,-0.001,-151.611,82.581,160.217
0.676,-1.105,0.025,-146.118,77.942,164.062
0.691,-1.082,0.043,-139.221,69.946,168.03
0.699,-1.041,0.04,-132.629,64.819,171.082
0.718,-1.012,0.044,-126.221,62.561,173.645
0.759,-1.0,0.043,-119.751,61.401,176.636
0.756,-0.984,0.015,-114.502,60.791,179.932
0.743,-0.973,-0.008,-110.535,63.843,181.458
0.785,-0.958,-0.021,-107.361,72.937,183.105
0.826,-0.933,-0.039,-104.553,84.29,185.547
0.858,-0.902,-0.039,-101.807,96.497,189.026
0.877,-0.845,-0.043,-97.595,107.971,193.42
0.929,-0.798,-0.037,-91.98,117.432,198.792
1.038,-0.796,-0.026,-86.365,124.084,206.055
1.097,-0.794,-0.037,-81.97,127.991,214.111
-1.737,-2.158,-0.824,-7.324,-164.734,21.851
-2.06,-2.346,-0.937,-20.569,-144.165,-7.629
-2.113,-2.328,-0.921,-19.104,-120.972,-70.496
-1.973,-2.483,-0.966,5.493,-104.98,-160.156
-1.822,-2.562,-0.99,50.903,-95.398,-266.541
-1.59,-2.5,-0.853,116.699,-85.449,-367.676
-1.209,-2.487,-0.642,204.529,-79.041,-450.5
-0.785,-2.652,-0.388,303.528,-78.247,-512.512
-0.266,-3.005,-0.144,399.597,-87.036,-552.246
0.331,-3.702,0.273,468.994,-103.577,-561.34
0.99,-4.0,0.833,489.502,-114.807,-535.95
1.533,-3.99,1.354,466.125,-124.939,-480.713
1.865,-3.757,1.655,422.607,-151.428,-412.476
1.894,-3.324,1.824,378.357,-193.176,-358.215
1.621,-2.829,1.828,353.088,-235.107,-336.731
1.226,-2.642,1.722,353.149,-258.423,-349.06
0.793,-2.558,1.584,370.911,-248.84,-382.874
0.629,-2.552,1.577,398.804,-208.13,-412.109
0.795,-2.679,1.561,436.89,-164.062,-422.241
1.093,-2.831,1.633,476.807,-140.564,-418.457
1.376,-3.108,1.854,517.578,-147.888,-398.865
1.649,-3.375,1.966,557.373,-188.538,-366.699
1.53,-3.623,1.909,596.985,-259.583,-332.642
1.127,-3.754,1.685,630.371,-327.576,-316.101
0.585,-3.742,1.393,651.367,-367.004,-318.237
0.054,-3.726,1.108,658.875,-364.014,-328.186
-0.268,-3.745,0.923,653.931,-314.27,-334.9
-0.228,-3.753,0.844,636.108,-230.347,-334.473
0.208,-3.666,0.739,602.844,-137.085,-330.994
0.664,-3.178,0.798,558.655,-51.147,-320.068
1.226,-2.832,0.971,518.372,7.568,-284.058
1.832,-2.498,1.054,484.375,19.714,-236.572
2.138,-2.287,1.048,450.989,-4.395,-185.608
2.001,-2.03,0.981,411.072,-50.415,-133.24
1.633,-1.846,0.867,359.924,-98.083,-76.477
1.161,-1.638,0.685,294.25,-135.071,-13.489
0.687,-1.697,0.597,220.215,-150.269,54.626
0.156,-1.72,0.464,141.418,-138.733,112.61
-0.378,-1.704,0.273,60.608,-100.098,159.79
-0.717,-1.597,0.229,-18.066,-36.682,194.153
-0.893,-1.325,0.094,-89.783,27.039,223.267
-0.929,-1.462,-0.151,-148.743,93.14,252.991
-0.902,-1.26,-0.221,-197.083,161.499,251.038
-0.639,-1.038,-0.208,-228.394,204.712,255.066
-0.36,-0.952,-0.317,-242.859,213.806,260.681
-0.134,-1.124,-0.258,-236.511,199.646,258.24
0.039,-0.925,-0.221,-219.177,163.818,236.755
0.131,-0.824,-0.224,-199.036,112.732,217.896
0.072,-0.731,-0.349,-171.814,52.795,186.829
-0.23,-0.609,-0.442,-142.151,3.113,147.888
-0.366,-0.623,-0.552,-108.215,-32.41,119.202
-0.449,-0.659,-0.555,-71.777,-49.927,87.891
-0.487,-0.714,-0.636,-37.109,-52.063,59.937
-0.532,-0.733,-0.556,-9.705,-43.091,34.302
-0.458,-0.798,-0.538,12.268,-28.992,17.517
-0.311,-0.897,-0.448,28.992,-18.86,7.385
-0.211,-0.949,-0.407,36.133,-13.0,1.282
-0.168,-1.004,-0.346,35.339,-10.986,-0.183
-0.151,-1.067,-0.276,29.724,-11.414,1.221
-0.204,-1.104,-0.249,20.691,-12.146,4.7
-0.303,-1.123,-0.25,8.179,-9.888,10.925
-0.395,-1.185,-0.252,-6.531,-0.366,19.348
-0.432,-1.237,-0.215,-21.179,17.7,26.55
-0.421,-1.273,-0.193,-35.095,39.368,31.982
-0.34,-1.335,-0.161,-47.913,61.584,37.17
-0.234,-1.385,-0.135,-59.814,80.383,40.344
-0.128,-1.431,-0.105,-71.228,93.384,43.213
-0.014,-1.493,-0.077,-81.97,99.487,46.021
0.062,-1.532,-0.068,-92.529,100.769,49.133
0.109,-1.555,-0.047,-103.882,99.121,54.138
0.133,-1.586,-0.048,-115.417,93.994,61.646
0.15,-1.632,-0.059,-128.54,87.097,70.74
0.158,-1.683,-0.067,-143.005,79.285,80.322
0.141,-1.714,-0.047,-157.654,73.303,90.088
0.218,-1.752,0.06,-172.485,66.162,100.098
0.194,-1.862,-0.12,-187.866,52.368,108.887
0.157,-1.863,-0.048,-206.177,50.659,112.549
0.197,-1.813,-0.003,-225.159,45.471,117.615
0.232,-1.855,-0.079,-241.943,35.095,126.465
0.225,-1.874,-0.105,-259.094,28.992,132.935
0.198,-1.864,-0.112,-274.902,25.635,137.39
0.169,-1.818,-0.16,-286.804,24.048,139.404
0.16,-1.771,-0.147,-295.349,28.381,141.357
0.193,-1.727,-0.131,-300.842,34.607,145.569
0.206,-1.679,-0.154,-303.589,39.978,150.757
0.207,-1.598,-0.141,-303.772,47.363,154.541
0.243,-1.5,-0.121,-300.476,53.711,157.104
0.252,-1.401,-0.139,-292.48,57.068,159.485
0.229,-1.316,-0.095,-281.982,64.148,164.246
0.269,-1.25,-0.119,-271.729,76.416,171.082
0.324,-1.218,-0.12,-258.24,86.914,181.03
0.364,-1.17,-0.1,-244.69,99.06,190.979
0.419,-1.135,-0.084,-229.858,111.267,199.707
0.47,-1.092,-0.06,-213.318,123.962,206.482
0.512,-1.031,-0.033,-195.496,135.437,210.754
0.542,-0.982,-0.019,-178.04,145.813,214.661
0.565,-0.931,-0.012,-161.316,155.762,220.093
0.586,-0.883,-0.01,-146.179,165.71,226.807
0.615,-0.845,-0.005,-132.568,175.781,233.093
0.682,-0.817,0.013,-119.751,184.326,237.976
0.731,-0.784,0.026,-107.666,189.148,240.234
0.769,-0.763,0.038,-97.29,188.599,240.295
0.848,-0.756,0.049,-87.891,183.899,238.586
0.887,-0.74,0.047,-80.139,176.086,236.45
0.891,-0.708,0.048,-73.059,166.565,234.253
0.897,-0.671,0.048,-66.711,157.166,232.788
0.897,-0.633,0.041,-59.692,147.583,232.239
0.867,-0.618,-0.021,-51.88,140.747,231.689
0.856,-0.675,-0.1,-44.617,140.991,226.868
1.022,-0.522,0.124,-39.612,145.081,214.539
0.98,-0.485,0.055,-31.189,130.615,211.121
1.054,-0.595,0.02,-22.888,113.953,218.323
1.014,-0.56,0.036,-20.386,98.145,218.445
0.934,-0.516,0.022,-17.639,82.886,214.294
0.877,-0.481,-0.006,-13.55,71.411,208.557
0.841,-0.441,-0.029,-8.362,65.613,200.256
0.817,-0.395,-0.042,-2.93,64.148,191.223
0.785,-0.36,-0.061,2.808,64.27,183.044
0.752,-0.32,-0.061,7.812,66.467,176.147
-1.323,-1.523,-0.8,44.8,-207.703,25.574
-1.808,-1.904,-0.946,52.429,-220.642,24.719
-2.184,-2.114,-1.0,69.58,-226.501,-0.061
-2.419,-2.278,-1.184,104.37,-229.797,-55.176
-2.633,-2.178,-1.417,166.504,-225.952,-148.376
-2.527,-2.142,-1.388,254.639,-212.463,-265.442
-2.23,-2.643,-1.549,369.507,-203.674,-382.08
-1.824,-3.162,-1.567,481.079,-197.51,-486.145
-1.307,-3.689,-1.513,573.853,-195.129,-558.899
-0.777,-3.958,-1.406,652.1,-204.773,-598.206
-0.303,-4.0,-1.273,720.276,-224.426,-615.906
0.07,-4.0,-1.148,781.25,-246.704,-618.225
0.428,-4.0,-0.861,829.041,-258.301,-602.234
0.881,-4.0,-0.356,871.765,-268.616,-572.205
1.642,-4.0,-0.005,915.771,-301.086,-521.606
1.971,-4.0,0.093,913.757,-354.858,-407.532
1.425,-4.0,0.089,839.111,-415.894,-248.535
0.987,-4.0,0.361,735.352,-440.918,-113.892
0.508,-4.0,0.487,627.991,-408.936,-38.757
-0.097,-4.0,0.757,534.912,-341.187,-14.709
-0.296,-4.0,1.285,466.125,-239.502,-24.841
-0.237,-4.0,1.642,430.176,-138.306,-43.457
-0.137,-4.0,1.837,423.218,-54.382,-67.505
-0.056,-3.743,1.752,416.87,6.042,-87.952
0.204,-3.611,1.479,390.991,49.805,-103.455
0.663,-3.455,1.249,336.243,83.313,-124.39
1.15,-3.236,1.03,262.146,100.464,-142.7
1.523,-2.743,0.89,188.538,97.046,-153.625
1.646,-2.154,0.801,136.414,81.726,-140.747
1.66,-1.637,0.867,115.601,64.88,-104.614
1.46,-1.463,0.687,119.263,39.734,-53.406
1.1,-1.377,0.57,131.287,27.1,6.226
0.659,-1.379,0.515,133.484,32.166,59.082
0.26,-1.378,0.404,125.61,47.241,104.126
0.002,-1.469,0.4,106.995,75.195,137.024
-0.115,-1.473,0.413,79.163,106.75,150.635
-0.171,-1.399,0.466,46.265,133.606,151.245
-0.141,-1.353,0.47,11.841,143.25,149.17
-0.038,-1.373,0.367,-25.269,133.667,143.921
0.03,-1.323,0.258,-64.331,112.122,133.118
-0.008,-1.214,0.1,-99.67,81.909,120.789
-0.072,-1.132,-0.017,-126.892,50.964,109.924
-0.166,-1.049,-0.162,-142.029,23.437,99.06
-0.283,-0.959,-0.315,-146.179,3.662,87.952
-0.394,-0.809,-0.44,-141.357,-4.883,79.163
-0.425,-0.732,-0.503,-124.695,-2.197,74.768
-0.384,-0.719,-0.566,-98.633,7.202,69.336
-0.327,-0.697,-0.56,-69.031,20.508,60.73
-0.299,-0.709,-0.548,-41.443,31.433,54.382
-0.269,-0.791,-0.511,-19.897,38.147,51.636
-0.237,-0.84,-0.432,-6.958,41.931,48.889
-0.263,-0.888,-0.385,-1.038,40.588,46.387
-0.297,-0.783,-0.256,-2.075,36.987,42.603
-0.21,-1.166,-0.428,-1.282,27.466,43.518
-0.374,-1.086,-0.26,-8.972,28.32,31.494
-0.316,-1.005,-0.259,-23.01,34.302,25.513
-0.268,-1.148,-0.378,-33.386,34.241,25.818
-0.244,-1.136,-0.354,-49.133,43.274,23.071
-0.178,-1.113,-0.402,-64.026,49.011,21.79
-0.116,-1.138,-0.399,-76.172,53.223,22.522
-0.054,-1.162,-0.415,-84.778,54.016,23.499
-0.038,-1.16,-0.412,-89.294,53.894,24.292
-0.002,-1.172,-0.418,-90.82,54.443,26.184
0.036,-1.174,-0.418,-90.515,56.152,27.405
0.056,-1.181,-0.411,-89.722,58.594,28.381
0.037,-1.142,-0.419,-88.501,61.584,30.945
0.068,-1.135,-0.491,-90.881,64.758,36.987
0.029,-1.146,-0.476,-97.168,68.115,43.396
0.071,-1.174,-0.438,-103.455,69.397,50.049
0.05,-1.196,-0.392,-106.323,68.359,54.382
0.006,-1.209,-0.318,-106.995,69.519,58.35
-0.029,-1.244,-0.259,-104.248,71.594,61.218
-0.056,-1.289,-0.209,-100.769,76.355,61.89
-0.009,-1.323,-0.2,-100.159,83.313,59.326
0.115,-1.333,-0.245,-105.591,88.684,53.284
0.278,-1.334,-0.283,-116.882,88.989,45.959
0.395,-1.311,-0.303,-130.188,80.017,40.955
0.46,-1.256,-0.294,-139.709,62.988,41.321
0.456,-1.224,-0.28,-142.761,40.588,46.387
0.375,-1.219,-0.283,-140.32,18.433,54.26
0.259,-1.244,-0.282,-133.789,2.747,62.744
0.139,-1.28,-0.275,-126.648,-4.028,68.726
0.045,-1.288,-0.27,-121.277,-0.854,71.228
0.02,-1.289,-0.256,-119.751,10.681,70.74
0.073,-1.295,-0.253,-122.314,24.78,68.176
0.17,-1.289,-0.232,-127.991,37.231,65.125
0.263,-1.255,-0.199,-134.216,43.823,64.148
0.341,-1.227,-0.176,-138.794,43.579,66.65
0.377,-1.234,-0.181,-141.663,38.086,71.472
0.358,-1.224,-0.18,-143.555,31.738,76.294
0.335,-1.204,-0.164,-144.043,27.405,80.2
0.346,-1.194,-0.156,-143.555,25.696,82.397
0.324,-1.171,-0.156,-142.7,23.926,83.008
0.31,-1.149,-0.132,-142.151,24.536,83.191
0.343,-1.156,-0.128,-142.517,26.245,83.74
0.373,-1.154,-0.107,-143.127,27.588,83.984
0.373,-1.159,-0.101,-143.372,28.748,85.388
0.416,-1.143,-0.043,-146.057,35.095,88.745
0.494,-1.134,-0.041,-149.048,40.344,94.91
0.49,-1.126,-0.028,-152.222,42.847,102.356
0.477,-1.111,-0.042,-155.273,45.593,108.459
0.451,-1.09,-0.043,-157.166,49.377,112.0
0.451,-1.06,-0.048,-156.738,54.504,112.854
0.479,-1.026,-0.036,-154.724,59.998,112.244
0.535,-1.0,-0.014,-150.452,62.927,111.267
0.581,-0.976,-0.003,-145.63,62.012,111.633
0.611,-0.964,0.002,-140.991,57.983,113.037
0.668,-0.954,0.027,-136.353,54.443,115.601
0.728,-0.944,0.041,-132.202,50.903,120.728
0.73,-0.944,0.036,-129.883,47.791,127.625
0.711,-0.923,0.038,-128.479,48.584,134.338
0.71,-0.893,0.037,-127.197,55.298,139.709
0.699,-0.861,0.034,-125.671,66.895,144.226
0.678,-0.833,0.013,-124.268,82.397,149.292
0.677,-0.8,-0.0,-122.986,102.417,154.541
0.743,-0.771,0.0,-121.094,125.61,160.034
0.794,-0.738,-0.0,-117.432,148.56,163.696
0.875,-0.691,0.006,-111.206,170.593,167.603
0.984,-0.63,0.047,-104.004,186.523,174.683
-1.751,-2.102,-0.859,-24.048,-205.261,101.196
-2.165,-2.792,-0.944,-62.988,-163.513,105.042
-2.323,-2.926,-1.054,-103.394,-125.122,73.242
-2.365,-2.208,-0.964,-122.009,-105.103,-14.465
-2.155,-1.521,-0.721,-89.722,-112.976,-141.113
-2.051,-1.369,-0.687,17.517,-159.973,-270.935
-2.056,-1.503,-0.622,163.33,-231.506,-381.226
-1.824,-1.861,-0.617,309.387,-305.237,-454.041
-1.63,-2.4,-0.755,436.096,-373.962,-494.568
-1.487,-2.962,-0.899,525.757,-425.171,-519.531
-1.406,-3.224,-0.931,580.139,-447.388,-538.33
-1.065,-3.463,-0.615,614.929,-434.753,-553.223
-0.677,-3.723,-0.444,655.884,-394.653,-558.289
-0.345,-4.0,-0.134,703.796,-320.862,-553.223
0.07,-4.0,0.158,746.704,-246.216,-540.588
0.541,-4.0,0.301,784.485,-201.05,-516.113
0.637,-4.0,0.325,816.101,-174.805,-485.168
0.884,-4.0,0.312,827.393,-148.132,-453.735
1.32,-4.0,0.426,790.588,-153.076,-409.607
1.401,-4.0,0.451,742.249,-211.609,-344.91
1.194,-4.0,0.551,683.105,-268.86,-261.414
0.821,-4.0,0.574,599.365,-312.927,-183.411
0.417,-4.0,0.546,512.573,-324.341,-122.498
0.061,-4.0,0.578,433.289,-285.461,-88.318
-0.035,-4.0,0.765,364.563,-209.595,-72.205
0.049,-3.852,1.076,316.04,-124.207,-66.04
0.316,-3.55,1.21,284.424,-51.758,-63.232
0.611,-3.016,1.292,260.498,0.916,-58.228
0.951,-2.809,1.279,242.126,28.381,-41.87
1.074,-2.558,1.155,219.788,31.921,-31.677
1.153,-2.517,1.175,191.528,26.123,-28.32
1.11,-1.978,1.065,154.297,8.667,-31.738
0.949,-1.685,0.91,119.08,-7.263,-7.996
0.776,-1.626,0.745,83.13,-16.174,19.531
0.453,-1.507,0.527,44.983,-14.526,43.396
0.145,-1.472,0.375,7.446,5.554,69.519
-0.091,-1.306,0.192,-25.391,39.246,85.327
-0.219,-1.125,0.116,-51.941,84.9,98.816
-0.123,-1.094,0.077,-69.275,128.418,112.183
-0.052,-0.911,-0.033,-79.834,159.058,113.953
0.166,-0.865,0.076,-82.458,177.185,119.08
0.396,-0.88,0.036,-80.322,165.1,119.385
0.412,-0.932,-0.001,-75.989,136.841,108.154
0.295,-0.842,-0.074,-73.12,99.182,90.576
0.137,-0.705,-0.12,-71.716,62.866,80.322
-0.112,-0.669,-0.247,-68.848,31.372,76.965
-0.331,-0.745,-0.365,-65.43,15.991,77.881
-0.439,-0.83,-0.461,-62.256,19.287,76.111
-0.337,-0.926,-0.462,-54.199,37.964,68.97
-0.424,-0.762,-0.254,-65.979,50.964,53.894
-0.184,-0.999,-0.679,-60.73,56.885,55.054
-0.31,-0.974,-0.482,-60.608,70.129,46.692
-0.293,-0.735,-0.518,-70.435,73.486,42.175
-0.272,-0.923,-0.651,-69.153,68.237,50.354
-0.278,-0.854,-0.603,-73.975,69.824,50.354
-0.275,-0.867,-0.66,-76.538,67.871,49.316
-0.193,-0.9,-0.619,-75.684,67.505,46.387
-0.095,-0.93,-0.598,-72.693,62.805,39.734
-0.004,-0.947,-0.58,-67.2,53.772,30.396
0.047,-0.955,-0.534,-59.937,42.175,20.691
0.097,-0.97,-0.5,-49.866,29.358,12.634
0.142,-1.005,-0.464,-39.307,16.602,6.958
0.119,-1.019,-0.458,-31.494,5.249,4.578
0.035,-1.029,-0.457,-27.893,-2.38,8.728
-0.028,-1.052,-0.466,-28.87,-4.15,17.822
-0.112,-1.074,-0.465,-33.691,1.892,25.757
-0.15,-1.077,-0.431,-40.649,15.686,30.823
-0.121,-1.063,-0.419,-47.424,31.311,33.02
-0.065,-1.087,-0.374,-54.565,45.837,33.386
0.051,-1.078,-0.362,-60.608,53.711,31.494
0.171,-1.047,-0.336,-66.406,53.589,28.442
0.23,-1.004,-0.362,-70.313,45.044,26.611
0.313,-1.047,-0.305,-70.862,30.701,26.978
0.307,-1.044,-0.267,-67.627,11.353,26.184
0.236,-1.001,-0.261,-62.805,-5.371,28.076
0.106,-1.031,-0.258,-56.519,-17.151,32.104
-0.009,-1.044,-0.224,-52.368,-19.531,34.851
-0.099,-1.063,-0.191,-49.927,-13.794,37.659
-0.104,-1.1,-0.169,-49.316,-1.587,39.246
-0.038,-1.137,-0.188,-52.185,14.221,36.743
0.058,-1.16,-0.169,-60.852,29.846,32.166
0.157,-1.158,-0.142,-70.74,39.185,29.541
0.243,-1.154,-0.112,-79.102,41.626,31.311
0.301,-1.16,-0.083,-85.022,39.001,35.278
0.318,-1.168,-0.05,-88.074,33.691,40.222
0.315,-1.18,-0.011,-89.111,28.015,46.57
0.282,-1.195,0.025,-89.844,23.499,54.626
0.244,-1.226,0.052,-91.492,22.095,62.744
0.223,-1.266,0.074,-94.971,24.902,69.58
0.223,-1.302,0.091,-101.929,31.25,74.951
0.246,-1.328,0.076,-112.366,40.344,78.979
0.269,-1.331,0.064,-125.854,51.331,81.848
0.318,-1.335,0.056,-140.686,63.904,85.388
0.357,-1.319,0.031,-154.48,74.89,89.905
0.381,-1.292,0.016,-165.955,85.327,95.764
0.404,-1.254,-0.0,-173.157,94.299,102.783
0.414,-1.226,-0.01,-175.293,102.112,109.07
0.427,-1.193,-0.009,-173.767,108.765,114.685
0.443,-1.176,-0.002,-169.861,113.586,119.263
0.471,-1.189,0.005,-165.405,115.54,122.498
0.526,-1.196,0.034,-162.842,115.173,125.366
0.578,-1.181,0.047,-164.734,110.962,130.92
0.579,-1.175,0.036,-169.8,103.821,139.404
0.589,-1.19,0.02,-178.589,98.694,148.865
0.606,-1.201,-0.002,-189.636,96.313,157.471
0.609,-1.196,-0.033,-200.073,96.924,163.574
0.632,-1.15,-0.049,-207.397,101.074,166.931
0.665,-1.1,-0.068,-209.473,107.422,168.762
0.701,-1.049,-0.101,-203.918,115.356,169.8
0.75,-1.001,-0.111,-192.688,123.962,171.997
0.827,-0.968,-0.101,-177.856,130.859,176.453
0.888,-0.942,-0.088,-161.316,135.071,182.861
0.937,-0.929,-0.073,-144.592,136.78,189.88
0.973,-0.924,-0.061,-128.967,136.658,195.923
0.992,-0.924,-0.053,-114.99,135.498,201.05
1.008,-0.917,-0.039,-104.919,133.85,206.055
1.01,-0.904,-0.036,-97.656,130.798,209.473
0.983,-0.874,-0.048,-91.553,128.174,211.67
0.946,-0.836,-0.067,-85.876,128.235,212.341
-2.156,-1.405,-1.233,34.363,-288.635,110.413
-2.651,-1.762,-1.366,12.451,-215.332,116.211
-2.885,-2.006,-1.457,-0.793,-123.657,90.454
-2.822,-1.987,-1.556,11.536,-33.447,18.372
-2.417,-1.709,-1.486,52.368,31.128,-97.656
-1.845,-1.704,-1.315,131.592,46.448,-232.544
-1.334,-1.955,-1.152,244.019,7.69,-357.422
-0.865,-2.1,-1.039,366.638,-72.144,-454.773
-0.501,-2.375,-1.01,492.065,-167.114,-517.151
-0.382,-2.801,-1.21,617.981,-254.822,-548.218
-0.337,-3.249,-1.291,724.792,-316.528,-557.739
0.044,-4.0,-1.227,851.868,-366.943,-503.601
0.219,-4.0,-1.056,878.357,-371.338,-441.284
0.134,-4.0,-1.047,899.048,-369.629,-385.254
-0.06,-4.0,-1.047,915.344,-352.173,-345.947
-0.16,-4.0,-0.93,907.471,-315.857,-309.875
-0.127,-4.0,-0.764,871.582,-274.17,-272.827
-0.069,-4.0,-0.583,819.641,-234.009,-238.037
-0.091,-4.0,-0.544,759.338,-195.007,-209.229
-0.235,-4.0,-0.297,688.599,-156.128,-193.726
-0.352,-4.0,0.031,625.061,-112.549,-178.528
-0.376,-4.0,0.28,589.111,-69.824,-167.48
-0.252,-4.0,0.686,570.312,-28.015,-168.274
-0.341,-4.0,0.468,567.566,-6.287,-166.748
-0.188,-4.0,0.601,546.631,16.663,-175.781
0.024,-4.0,0.515,477.722,53.528,-214.417
0.551,-3.624,0.44,394.592,99.487,-234.558
1.424,-3.044,0.368,294.312,124.878,-253.662
2.077,-2.427,0.312,203.125,114.99,-270.63
2.572,-1.917,0.646,143.311,78.674,-253.113
2.688,-1.511,0.851,120.728,-8.85,-194.824
2.354,-1.331,0.796,121.887,-124.573,-124.573
1.7,-1.494,0.637,121.765,-231.384,-36.865
0.823,-1.451,0.264,98.755,-297.546,48.584
-0.206,-1.624,-0.151,59.509,-295.288,129.7
-0.924,-1.726,-0.174,3.479,-217.834,193.298
-1.389,-1.581,-0.291,-62.134,-108.154,230.103
-1.634,-1.244,-0.246,-118.835,19.226,259.644
-1.429,-1.167,-0.353,-162.415,139.221,299.5
-1.082,-1.153,-0.428,-203.796,237.549,328.552
-0.753,-1.018,-0.413,-232.727,309.082,344.116
-0.609,-0.984,-0.28,-242.493,342.224,346.497
-0.278,-0.846,-0.111,-245.361,328.369,339.111
-0.005,-1.231,-0.397,-235.535,277.588,322.083
-0.002,-1.1,-0.254,-231.506,221.924,272.4
-0.217,-0.743,-0.208,-218.384,159.79,218.933
-0.268,-0.719,-0.403,-178.162,92.896,176.819
-0.357,-0.723,-0.551,-134.766,43.457,122.742
-0.495,-0.625,-0.646,-91.064,16.663,73.547
-0.479,-0.609,-0.718,-47.729,7.08,39.917
-0.448,-0.629,-0.729,-11.047,7.507,18.738
-0.39,-0.71,-0.675,17.212,12.878,8.789
-0.31,-0.769,-0.585,35.095,17.761,4.822
-0.27,-0.83,-0.5,44.006,17.456,3.113
-0.279,-0.898,-0.442,46.326,14.404,1.282
-0.334,-0.957,-0.385,44.25,12.878,-1.831
-0.368,-1.026,-0.36,39.368,14.954,-4.395
-0.364,-1.068,-0.357,31.128,21.729,-6.958
-0.292,-1.079,-0.356,18.86,31.433,-9.644
-0.21,-1.085,-0.376,5.371,39.124,-10.803
-0.113,-1.062,-0.406,-9.094,42.847,-8.667
-0.043,-1.014,-0.427,-24.536,41.016,-3.723
-0.036,-1.005,-0.468,-39.429,33.447,3.418
-0.076,-1.016,-0.52,-51.392,24.902,11.597
-0.149,-1.007,-0.559,-60.73,19.897,18.616
-0.228,-0.992,-0.576,-67.505,20.63,24.597
-0.305,-0.989,-0.575,-70.679,27.466,30.579
-0.384,-0.98,-0.549,-70.679,40.588,36.743
-0.372,-0.997,-0.528,-68.848,58.777,42.419
-0.282,-1.043,-0.484,-67.322,78.979,44.922
-0.13,-1.088,-0.424,-67.688,94.971,44.434
0.03,-1.146,-0.35,-70.435,102.417,42.175
0.138,-1.208,-0.282,-74.341,99.548,40.283
0.193,-1.252,-0.219,-79.224,89.6,40.1
0.205,-1.292,-0.172,-84.656,76.721,42.725
0.2,-1.343,-0.151,-92.407,63.904,47.974
0.189,-1.396,-0.145,-103.821,53.101,54.443
0.159,-1.439,-0.155,-118.652,45.41,61.89
0.137,-1.481,-0.185,-135.254,41.565,69.763
0.136,-1.514,-0.22,-153.015,41.687,77.148
0.145,-1.532,-0.252,-170.349,44.373,82.52
0.161,-1.536,-0.281,-186.157,48.096,86.243
0.195,-1.523,-0.273,-198.364,51.941,89.661
0.225,-1.494,-0.281,-207.764,53.467,93.384
0.264,-1.48,-0.271,-214.172,53.162,100.037
0.318,-1.487,-0.27,-218.75,49.744,109.253
0.342,-1.472,-0.273,-222.778,45.41,119.568
0.327,-1.428,-0.275,-225.83,41.26,131.104
0.309,-1.413,-0.301,-225.952,39.49,144.653
0.281,-1.392,-0.32,-224.976,43.152,155.701
0.255,-1.35,-0.336,-222.046,51.514,162.598
0.237,-1.287,-0.359,-215.942,64.575,166.504
0.252,-1.19,-0.366,-205.566,79.59,169.373
0.317,-1.104,-0.363,-190.979,93.689,174.438
0.396,-1.036,-0.374,-171.448,103.577,182.678
0.458,-0.965,-0.372,-149.475,109.497,194.153
0.509,-0.925,-0.368,-126.526,111.023,208.069
0.555,-0.951,-0.355,-103.943,109.985,219.727
0.549,-0.964,-0.336,-84.9,108.887,227.295
0.5,-0.963,-0.332,-70.007,108.093,231.262
0.493,-0.951,-0.313,-57.678,110.046,233.521
0.521,-0.912,-0.267,-47.485,114.38,234.314
0.558,-0.906,-0.229,-38.635,117.249,234.68
0.6,-0.949,-0.204,-32.043,117.126,233.948
0.648,-0.98,-0.198,-29.48,114.075,231.079
0.675,-0.972,-0.194,-29.602,108.765,225.525
0.687,-0.928,-0.191,-29.663,103.027,220.52
0.732,-0.899,-0.198,-27.893,97.717,217.285
0.77,-0.884,-0.207,-23.926,92.346,214.6
0.771,-0.853,-0.217,-20.02,86.853,211.243
0.77,-0.827,-0.232,-16.174,81.848,207.642
0.795,-0.808,-0.244,-11.841,78.003,203.552
0.821,-0.791,-0.248,-7.385,73.608,198.242
0.868,-0.78,-0.248,-3.784,68.237,192.322
0.918,-0.77,-0.253,-1.709,62.134,187.195
0.934,-0.758,-0.265,-2.991,55.542,184.814
0.92,-0.73,-0.28,-7.812,51.941,185.913
0.901,-0.705,-0.291,-14.16,52.063,188.049
0.883,-0.669,-0.3,-21.179,55.481,189.026
-1.329,-1.55,-0.626,77.576,-235.168,21.606
-1.427,-1.646,-0.749,104.736,-265.259,-12.268
-1.54,-1.692,-0.93,147.644,-290.71,-82.825
-1.65,-1.807,-1.147,206.97,-301.941,-182.617
-1.676,-1.964,-1.207,273.499,-292.664,-286.621
-1.475,-2.163,-1.143,340.698,-269.043,-371.094
-1.13,-2.489,-1.044,408.813,-244.446,-428.406
-0.712,-2.869,-0.973,470.215,-227.234,-463.379
-0.385,-3.007,-0.885,517.029,-219.116,-475.769
-0.105,-3.14,-0.737,552.917,-216.736,-471.436
0.177,-3.319,-0.62,582.458,-216.797,-453.613
0.471,-3.462,-0.432,601.868,-211.731,-431.03
0.676,-3.465,-0.179,612.61,-201.904,-412.354
0.869,-3.431,0.083,620.544,-195.312,-396.667
1.006,-3.397,0.214,626.953,-201.416,-380.554
1.17,-3.463,0.364,630.188,-217.346,-362.854
1.481,-3.569,0.574,624.084,-239.258,-328.979
1.657,-3.59,0.712,605.835,-276.367,-276.672
1.533,-3.626,0.759,584.167,-324.829,-222.9
1.135,-3.721,0.75,562.439,-363.037,-172.852
0.577,-3.821,0.739,539.307,-372.742,-134.094
0.051,-3.899,0.818,518.494,-342.773,-115.601
-0.343,-3.903,0.969,501.465,-278.198,-115.479
-0.656,-3.823,1.061,489.441,-190.186,-126.77
-0.754,-3.733,1.021,472.534,-85.449,-144.287
-0.467,-3.689,0.905,440.613,26.306,-161.499
0.092,-3.614,0.755,390.747,129.456,-177.002
0.783,-3.379,0.627,326.782,209.473,-191.528
1.487,-2.983,0.605,259.338,258.301,-202.087
1.991,-2.496,0.717,205.261,269.836,-198.73
2.164,-2.03,0.942,175.964,242.981,-170.898
2.043,-1.618,1.082,174.072,184.814,-118.103
1.71,-1.467,1.043,186.218,112.244,-50.72
1.22,-1.509,0.836,192.505,47.18,14.587
0.738,-1.549,0.635,181.335,9.766,72.144
0.275,-1.559,0.497,154.236,1.404,117.92
-0.115,-1.551,0.416,116.211,16.052,151.306
-0.37,-1.597,0.292,72.021,47.913,174.316
-0.556,-1.576,0.224,22.217,93.262,184.57
-0.615,-1.486,0.218,-28.931,138.428,188.293
-0.564,-1.42,0.11,-80.322,168.945,188.904
-0.488,-1.319,0.058,-127.93,186.401,186.157
-0.29,-1.289,0.08,-165.955,185.913,182.617
-0.127,-1.258,-0.035,-192.993,164.062,171.997
-0.035,-1.318,-0.059,-208.557,135.01,154.419
-0.04,-1.094,-0.044,-211.548,97.656,125.549
-0.221,-0.899,-0.16,-199.402,50.598,109.497
-0.318,-0.947,-0.383,-176.27,9.46,105.591
-0.264,-0.832,-0.307,-150.146,-11.719,93.811
-0.473,-0.972,-0.784,-117.615,-30.334,84.106
-0.859,-0.877,-0.724,-90.332,-13.55,65.186
-0.565,-0.691,-0.394,-67.81,22.4,48.767
-0.474,-0.909,-0.551,-30.64,41.809,35.095
-0.334,-0.889,-0.263,-11.536,63.721,22.4
-0.236,-1.005,-0.315,1.16,62.805,22.888
-0.251,-1.043,-0.263,0.793,57.068,25.574
-0.306,-1.0,-0.182,-7.263,47.424,29.114
-0.357,-1.034,-0.198,-15.503,37.781,34.546
-0.374,-1.113,-0.237,-24.963,32.959,35.889
-0.387,-1.076,-0.222,-37.659,34.851,30.151
-0.293,-1.095,-0.211,-48.218,37.292,23.132
-0.193,-1.13,-0.243,-55.115,35.767,14.038
-0.089,-1.103,-0.192,-60.425,32.41,4.578
0.001,-1.096,-0.245,-62.561,22.339,-1.587
0.013,-1.096,-0.287,-65.491,8.606,-4.211
0.02,-1.104,-0.336,-69.214,-5.249,-4.15
-0.04,-1.12,-0.385,-70.313,-15.564,-3.784
-0.231,-1.011,-0.375,-69.214,-18.066,-3.357
0.103,-1.058,-0.269,-62.683,-16.968,6.958
0.054,-1.235,-0.375,-51.086,-16.663,6.897
-0.156,-1.14,-0.226,-51.819,-4.944,0.183
-0.14,-1.147,-0.201,-45.715,5.493,2.747
-0.248,-1.187,-0.178,-40.222,23.376,4.211
-0.246,-1.228,-0.149,-40.283,48.767,4.761
-0.181,-1.274,-0.128,-44.617,75.378,4.395
-0.122,-1.312,-0.108,-53.589,100.159,3.235
-0.041,-1.325,-0.068,-65.491,120.789,2.747
0.039,-1.303,-0.018,-77.454,134.399,7.019
0.153,-1.333,-0.021,-88.013,139.343,16.357
0.215,-1.341,-0.012,-99.976,140.015,25.574
0.234,-1.357,-0.015,-110.413,135.742,37.781
0.241,-1.382,-0.027,-120.972,130.31,51.147
0.222,-1.406,-0.039,-131.592,125.427,63.721
0.192,-1.412,-0.062,-141.968,122.375,75.317
0.171,-1.419,-0.086,-151.184,121.277,86.548
0.163,-1.432,-0.114,-158.813,121.704,97.473
0.146,-1.423,-0.142,-164.307,123.413,107.605
0.146,-1.405,-0.163,-167.786,125.793,117.065
0.17,-1.397,-0.187,-168.091,128.052,125.732
0.183,-1.383,-0.208,-166.687,129.456,133.85
0.205,-1.345,-0.215,-164.368,129.089,142.212
0.243,-1.308,-0.209,-160.522,126.038,151.001
0.269,-1.272,-0.208,-154.297,119.812,158.813
0.264,-1.228,-0.207,-146.545,111.694,165.588
0.253,-1.188,-0.213,-136.353,102.966,170.837
0.239,-1.148,-0.215,-124.39,95.886,174.011
0.224,-1.13,-0.209,-111.877,91.492,175.293
0.219,-1.111,-0.202,-99.548,88.196,173.95
0.225,-1.08,-0.194,-87.219,85.571,170.837
0.254,-1.044,-0.177,-74.768,84.534,166.809
0.317,-1.013,-0.156,-61.646,83.74,164.246
0.378,-0.998,-0.135,-49.011,80.505,163.696
0.419,-0.979,-0.109,-39.551,74.524,164.001
0.44,-0.953,-0.087,-33.325,67.322,165.527
0.458,-0.954,-0.07,-30.64,60.791,167.603
0.505,-0.969,-0.039,-31.555,56.702,168.457
0.53,-0.954,-0.012,-35.156,53.406,168.823
0.546,-0.95,-0.009,-40.466,50.659,171.509
0.557,-0.958,-0.008,-47.363,50.171,176.025
0.579,-0.954,-0.003,-54.871,53.589,180.969
0.599,-0.928,0.002,-63.293,59.875,185.059
0.617,-0.889,0.006,-70.557,66.772,188.11
0.644,-0.845,-0.0,-76.355,73.914,190.735
0.663,-0.802,-0.01,-80.261,81.116,192.566
0.69,-0.766,-0.012,-82.397,88.318,192.688
0.742,-0.73,-0.0,-82.886,94.849,192.2
0.802,-0.699,0.025,-83.801,98.755,191.895
0.859,-0.674,0.04,-85.022,97.717,192.261
0.897,-0.668,0.045,-87.891,92.896,193.054
-1.668,-1.431,-0.665,18.005,-325.562,54.138
-2.042,-1.825,-0.744,-2.747,-303.894,60.547
-2.359,-2.118,-0.821,-21.362,-273.376,37.17
-2.398,-2.074,-0.927,-29.358,-240.234,-28.625
-2.161,-2.029,-0.908,-9.888,-211.304,-125.427
-1.979,-2.181,-0.93,42.175,-199.768,-227.722
-1.828,-2.19,-0.952,117.432,-208.496,-324.951
-1.463,-2.162,-0.804,210.754,-229.309,-405.457
-1.086,-2.422,-0.819,325.745,-263.306,-465.82
-0.865,-2.649,-0.936,448.975,-305.603,-510.742
-0.635,-2.855,-0.976,567.078,-342.163,-547.913
-0.468,-3.29,-1.044,683.044,-367.126,-575.989
-0.382,-3.969,-1.22,791.565,-378.54,-590.454
-0.176,-4.0,-1.28,877.808,-375.977,-579.407
0.403,-4.0,-0.945,933.716,-369.934,-532.837
1.39,-4.0,-0.323,957.886,-385.925,-449.097
1.698,-4.0,-0.258,946.96,-435.73,-312.5
1.133,-4.0,-0.192,889.221,-490.173,-184.082
0.151,-4.0,-0.004,806.274,-504.7,-129.578
-0.932,-4.0,0.646,723.572,-436.34,-152.588
-1.222,-4.0,1.336,649.963,-294.434,-220.215
-0.406,-4.0,1.447,597.229,-146.057,-275.33
0.577,-4.0,1.344,525.574,-39.124,-299.561
1.445,-3.993,1.057,419.617,9.155,-285.706
1.972,-3.136,1.081,307.983,11.719,-244.324
2.17,-2.45,0.926,227.783,-22.217,-180.847
2.047,-2.135,0.932,180.725,-67.566,-106.262
1.581,-2.079,0.608,159.729,-111.816,-26.306
0.825,-2.217,0.425,145.874,-120.911,45.105
0.258,-2.146,0.308,127.075,-92.529,95.398
-0.453,-1.79,0.348,98.389,-35.156,132.385
-0.699,-1.752,0.277,75.256,30.457,181.824
-0.732,-1.908,0.207,49.744,101.318,206.543
-0.747,-1.62,0.349,18.494,165.161,204.895
-0.657,-1.434,0.328,-11.169,198.547,204.59
-0.436,-1.468,0.342,-42.847,201.355,196.228
-0.388,-1.283,0.31,-75.439,175.415,170.654
-0.391,-1.117,0.265,-98.999,131.836,147.705
-0.394,-1.084,0.157,-112.244,80.872,123.169
-0.253,-0.946,0.075,-116.028,31.372,90.637
-0.497,-0.812,-0.251,-109.924,-12.817,57.129
-0.644,-0.618,-0.315,-97.229,-27.466,31.189
-0.555,-0.486,-0.325,-70.801,-28.687,15.015
-0.577,-0.563,-0.442,-38.33,-25.269,4.578
-0.486,-0.613,-0.411,-8.484,-10.864,-1.587
-0.405,-0.662,-0.359,15.442,5.066,-3.357
-0.343,-0.769,-0.296,33.325,19.653,-2.93
-0.21,-0.922,-0.152,43.03,31.738,-2.93
-0.316,-1.146,-0.616,44.067,41.443,-6.592
-0.37,-0.815,0.078,40.283,70.801,-11.658
-0.07,-0.961,0.118,36.072,59.021,-4.761
0.051,-1.29,-0.2,23.682,42.786,-0.122
-0.113,-1.093,0.059,-2.319,40.588,-9.033
-0.082,-1.055,-0.035,-23.437,24.658,-8.301
-0.109,-1.159,-0.123,-40.222,16.052,-4.944
-0.165,-1.128,-0.19,-56.702,15.686,-3.906
-0.208,-1.093,-0.256,-71.472,21.973,-2.38
-0.171,-1.087,-0.291,-83.13,32.043,0.732
-0.138,-1.09,-0.346,-90.271,41.016,3.967
-0.125,-1.054,-0.338,-93.018,50.232,7.385
-0.113,-1.036,-0.327,-91.37,57.251,12.085
-0.125,-1.054,-0.319,-85.632,62.378,16.724
-0.173,-1.064,-0.285,-78.674,69.153,20.508
-0.24,-1.063,-0.25,-72.632,78.125,24.353
-0.261,-1.098,-0.226,-69.458,91.064,29.175
-0.236,-1.135,-0.201,-70.923,108.093,31.372
-0.162,-1.145,-0.125,-75.439,125.854,31.555
-0.034,-1.165,-0.065,-81.116,139.16,32.41
0.114,-1.219,-0.009,-87.952,145.508,32.715
0.229,-1.284,0.037,-96.68,142.578,32.349
0.291,-1.343,0.081,-106.384,131.958,34.302
0.303,-1.388,0.084,-116.089,116.882,39.368
0.281,-1.428,0.09,-126.282,102.722,47.241
0.241,-1.466,0.065,-137.451,91.064,57.983
0.189,-1.503,0.021,-148.926,84.229,70.374
0.154,-1.524,-0.022,-161.072,84.229,83.496
0.161,-1.562,-0.048,-174.072,89.05,96.13
0.162,-1.6,-0.122,-186.584,95.337,105.896
0.171,-1.631,-0.11,-197.693,105.53,112.549
0.214,-1.609,-0.112,-205.994,113.342,117.31
0.245,-1.591,-0.109,-211.182,116.943,123.535
0.323,-1.6,-0.068,-213.928,116.638,133.179
0.441,-1.627,-0.067,-214.478,106.201,143.738
0.486,-1.632,-0.105,-214.05,89.905,153.32
0.439,-1.564,-0.13,-212.952,75.317,165.588
0.461,-1.572,-0.052,-209.229,63.171,181.213
0.484,-1.578,-0.121,-203.369,45.532,193.481
0.522,-1.593,-0.078,-201.294,32.043,204.407
0.505,-1.546,-0.153,-202.148,18.494,211.487
0.479,-1.571,-0.136,-203.918,9.888,215.698
0.534,-1.517,-0.144,-205.811,1.831,214.539
0.503,-1.474,-0.205,-202.271,-6.836,211.243
0.523,-1.403,-0.176,-197.51,-6.348,207.153
0.571,-1.317,-0.181,-187.988,-7.324,205.078
0.589,-1.25,-0.165,-173.462,-7.202,205.2
0.588,-1.208,-0.148,-156.25,-6.409,206.36
0.582,-1.186,-0.127,-138.062,-3.723,208.679
0.577,-1.174,-0.099,-122.192,1.099,212.402
0.533,-1.177,-0.087,-110.291,7.874,215.21
0.515,-1.187,-0.048,-103.699,17.822,216.431
0.547,-1.18,0.001,-100.708,28.32,214.6
0.574,-1.151,0.051,-101.929,37.109,213.318
0.566,-1.114,0.079,-105.652,44.067,214.111
0.549,-1.081,0.104,-109.497,52.063,215.759
0.562,-1.053,0.123,-113.831,62.927,217.468
0.591,-1.024,0.139,-118.835,75.5,218.445
0.612,-0.98,0.143,-124.268,88.379,217.712
0.625,-0.948,0.13,-128.845,101.563,216.675
0.628,-0.914,0.11,-132.751,115.173,215.759
0.671,-0.854,0.117,-135.193,129.395,214.783
0.726,-0.793,0.131,-134.583,142.029,213.501
0.768,-0.744,0.146,-131.287,151.428,212.769
0.804,-0.68,0.158,-126.587,157.227,213.013
0.794,-0.626,0.146,-119.995,159.546,212.402
0.731,-0.586,0.093,-112.061,161.926,209.473
0.683,-0.578,0.033,-104.065,169.983,204.041
0.79,-0.478,0.135,-96.863,184.387,195.679
0.82,-0.396,0.148,-88.928,187.744,190.796
0.89,-0.391,0.165,-83.191,181.152,193.604
-1.904,-0.919,-0.394,116.15,-205.75,-119.507
-2.012,-1.154,-0.485,122.131,-167.786,-177.368
-1.974,-1.324,-0.518,124.939,-125.977,-236.877
-1.802,-1.444,-0.512,125.549,-88.928,-290.405
-1.648,-1.599,-0.56,130.188,-61.829,-334.778
-1.424,-1.703,-0.565,138.489,-45.349,-368.408
-1.12,-1.789,-0.565,152.283,-41.321,-396.179
-0.78,-1.857,-0.563,173.645,-51.025,-423.462
-0.463,-1.878,-0.562,201.538,-75.989,-450.256
-0.274,-1.92,-0.613,236.816,-111.145,-478.21
-0.156,-2.045,-0.693,277.649,-143.738,-506.714
-0.096,-2.248,-0.898,319.702,-164.856,-536.438
0.191,-2.439,-0.694,360.84,-159.363,-573.364
0.509,-2.717,-0.704,411.621,-139.099,-611.206
0.794,-3.068,-0.551,466.309,-111.816,-639.832
1.002,-3.099,-0.301,492.432,-105.408,-635.559
1.253,-3.173,-0.083,504.578,-138.306,-592.041
1.404,-3.329,-0.049,499.756,-193.542,-517.334
1.125,-3.459,-0.097,469.91,-250.305,-427.002
0.672,-3.63,-0.135,426.941,-285.889,-349.06
0.285,-3.901,-0.092,386.536,-274.963,-290.344
0.048,-4.0,0.054,348.083,-217.468,-257.629
0.034,-4.0,0.294,313.599,-132.324,-240.967
0.333,-4.0,0.566,283.752,-50.476,-233.704
0.699,-4.0,0.931,266.296,7.751,-232.849
1.086,-4.0,1.384,271.057,37.598,-233.521
1.385,-3.728,1.695,308.044,28.137,-234.802
1.488,-3.3,1.68,352.722,-7.935,-236.938
1.395,-3.085,1.203,376.953,-54.382,-239.807
1.21,-3.01,0.851,363.342,-84.29,-238.037
1.208,-2.733,0.535,311.462,-83.252,-237.305
1.326,-2.334,0.451,246.46,-56.335,-225.708
1.461,-1.734,0.5,187.012,-22.766,-202.515
1.476,-1.586,0.594,144.348,1.099,-155.518
1.633,-1.495,0.546,116.394,2.686,-106.934
1.41,-1.345,0.758,97.656,-0.427,-54.382
0.944,-1.142,0.598,89.355,-8.667,11.719
0.529,-1.209,0.399,81.787,-10.742,75.195
0.156,-1.325,0.337,67.81,4.028,123.352
-0.131,-1.405,0.287,51.514,31.738,154.053
-0.422,-1.283,0.293,36.438,66.04,165.039
-0.493,-1.312,0.248,24.048,100.83,169.25
-0.606,-1.148,0.214,11.841,132.69,163.574
-0.489,-1.208,0.267,0.549,161.987,159.18
-0.357,-1.152,0.198,-9.888,170.715,142.456
-0.314,-1.042,0.265,-20.264,172.791,125.427
-0.116,-1.034,0.302,-26.855,162.048,110.718
-0.038,-1.009,0.181,-32.654,138.916,89.966
-0.05,-0.962,0.18,-40.161,117.676,70.801
-0.004,-0.903,0.193,-43.823,94.91,55.054
0.021,-0.953,0.131,-40.71,69.946,43.457
-0.033,-0.986,0.065,-36.926,49.561,33.081
-0.061,-0.996,0.072,-34.241,38.025,26.428
-0.068,-1.022,0.052,-29.358,31.25,23.01
-0.176,-0.996,0.001,-22.888,31.799,20.142
-0.148,-1.011,0.038,-14.832,43.396,19.043
-0.045,-1.226,0.011,-13.794,50.964,28.442
-0.17,-1.183,0.028,-19.775,57.556,30.518
-0.154,-1.081,0.156,-30.212,75.867,32.41
-0.055,-1.165,0.083,-33.936,86.06,36.865
0.079,-1.281,0.112,-39.49,95.642,40.894
0.18,-1.254,0.144,-47.424,99.426,41.016
0.233,-1.294,0.141,-54.321,96.68,42.969
0.299,-1.315,0.181,-60.852,90.576,44.922
0.352,-1.325,0.163,-67.078,78.796,47.852
0.35,-1.351,0.158,-73.914,63.965,52.856
0.381,-1.4,0.13,-82.031,48.157,59.326
0.357,-1.4,0.099,-90.454,32.471,63.782
0.318,-1.392,0.079,-98.938,19.043,69.397
0.312,-1.417,0.04,-106.873,7.69,76.355
0.31,-1.443,0.024,-114.136,-0.61,81.848
0.312,-1.469,0.002,-120.667,-7.202,86.243
0.306,-1.466,-0.014,-126.343,-12.39,89.172
0.312,-1.465,-0.031,-131.592,-17.09,91.736
0.311,-1.466,-0.043,-135.803,-20.935,95.032
0.387,-1.501,-0.036,-139.587,-24.536,98.877
0.457,-1.48,-0.045,-144.409,-33.02,101.318
0.478,-1.466,-0.064,-149.78,-46.814,106.934
0.444,-1.436,-0.086,-155.212,-62.805,115.479
0.428,-1.412,-0.105,-160.522,-75.256,125.0
0.345,-1.406,-0.153,-163.513,-83.679,132.629
0.287,-1.373,-0.187,-166.199,-82.642,136.78
0.19,-1.35,-0.189,-165.588,-75.073,142.761
0.196,-1.275,-0.169,-166.748,-54.565,148.621
0.221,-1.222,-0.186,-165.283,-32.41,153.137
0.162,-1.197,-0.196,-159.241,-11.841,158.325
0.178,-1.121,-0.161,-153.625,15.015,161.194
0.214,-1.073,-0.157,-144.165,41.26,164.734
0.25,-1.032,-0.136,-132.263,66.833,167.297
0.323,-0.992,-0.112,-119.995,90.149,170.776
0.393,-0.964,-0.092,-107.178,109.436,176.636
0.487,-0.962,-0.058,-95.215,124.329,186.279
0.577,-0.946,-0.011,-85.632,133.789,197.021
0.637,-0.928,0.024,-77.515,137.329,207.275
0.686,-0.942,0.056,-71.045,136.23,214.966
0.739,-0.95,0.102,-66.833,133.545,220.825
0.769,-0.942,0.128,-65.063,128.174,225.586
0.784,-0.939,0.136,-64.331,121.399,227.539
0.79,-0.927,0.13,-64.331,116.211,226.807
0.776,-0.903,0.113,-65.063,112.061,224.182
0.781,-0.876,0.102,-67.2,109.009,222.29
0.796,-0.838,0.09,-69.946,104.614,221.313
0.795,-0.789,0.07,-72.205,98.816,219.116
0.759,-0.723,0.045,-72.632,92.712,215.515
0.813,-0.664,0.049,-70.496,88.135,213.623
0.644,-0.723,-0.169,-65.979,84.045,211.853
0.616,-0.602,-0.085,-65.308,95.703,205.566
0.988,-0.636,0.021,-59.814,113.342,198.059
0.888,-0.476,0.016,-49.5,112.366,177.124
1.005,-0.512,0.045,-41.26,96.191,175.598
1.034,-0.551,-0.008,-36.377,75.073,177.551
0.88,-0.516,-0.048,-31.372,55.969,174.011
0.772,-0.451,-0.081,-26.855,46.021,168.762
0.738,-0.438,-0.129,-19.348,46.631,164.062
0.852,-0.462,-0.193,-10.864,55.603,156.494
0.838,-0.41,-0.177,-3.113,69.092,143.738
1.057,-0.306,-0.105,5.005,79.224,132.263
0.893,-0.318,-0.138,13.0,79.712,124.756
1.128,-0.342,-0.123,20.508,78.186,123.657
-1.222,-1.539,-0.436,112.549,-241.211,-74.158
-1.25,-1.695,-0.483,125.671,-223.45,-126.221
-1.258,-1.827,-0.498,141.846,-201.294,-184.753
-1.257,-1.849,-0.465,165.283,-174.927,-243.225
-1.148,-1.919,-0.445,201.355,-145.874,-297.913
-0.916,-2.077,-0.462,248.84,-115.906,-350.159
-0.631,-2.278,-0.487,300.659,-90.088,-397.034
-0.34,-2.465,-0.494,355.53,-73.242,-441.345
-0.121,-2.62,-0.49,414.124,-64.819,-483.215
0.076,-2.774,-0.482,477.112,-61.707,-520.142
0.3,-3.0,-0.466,543.03,-63.965,-549.927
0.534,-3.313,-0.419,605.713,-73.669,-567.2
0.766,-3.623,-0.384,656.86,-93.018,-568.481
1.048,-3.987,-0.349,696.35,-123.108,-556.885
1.28,-4.0,-0.305,716.064,-159.119,-529.236
1.132,-4.0,-0.312,713.074,-193.604,-481.506
0.792,-4.0,-0.309,692.688,-209.656,-430.42
0.878,-4.0,-0.156,658.264,-192.566,-387.268
1.183,-4.0,0.146,608.215,-165.344,-343.079
1.358,-4.0,0.473,550.11,-146.851,-304.687
1.492,-4.0,0.939,503.723,-132.507,-273.132
1.633,-4.0,1.072,468.14,-130.554,-243.347
1.322,-3.963,1.001,422.485,-131.592,-229.614
0.969,-3.418,1.059,363.464,-100.708,-220.764
1.077,-3.023,0.819,300.415,-52.246,-210.693
1.471,-2.496,0.741,233.032,6.104,-191.162
1.847,-2.444,0.522,171.631,44.922,-149.231
2.058,-1.939,0.496,119.629,66.772,-113.708
2.054,-1.469,0.559,91.492,73.181,-61.646
1.965,-1.407,0.539,86.975,64.941,-4.395
1.651,-1.424,0.536,89.417,51.208,41.077
1.273,-1.469,0.547,89.172,41.931,83.557
0.89,-1.581,0.518,79.834,38.147,115.662
0.483,-1.64,0.498,59.998,44.739,133.972
0.13,-1.57,0.464,33.203,59.998,142.151
-0.08,-1.498,0.443,4.028,79.346,148.132
-0.085,-1.49,0.369,-24.719,93.14,151.855
-0.101,-1.424,0.243,-53.467,95.886,148.682
-0.202,-1.31,0.104,-78.857,89.111,139.587
-0.227,-1.07,0.052,-97.107,76.904,125.061
-0.204,-0.899,-0.047,-103.027,56.702,112.244
-0.313,-0.88,-0.299,-101.624,35.034,97.412
-0.56,-0.648,-0.365,-95.703,27.344,76.172
-0.386,-0.622,-0.354,-76.599,30.945,60.974
-0.296,-0.569,-0.363,-49.622,32.959,38.269
-0.222,-0.584,-0.326,-21.179,28.87,22.095
-0.159,-0.671,-0.349,2.563,19.043,15.198
-0.169,-0.742,-0.328,18.25,9.155,8.423
-0.021,-1.078,-0.456,28.259,2.441,1.038
-0.315,-0.649,-0.133,27.832,3.723,-14.465
-0.236,-0.809,-0.324,33.081,-2.258,-15.747
-0.133,-1.017,-0.074,33.691,0.366,-7.812
-0.042,-1.11,-0.292,28.564,-1.892,-11.902
-0.182,-1.016,-0.24,19.592,-0.305,-15.015
-0.132,-1.034,-0.278,10.254,1.221,-13.062
-0.112,-1.111,-0.204,-1.099,8.667,-9.399
-0.08,-1.09,-0.365,-14.221,17.944,-6.775
-0.184,-1.093,-0.282,-26.428,31.86,0.0
-0.019,-1.102,-0.322,-35.339,40.344,5.005
-0.025,-1.144,-0.396,-44.861,46.997,11.414
-0.054,-1.135,-0.359,-52.49,56.763,14.343
0.056,-1.093,-0.346,-59.57,63.171,18.86
0.13,-1.112,-0.332,-65.002,62.012,23.254
0.189,-1.147,-0.309,-69.214,55.115,28.503
0.183,-1.156,-0.302,-73.181,43.396,33.936
0.097,-1.15,-0.299,-76.416,31.738,39.856
0.004,-1.158,-0.301,-79.163,25.33,45.41
-0.057,-1.155,-0.318,-82.031,26.611,48.706
-0.049,-1.132,-0.351,-86.731,33.63,49.927
0.011,-1.143,-0.362,-94.788,40.039,50.537
0.092,-1.151,-0.359,-103.333,42.236,51.025
0.116,-1.141,-0.338,-110.107,39.856,51.27
0.159,-1.137,-0.313,-113.464,34.058,52.856
0.229,-1.177,-0.29,-113.281,25.208,53.711
0.175,-1.137,-0.265,-111.45,14.954,52.734
0.219,-1.145,-0.285,-108.398,4.822,53.406
0.104,-1.08,-0.349,-108.093,-4.944,51.636
-0.003,-1.063,-0.335,-111.328,-9.338,54.626
-0.027,-1.076,-0.378,-112.549,-10.925,58.167
-0.061,-1.11,-0.377,-112.244,-6.775,57.617
-0.053,-1.125,-0.363,-111.145,1.465,52.307
-0.04,-1.105,-0.316,-107.91,11.597,44.861
0.036,-1.104,-0.295,-102.905,20.203,37.17
0.142,-1.131,-0.265,-97.839,24.475,30.273
0.237,-1.147,-0.235,-94.299,23.01,25.33
0.299,-1.144,-0.206,-91.797,16.418,23.254
0.311,-1.145,-0.182,-90.271,7.019,24.536
0.299,-1.166,-0.167,-89.172,-1.587,28.381
0.271,-1.185,-0.145,-90.088,-6.592,33.203
0.229,-1.192,-0.113,-93.445,-8.057,39.856
0.186,-1.196,-0.105,-98.755,-6.592,47.302
0.146,-1.223,-0.107,-104.736,-0.732,53.406
0.118,-1.221,-0.101,-111.023,11.047,55.908
0.117,-1.228,-0.104,-116.15,26.855,56.213
0.165,-1.258,-0.104,-120.667,45.715,56.946
0.247,-1.282,-0.087,-125.244,64.575,59.204
0.353,-1.294,-0.048,-129.944,80.139,64.453
0.457,-1.29,-0.009,-134.827,89.05,73.792
0.53,-1.282,0.03,-140.442,90.637,87.769
0.559,-1.303,0.045,-146.606,84.717,104.126
0.557,-1.32,0.042,-155.151,77.026,119.446
0.524,-1.326,0.03,-165.649,69.58,131.958
0.48,-1.325,0.014,-177.124,65.857,140.503
0.45,-1.313,0.0,-189.636,66.895,144.714
0.43,-1.285,-0.013,-201.05,72.144,144.287
0.416,-1.239,-0.03,-210.266,80.811,141.968
0.41,-1.189,-0.046,-217.041,92.102,139.832
0.409,-1.122,-0.077,-218.445,105.103,138.55
0.462,-1.027,-0.061,-213.684,120.239,139.526
0.548,-0.956,-0.029,-202.332,134.46,145.569
0.633,-0.908,-0.007,-186.218,143.738,154.907
0.703,-0.864,0.015,-167.725,148.437,165.833
0.75,-0.83,0.028,-147.949,150.085,174.377
0.756,-0.824,0.03,-128.235,150.452,178.162
0.771,-0.814,0.035,-110.291,151.123,177.612
0.809,-0.817,0.051,-95.703,151.306,174.927
0.861,-0.827,0.059,-85.693,149.963,172.852
0.897,-0.823,0.071,-80.994,146.79,174.133
0.939,-0.808,0.087,-81.055,141.724,179.749
-0.686,-1.722,-0.499,247.559,-154.053,-138.489
-0.558,-1.964,-0.417,263.062,-138.123,-171.021
-0.422,-2.231,-0.311,270.447,-129.578,-199.585
-0.303,-2.386,-0.074,267.761,-125.732,-226.929
-0.159,-2.329,0.169,260.498,-124.268,-254.333
-0.041,-2.262,0.344,261.658,-126.892,-281.982
0.042,-2.264,0.416,270.203,-129.761,-308.35
0.151,-2.253,0.452,285.583,-132.629,-330.078
0.287,-2.247,0.492,303.955,-138.367,-341.248
0.393,-2.248,0.534,325.623,-147.4,-344.238
0.445,-2.173,0.587,348.816,-158.813,-340.759
0.444,-2.078,0.603,375.366,-167.786,-328.247
0.476,-2.111,0.603,406.921,-170.715,-303.101
0.543,-2.218,0.62,439.514,-172.729,-272.949
0.639,-2.363,0.678,471.985,-174.927,-245.85
0.734,-2.595,0.676,514.221,-178.955,-226.135
0.802,-3.046,0.682,565.308,-177.734,-212.402
0.798,-3.407,0.69,610.657,-160.156,-202.637
0.811,-3.647,0.732,639.099,-129.333,-190.125
0.965,-3.678,0.773,650.085,-93.567,-174.255
1.018,-3.602,0.793,648.315,-60.547,-160.034
1.009,-3.608,0.846,640.991,-35.095,-153.503
1.003,-3.604,0.942,628.052,-19.165,-159.79
0.967,-3.48,1.008,613.098,-10.742,-176.819
0.932,-3.389,1.051,594.543,-6.47,-197.144
0.969,-3.275,1.051,567.993,-5.066,-215.881
1.029,-3.081,1.058,529.419,-6.042,-228.271
1.113,-2.788,1.046,479.492,-12.024,-228.271
1.187,-2.458,1.008,420.349,-26.733,-211.67
1.122,-2.099,0.939,358.093,-46.326,-179.993
0.966,-1.877,0.841,296.692,-64.453,-138.367
0.792,-1.682,0.745,233.826,-75.073,-92.468
0.524,-1.477,0.621,166.26,-74.768,-40.283
0.303,-1.406,0.53,95.825,-58.594,14.587
0.11,-1.347,0.448,25.33,-32.959,62.5
-0.081,-1.304,0.351,-38.94,-0.183,105.042
-0.189,-1.304,0.307,-92.163,35.767,141.724
-0.242,-1.335,0.206,-133.972,68.237,170.105
-0.327,-1.289,0.121,-166.382,98.267,188.599
-0.444,-1.115,0.074,-188.477,124.695,204.102
-0.47,-1.253,-0.14,-200.134,141.785,218.262
-0.455,-1.181,-0.133,-206.482,155.273,208.801
-0.458,-0.778,-0.157,-204.651,153.015,192.627
-0.368,-0.77,-0.268,-183.167,138.428,183.044
-0.475,-0.669,-0.224,-155.701,121.582,158.63
-0.357,-0.714,-0.233,-119.568,105.042,121.399
-0.195,-0.588,-0.207,-80.566,82.825,86.548
-0.215,-0.844,-0.427,-46.814,56.519,59.631
-0.159,-0.873,-0.329,-26.794,33.386,39.734
-0.133,-0.779,-0.27,-17.578,13.062,25.269
-0.079,-0.839,-0.246,-6.836,-8.057,20.508
-0.019,-0.911,-0.251,-1.404,-26.672,18.86
0.056,-0.976,-0.18,0.183,-37.598,21.301
-0.046,-1.059,-0.188,-6.348,-40.771,23.743
-0.154,-1.107,-0.362,-11.719,-35.522,17.639
-0.168,-1.063,-0.222,-17.517,-16.479,20.264
-0.13,-1.097,-0.282,-24.292,-5.859,25.94
-0.07,-1.152,-0.285,-32.776,3.479,34.241
-0.026,-1.198,-0.302,-42.725,10.681,42.053
-0.02,-1.196,-0.311,-52.551,15.93,46.326
0.037,-1.212,-0.312,-61.34,19.897,48.401
0.095,-1.224,-0.326,-68.909,21.118,47.668
0.142,-1.234,-0.307,-74.951,19.836,47.18
0.18,-1.256,-0.296,-78.125,14.587,47.852
0.181,-1.266,-0.295,-79.407,8.728,48.706
0.136,-1.269,-0.299,-80.139,4.15,51.208
0.077,-1.224,-0.361,-83.496,2.197,55.603
0.008,-1.182,-0.402,-91.064,4.333,62.988
-0.061,-1.188,-0.447,-100.83,9.155,71.716
-0.123,-1.193,-0.46,-110.657,18.738,79.102
-0.139,-1.188,-0.444,-118.164,32.043,84.595
-0.131,-1.187,-0.402,-122.681,44.373,87.769
-0.121,-1.212,-0.358,-123.596,54.016,88.928
-0.1,-1.216,-0.301,-122.681,60.608,87.219
-0.084,-1.199,-0.246,-120.789,64.209,83.374
-0.02,-1.192,-0.254,-118.774,65.002,78.125
0.083,-1.191,-0.271,-121.704,62.5,70.129
0.143,-1.187,-0.295,-128.113,54.993,62.073
0.181,-1.16,-0.304,-135.315,44.006,56.519
0.177,-1.138,-0.308,-140.991,32.532,54.382
0.138,-1.151,-0.321,-143.616,23.071,54.993
0.078,-1.15,-0.314,-144.287,18.86,56.763
0.021,-1.144,-0.286,-142.578,20.691,59.509
-0.0,-1.16,-0.252,-139.465,27.71,62.805
0.006,-1.187,-0.208,-137.695,38.391,65.613
0.057,-1.189,-0.19,-138.489,50.293,67.749
0.142,-1.202,-0.179,-143.738,60.242,67.749
0.232,-1.222,-0.168,-151.428,66.833,66.833
0.325,-1.24,-0.147,-159.302,69.031,66.345
0.392,-1.234,-0.115,-166.809,66.895,67.139
0.421,-1.217,-0.084,-172.302,60.852,70.068
0.45,-1.193,-0.056,-174.072,52.795,74.524
0.47,-1.167,-0.04,-171.875,44.006,79.102
0.446,-1.161,-0.032,-166.138,34.912,83.008
0.453,-1.171,-0.015,-160.217,30.212,85.754
0.448,-1.174,-0.028,-154.663,28.32,87.769
0.45,-1.17,-0.005,-149.658,31.555,90.393
0.496,-1.142,-0.007,-147.644,39.612,92.651
0.53,-1.107,-0.017,-144.531,47.241,97.473
0.565,-1.076,-0.014,-141.052,55.847,103.638
0.611,-1.046,-0.017,-136.658,64.575,110.046
0.643,-1.016,-0.022,-131.409,73.547,115.601
0.67,-0.987,-0.025,-125.916,82.397,120.728
0.692,-0.958,-0.023,-119.019,90.637,124.878
0.74,-0.939,-0.002,-111.328,98.389,128.723
0.831,-0.949,0.043,-102.966,101.318,132.996
0.91,-0.942,0.076,-96.069,94.666,135.864
0.941,-0.933,0.101,-90.881,79.346,136.475
0.954,-0.924,0.11,-86.792,59.875,136.841
0.946,-0.897,0.105,-82.764,39.612,137.329
0.885,-0.852,0.092,-78.186,23.132,137.817
0.819,-0.805,0.088,-72.327,14.16,139.343
0.766,-0.774,0.099,-64.819,13.245,142.395
0.768,-0.772,0.108,-55.847,18.372,146.057
0.716,-0.796,0.056,-47.974,28.687,149.902
0.6,-0.774,0.068,-43.579,48.584,154.358
0.62,-0.736,0.123,-41.748,73.792,161.743
0.68,-0.746,0.12,-40.527,96.497,168.579
0.739,-0.749,0.166,-41.809,116.882,173.157
-0.618,-1.569,-0.678,106.445,-98.145,-165.405
-0.611,-1.69,-0.757,112.976,-96.069,-183.899
-0.571,-1.751,-0.777,126.953,-93.323,-212.341
-0.472,-1.781,-0.748,154.175,-92.529,-246.399
-0.324,-1.787,-0.692,194.336,-96.985,-283.02
-0.205,-1.828,-0.623,246.46,-107.3,-319.153
-0.055,-1.913,-0.552,305.542,-124.451,-346.741
0.073,-2.04,-0.529,368.286,-149.292,-364.807
0.061,-2.19,-0.498,429.871,-177.246,-377.625
0.006,-2.38,-0.488,488.647,-203.979,-384.766
-0.056,-2.664,-0.547,545.41,-224.365,-393.433
-0.031,-3.183,-0.541,596.069,-231.079,-404.114
-0.099,-3.459,-0.505,635.071,-226.501,-418.762
-0.179,-3.906,-0.457,670.471,-206.604,-422.485
-0.17,-4.0,-0.428,702.454,-171.326,-422.607
-0.175,-4.0,-0.391,722.778,-127.014,-413.452
-0.178,-4.0,-0.35,732.605,-77.881,-398.315
-0.043,-4.0,-0.152,724.426,-33.142,-395.508
0.26,-4.0,0.158,710.571,-1.77,-398.132
0.547,-4.0,0.508,710.937,5.127,-402.344
0.717,-4.0,0.695,709.534,-5.798,-416.321
0.829,-4.0,0.573,683.472,-27.588,-430.908
1.086,-4.0,0.512,616.882,-40.1,-433.533
1.521,-3.942,0.498,513.916,-46.387,-428.284
2.02,-3.38,0.57,410.706,-52.307,-423.279
2.507,-2.811,0.911,328.247,-71.045,-415.649
2.536,-2.462,1.111,271.851,-127.991,-382.935
2.256,-2.033,1.099,226.929,-211.792,-321.228
1.701,-1.75,0.795,177.429,-298.035,-228.821
0.915,-1.606,0.491,115.967,-352.783,-122.559
0.07,-1.554,0.084,38.147,-356.018,-14.954
-0.676,-1.426,-0.253,-50.537,-297.18,83.557
-1.255,-1.361,-0.412,-142.761,-187.378,167.908
-1.614,-1.24,-0.596,-228.088,-56.58,234.009
-1.805,-1.12,-0.806,-300.049,86.182,290.771
-1.838,-1.067,-0.927,-350.281,229.614,338.379
-1.6,-1.046,-0.9,-372.437,354.858,367.432
-1.12,-0.89,-0.712,-369.385,441.65,378.845
-0.445,-0.967,-0.365,-339.722,473.511,382.996
0.125,-1.023,-0.173,-291.87,439.575,361.877
0.408,-1.064,-0.006,-236.145,359.436,317.322
0.369,-0.942,0.002,-179.932,253.479,254.761
0.112,-0.865,-0.223,-123.901,148.071,185.913
-0.109,-0.923,-0.386,-70.129,69.458,116.516
-0.165,-0.672,-0.292,-37.476,12.817,54.749
-0.221,-0.789,-0.39,-4.089,-33.813,23.682
-0.397,-0.953,-0.577,20.02,-68.42,5.615
-0.608,-0.75,-0.488,22.766,-72.449,-11.414
-0.683,-0.854,-0.516,35.767,-59.998,-14.282
-0.635,-0.941,-0.455,45.349,-34.363,-16.602
-0.504,-0.983,-0.368,49.194,-4.761,-19.47
-0.341,-0.994,-0.316,49.927,19.714,-22.156
-0.043,-1.149,-0.199,47.546,36.072,-21.729
0.042,-1.09,-0.104,40.405,38.574,-20.447
0.197,-1.16,-0.062,32.898,29.175,-15.32
0.247,-1.249,-0.075,21.606,14.221,-8.24
0.27,-1.259,-0.057,6.653,-1.282,-7.446
0.193,-1.304,-0.07,-8.911,-15.93,-0.122
0.153,-1.345,-0.121,-26.855,-26.794,8.606
0.057,-1.405,-0.177,-45.837,-28.687,20.325
-0.039,-1.434,-0.256,-63.599,-20.935,30.273
-0.081,-1.403,-0.253,-81.909,-3.906,40.039
-0.041,-1.411,-0.276,-99.365,13.977,51.453
-0.007,-1.423,-0.301,-113.953,30.762,62.988
0.01,-1.409,-0.286,-127.197,45.349,74.28
0.023,-1.405,-0.268,-137.39,54.993,85.388
0.039,-1.426,-0.251,-145.63,60.974,95.581
0.045,-1.419,-0.241,-152.71,63.66,103.088
0.044,-1.424,-0.237,-159.119,64.453,109.314
0.046,-1.439,-0.221,-165.161,65.125,113.464
0.08,-1.447,-0.188,-172.119,64.88,114.38
0.117,-1.458,-0.186,-179.321,61.279,112.427
0.152,-1.491,-0.173,-187.622,57.19,109.07
0.173,-1.477,-0.166,-195.74,51.941,103.943
0.179,-1.422,-0.169,-202.942,46.875,98.755
0.229,-1.392,-0.153,-209.473,42.603,95.276
0.263,-1.378,-0.139,-215.271,37.292,94.36
0.301,-1.367,-0.132,-220.398,29.907,96.741
0.331,-1.374,-0.112,-224.976,22.827,100.952
0.366,-1.393,-0.091,-228.76,18.433,105.225
0.415,-1.398,-0.099,-232.056,14.954,108.765
0.39,-1.374,-0.083,-234.558,13.672,115.417
0.386,-1.328,-0.037,-238.342,20.569,122.559
0.404,-1.311,-0.059,-241.028,28.076,130.493
0.351,-1.268,-0.072,-241.516,39.124,140.564
0.355,-1.226,-0.011,-242.31,60.791,148.621
0.43,-1.207,-0.002,-240.784,83.374,156.677
0.498,-1.194,0.001,-236.877,104.126,164.001
0.56,-1.146,0.044,-232.422,124.023,172.058
0.618,-1.097,0.073,-226.318,140.137,181.763
0.647,-1.046,0.079,-218.323,153.503,192.017
0.672,-0.991,0.089,-210.51,165.955,203.613
0.696,-0.95,0.09,-202.942,177.551,215.21
0.711,-0.909,0.08,-195.435,188.11,225.281
0.728,-0.867,0.069,-187.622,197.815,232.422
0.722,-0.823,0.045,-178.711,207.886,236.938
0.763,-0.801,0.039,-169.006,218.811,239.624
0.879,-0.788,0.048,-159.851,228.699,241.577
0.941,-0.749,0.053,-149.963,233.337,241.394
0.935,-0.693,0.054,-139.526,232.849,240.601
0.95,-0.638,0.043,-127.136,230.103,239.197
1.002,-0.559,0.079,-114.258,226.807,237.976
1.005,-0.512,0.079,-99.182,218.628,238.037
0.968,-0.476,0.063,-83.557,207.397,237.488
0.936,-0.464,0.041,-69.031,197.205,238.037
0.889,-0.446,0.021,-57.068,191.345,240.173
0.865,-0.408,0.007,-47.363,188.293,241.76
0.869,-0.385,0.021,-39.978,186.34,241.516
0.868,-0.391,0.039,-33.752,181.702,238.037
0.887,-0.378,0.047,-29.419,171.692,231.262
0.875,-0.327,0.062,-24.902,157.532,222.351
0.835,-0.27,0.065,-18.25,139.16,213.44
0.817,-0.254,0.025,-9.705,120.605,204.956
0.788,-0.242,-0.014,-2.014,106.323,197.51
0.731,-0.198,-0.02,3.479,95.642,190.002
0.659,-0.19,-0.033,8.423,88.745,183.167
0.647,-0.309,-0.081,12.329,84.961,176.147
0.565,-0.225,-0.075,12.695,85.449,158.447
0.502,-0.116,-0.044,16.479,88.806,139.587
-1.11,-1.481,-0.375,150.269,-125.854,-141.052
-1.108,-1.733,-0.405,145.752,-98.633,-159.119
-1.058,-1.906,-0.402,137.146,-70.801,-189.758
-0.974,-1.992,-0.35,129.15,-45.471,-232.483
-0.832,-2.049,-0.292,128.357,-24.719,-284.058
-0.646,-2.098,-0.212,136.597,-9.338,-341.125
-0.47,-2.112,-0.119,155.457,0.0,-400.391
-0.33,-2.097,-0.051,185.852,4.822,-457.336
-0.2,-2.115,-0.017,225.586,6.47,-510.132
-0.033,-2.162,0.014,274.841,6.897,-561.707
0.147,-2.299,0.047,334.229,2.808,-607.117
0.272,-2.533,0.071,396.851,-10.559,-642.822
0.295,-2.825,0.045,465.027,-29.419,-676.331
0.076,-3.343,-0.004,540.283,-39.429,-707.764
0.01,-4.0,0.135,602.661,-15.442,-723.022
0.46,-4.0,0.189,599.731,34.18,-703.979
0.703,-4.0,-0.114,558.289,70.19,-659.973
0.932,-4.0,-0.456,522.583,72.937,-617.676
1.218,-4.0,-0.345,485.84,36.987,-574.036
1.443,-4.0,-0.111,434.082,-30.518,-533.081
1.449,-4.0,-0.033,378.296,-107.849,-495.972
1.388,-4.0,0.015,334.167,-173.523,-453.43
1.277,-3.734,0.019,302.185,-227.539,-416.321
1.067,-3.26,-0.005,281.982,-252.502,-387.085
0.902,-2.932,-0.098,267.212,-242.432,-360.718
0.98,-2.688,-0.131,248.901,-198.914,-334.778
1.324,-2.322,-0.007,223.999,-135.559,-306.946
1.686,-2.018,0.138,199.585,-83.252,-272.034
1.955,-1.786,0.304,176.27,-60.608,-224.304
1.994,-1.521,0.407,150.94,-72.449,-157.043
1.718,-1.338,0.401,125.61,-108.154,-75.562
1.23,-1.436,0.354,101.99,-146.606,17.7
0.698,-1.566,0.224,73.12,-168.945,105.469
0.073,-1.67,0.13,38.513,-160.095,176.392
-0.539,-1.76,0.019,3.784,-118.958,231.079
-0.99,-1.708,-0.02,-33.142,-46.204,266.663
-1.27,-1.515,-0.078,-69.336,43.762,288.696
-1.327,-1.354,-0.119,-101.257,138.916,301.025
-1.718,-1.13,-0.848,-126.77,226.929,300.354
-1.181,-1.004,-0.25,-143.616,315.369,293.335
-0.607,-0.944,-0.138,-152.527,364.441,276.001
-0.487,-0.914,-0.091,-146.118,379.761,257.812
-0.264,-0.893,0.0,-137.756,363.953,242.92
0.012,-0.819,0.047,-125.793,323.12,231.873
0.112,-0.792,0.002,-108.521,261.23,220.215
0.049,-0.793,-0.013,-92.59,204.59,202.515
-0.051,-0.816,-0.098,-78.674,153.87,180.115
-0.101,-0.83,-0.183,-66.406,116.211,154.48
-0.144,-0.844,-0.247,-56.702,92.102,126.892
-0.17,-0.971,-0.251,-46.326,78.918,102.295
-0.127,-0.868,-0.259,-40.894,67.139,81.238
-0.159,-0.801,-0.293,-35.461,56.274,65.552
-0.058,-0.944,-0.236,-30.518,46.753,59.387
-0.047,-1.006,-0.279,-26.062,32.166,52.734
-0.078,-1.019,-0.235,-25.818,22.461,48.035
-0.099,-1.03,-0.248,-26.672,12.146,46.57
-0.132,-1.097,-0.278,-29.48,5.188,47.607
-0.152,-1.147,-0.292,-35.522,3.357,48.645
-0.168,-1.129,-0.294,-44.189,5.676,49.255
-0.185,-1.095,-0.308,-52.917,10.132,51.636
-0.165,-1.087,-0.363,-61.157,15.808,55.298
-0.142,-1.077,-0.395,-70.374,22.034,57.983
-0.119,-1.073,-0.436,-78.552,26.794,61.096
-0.097,-1.069,-0.44,-84.717,29.602,63.965
-0.103,-1.055,-0.454,-87.036,29.419,66.345
-0.128,-1.047,-0.471,-84.717,27.771,68.848
-0.149,-1.051,-0.485,-79.224,26.245,71.045
-0.176,-1.032,-0.495,-71.655,26.184,71.167
-0.188,-1.018,-0.486,-62.439,27.283,69.58
-0.187,-1.004,-0.475,-53.284,29.419,66.467
-0.19,-0.985,-0.441,-45.349,31.799,63.171
-0.179,-0.99,-0.407,-38.025,33.325,60.425
-0.148,-1.021,-0.378,-32.715,33.691,57.556
-0.1,-1.045,-0.35,-29.48,32.593,54.077
-0.052,-1.041,-0.325,-28.015,28.503,49.5
-0.025,-1.041,-0.306,-27.588,21.301,44.8
-0.018,-1.043,-0.294,-28.32,11.719,41.077
-0.019,-1.05,-0.285,-29.602,0.854,38.208
-0.003,-1.061,-0.272,-31.25,-8.606,35.95
0.019,-1.077,-0.261,-32.715,-17.456,33.081
0.037,-1.082,-0.245,-34.18,-26.978,29.48
0.054,-1.082,-0.231,-36.194,-36.682,26.306
0.076,-1.091,-0.218,-38.574,-46.204,23.254
0.1,-1.1,-0.206,-41.382,-55.481,19.775
0.138,-1.115,-0.189,-44.434,-64.88,15.991
0.186,-1.129,-0.17,-48.584,-74.585,12.146
0.229,-1.138,-0.146,-53.284,-85.022,8.484
0.286,-1.162,-0.116,-59.021,-95.825,5.493
0.347,-1.188,-0.09,-64.941,-107.544,3.113
0.381,-1.204,-0.074,-71.35,-119.995,0.916
0.391,-1.212,-0.056,-78.43,-132.751,-0.061
0.401,-1.224,-0.033,-85.388,-144.775,0.61
0.414,-1.243,-0.013,-91.248,-156.433,2.502
0.418,-1.271,0.006,-96.558,-167.114,4.944
0.398,-1.298,0.009,-101.196,-177.307,7.202
0.357,-1.305,0.011,-106.201,-184.937,10.132
0.312,-1.294,0.019,-111.45,-188.293,14.709
0.292,-1.281,0.036,-116.577,-187.744,21.362
0.279,-1.285,0.052,-121.582,-183.899,29.907
0.247,-1.287,0.064,-126.099,-176.758,39.185
0.19,-1.27,0.074,-129.883,-165.833,48.279
0.151,-1.245,0.092,-132.69,-149.292,57.861
0.132,-1.235,0.108,-134.949,-127.258,68.176
0.096,-1.227,0.11,-136.902,-101.501,79.834
0.057,-1.214,0.115,-138.062,-71.838,91.003
0.042,-1.191,0.125,-138.062,-38.391,100.891
0.052,-1.168,0.14,-136.292,-3.54,107.849
0.068,-1.13,0.147,-132.385,30.457,111.938
0.118,-1.084,0.167,-126.77,62.988,113.77
0.193,-1.052,0.19,-118.835,91.064,114.868
0.24,-1.026,0.194,-110.168,113.831,116.577
0.293,-0.995,0.201,-100.769,131.531,119.812
0.379,-0.969,0.221,-90.271,145.142,124.817
0.438,-0.939,0.23,-79.041,153.381,130.066
0.445,-0.905,0.228,-67.81,157.654,134.094
0.449,-0.889,0.224,-57.495,161.316,136.414
0.504,-0.899,0.231,-48.523,166.443,137.695
0.569,-0.908,0.24,-41.87,171.326,139.343
0.605,-0.889,0.236,-37.781,173.828,140.869
-1.49,-1.821,-0.493,38.086,-154.358,-36.377
-1.537,-2.042,-0.614,10.742,-122.498,-43.518
-1.536,-2.342,-0.683,-12.939,-88.928,-69.031
-1.54,-2.347,-0.838,-21.973,-53.894,-123.596
-1.516,-1.918,-1.037,0.732,-12.451,-210.632
-1.282,-1.346,-0.95,66.772,29.175,-320.251
-0.945,-1.347,-0.64,183.044,57.251,-437.927
-0.694,-1.877,-0.435,327.759,61.157,-541.199
-0.438,-2.41,-0.481,464.6,42.725,-613.159
0.021,-2.979,-0.546,580.444,12.817,-656.189
0.484,-3.504,-0.68,679.81,-26.306,-677.185
0.79,-3.991,-0.782,754.7,-78.125,-684.937
1.38,-4.0,-0.749,805.298,-137.939,-680.359
2.167,-4.0,-0.626,822.998,-217.285,-639.465
2.432,-4.0,-0.58,801.575,-313.171,-573.853
2.424,-4.0,-0.343,746.887,-389.221,-504.028
2.357,-4.0,0.059,645.996,-441.65,-423.889
1.71,-4.0,0.316,533.569,-463.806,-348.45
1.006,-3.647,0.62,442.688,-429.626,-293.091
0.672,-3.314,0.793,373.169,-342.224,-250.977
0.489,-3.156,0.804,313.843,-225.586,-213.196
0.491,-2.916,0.774,251.282,-100.403,-169.434
0.604,-2.607,0.631,186.768,15.015,-113.403
0.644,-2.304,0.453,128.967,114.807,-53.406
0.708,-2.07,0.288,86.548,201.843,0.732
0.926,-1.911,0.263,60.364,274.231,40.588
1.241,-1.755,0.383,47.485,321.35,63.477
1.444,-1.595,0.535,39.368,324.28,71.716
1.44,-1.453,0.63,32.043,280.457,72.754
1.232,-1.359,0.587,24.414,209.473,68.298
0.907,-1.268,0.476,16.174,135.437,58.105
0.623,-1.181,0.366,9.827,76.904,44.8
0.424,-1.094,0.27,6.042,36.743,31.677
0.363,-1.067,0.142,4.333,10.803,22.034
0.198,-0.908,0.077,1.221,-6.042,15.808
0.208,-0.975,0.231,-2.136,-14.709,21.606
-0.0,-0.961,-0.007,-5.005,-21.667,25.757
-0.201,-0.893,0.012,-16.296,-5.371,25.208
-0.322,-0.836,0.008,-16.052,7.08,47.913
-0.318,-0.711,-0.123,-22.827,14.587,27.1
-0.185,-0.898,0.02,-24.902,41.26,37.292
-0.198,-0.746,0.066,-28.687,61.523,37.292
0.053,-1.005,-0.011,-30.579,70.862,44.434
0.075,-1.109,-0.105,-32.043,65.735,46.265
-0.115,-0.84,-0.149,-37.415,64.941,33.569
-0.016,-0.876,-0.035,-38.391,67.261,30.762
0.081,-0.991,-0.174,-34.241,54.626,29.114
0.164,-0.956,-0.165,-34.973,35.034,29.297
0.093,-0.919,-0.212,-37.598,14.526,29.236
-0.05,-0.977,-0.327,-35.767,-1.404,27.344
-0.119,-0.935,-0.31,-33.569,-4.822,21.667
-0.124,-0.932,-0.359,-29.358,-4.822,18.616
-0.142,-0.991,-0.401,-25.696,-2.625,18.738
-0.16,-1.011,-0.43,-25.574,3.479,19.531
-0.146,-1.02,-0.448,-27.893,11.475,18.982
-0.133,-1.029,-0.464,-31.921,19.958,18.25
-0.11,-1.029,-0.472,-36.499,27.527,18.372
-0.062,-1.037,-0.467,-41.26,33.142,20.203
-0.028,-1.048,-0.47,-46.021,35.4,23.193
-0.027,-1.04,-0.477,-50.293,35.034,26.978
-0.022,-1.03,-0.496,-54.565,34.119,31.128
-0.015,-1.021,-0.514,-59.204,32.959,34.729
-0.039,-1.006,-0.564,-63.049,30.701,37.537
-0.05,-0.987,-0.6,-66.406,28.992,39.795
-0.056,-0.966,-0.629,-68.237,27.771,41.26
-0.091,-0.938,-0.653,-67.261,26.001,42.358
-0.126,-0.926,-0.65,-64.026,25.513,44.067
-0.156,-0.938,-0.645,-58.899,27.039,45.532
-0.156,-0.949,-0.629,-52.979,30.823,45.105
-0.128,-0.947,-0.593,-47.607,35.339,42.419
-0.079,-0.948,-0.546,-43.335,37.537,38.513
-0.031,-0.953,-0.497,-39.612,36.194,35.156
0.0,-0.966,-0.455,-36.987,32.166,32.288
0.017,-0.974,-0.43,-36.377,26.978,29.48
0.023,-0.967,-0.419,-37.354,21.912,26.367
0.014,-0.96,-0.406,-39.856,17.517,24.963
0.006,-0.974,-0.402,-42.48,13.672,25.452
-0.001,-0.989,-0.383,-44.983,10.864,26.062
0.007,-1.002,-0.382,-46.814,9.583,26.123
0.004,-1.018,-0.379,-48.218,9.644,25.146
-0.001,-1.02,-0.353,-48.34,11.108,24.292
0.009,-1.018,-0.328,-46.936,13.611,24.719
0.028,-1.036,-0.309,-44.556,16.846,25.513
0.069,-1.053,-0.304,-42.603,20.752,25.818
0.113,-1.063,-0.289,-42.725,24.658,25.513
0.156,-1.091,-0.277,-44.25,27.1,26.428
0.183,-1.101,-0.255,-46.387,28.564,27.588
0.2,-1.093,-0.231,-49.072,29.236,29.48
0.224,-1.111,-0.217,-51.514,30.212,32.532
0.239,-1.136,-0.199,-54.504,31.677,36.255
0.247,-1.152,-0.184,-58.96,33.508,40.588
0.261,-1.169,-0.164,-63.965,35.645,46.204
0.282,-1.189,-0.146,-69.153,37.72,51.636
0.305,-1.195,-0.122,-75.317,39.978,57.983
