aX,aY,aZ,gX,gY,gZ
-0.729,-1.324,0.9,40.833,-71.777,-23.682
-0.866,-1.392,0.892,28.259,-67.566,-47.974
-0.983,-1.441,0.847,10.193,-55.664,-74.707
-1.05,-1.469,0.775,-11.353,-36.011,-102.6
-1.047,-1.517,0.733,-36.438,-10.254,-129.578
-1.005,-1.538,0.673,-65.369,17.761,-155.334
-0.94,-1.543,0.617,-94.482,47.546,-179.81
-0.792,-1.546,0.538,-121.277,76.843,-203.613
-0.582,-1.551,0.475,-145.63,103.76,-224.792
-0.386,-1.561,0.42,-166.565,126.648,-242.493
-0.176,-1.567,0.353,-183.289,142.944,-259.338
0.061,-1.549,0.305,-194.946,152.71,-275.208
0.345,-1.51,0.282,-201.05,155.09,-287.476
0.592,-1.481,0.285,-201.538,147.217,-293.152
0.781,-1.443,0.301,-199.219,128.967,-294.495
0.936,-1.398,0.298,-193.298,104.309,-293.884
1.044,-1.34,0.293,-183.655,78.613,-289.429
1.114,-1.256,0.307,-171.204,55.664,-281.067
1.166,-1.166,0.323,-157.227,35.339,-270.081
1.205,-1.098,0.349,-141.357,19.409,-257.263
1.242,-1.032,0.364,-126.953,7.324,-241.882
1.285,-0.983,0.368,-114.075,-1.526,-223.022
1.31,-0.952,0.364,-102.722,-7.019,-201.599
1.321,-0.953,0.336,-93.567,-10.193,-177.795
1.353,-0.989,0.328,-88.379,-9.521,-153.259
1.386,-0.979,0.335,-89.233,-7.751,-131.653
1.434,-0.961,0.295,-94.116,-7.812,-110.718
1.508,-1.002,0.276,-100.83,-7.69,-89.172
1.603,-1.007,0.237,-109.497,-13.733,-73.792
1.681,-0.917,0.141,-115.845,-26.855,-63.965
1.702,-0.805,0.077,-114.746,-39.001,-52.612
1.683,-0.712,0.03,-105.469,-49.683,-38.086
1.651,-0.672,0.013,-90.088,-57.617,-20.569
1.592,-0.6,0.026,-71.655,-61.768,-1.709
1.521,-0.584,0.001,-51.88,-63.232,20.386
1.452,-0.584,-0.0,-32.166,-61.523,43.823
1.372,-0.593,0.014,-13.306,-56.702,67.871
1.313,-0.621,0.052,3.479,-51.331,90.454
1.268,-0.649,0.091,18.738,-47.729,108.704
1.223,-0.685,0.124,33.569,-46.814,122.314
1.169,-0.729,0.144,46.997,-47.424,133.911
1.139,-0.785,0.166,57.739,-49.438,144.409
1.105,-0.841,0.202,65.674,-52.185,155.273
1.06,-0.89,0.241,71.167,-55.603,168.396
1.026,-0.929,0.279,74.402,-60.913,184.57
0.988,-0.956,0.316,77.515,-66.711,202.637
0.942,-0.979,0.347,81.726,-72.815,219.849
0.873,-1.003,0.371,87.585,-79.285,234.314
0.786,-1.029,0.382,95.215,-85.999,245.3
0.699,-1.058,0.388,104.309,-91.98,253.662
0.596,-1.077,0.398,115.112,-96.191,260.925
0.501,-1.109,0.411,127.075,-98.389,267.517
0.405,-1.174,0.42,139.465,-98.328,273.315
0.321,-1.254,0.446,149.719,-96.924,276.062
0.277,-1.302,0.505,156.738,-95.215,274.963
0.225,-1.334,0.594,160.645,-95.764,273.071
0.132,-1.377,0.652,160.583,-100.769,271.912
0.044,-1.444,0.629,154.663,-106.689,269.409
-0.025,-1.508,0.642,144.775,-107.605,262.817
-0.089,-1.53,0.711,132.568,-105.652,251.282
-0.154,-1.518,0.751,117.554,-106.079,238.647
-0.205,-1.514,0.77,100.464,-106.873,226.013
-0.251,-1.506,0.772,83.557,-106.873,212.097
-0.314,-1.489,0.739,66.772,-105.53,196.045
-0.386,-1.469,0.7,50.964,-100.464,179.81
-0.437,-1.434,0.669,37.781,-92.285,163.818
-0.486,-1.399,0.634,26.489,-82.642,148.376
-0.494,-1.387,0.614,17.151,-70.496,134.583
-0.505,-1.362,0.595,9.094,-57.8,121.399
-0.529,-1.316,0.576,1.587,-45.898,109.07
-0.558,-1.283,0.56,-4.211,-33.936,98.816
-0.571,-1.267,0.554,-8.057,-21.729,90.271
-0.568,-1.247,0.547,-11.475,-10.986,81.116
-0.575,-1.21,0.538,-14.893,-1.953,71.106
-0.619,-1.165,0.509,-17.517,6.104,60.486
-0.687,-1.124,0.464,-18.799,15.381,50.232
-0.686,-1.117,0.437,-18.86,27.893,40.955
-0.663,-1.136,0.476,-18.005,41.077,30.09
-0.652,-1.127,0.473,-18.372,49.988,16.357
-0.673,-1.102,0.444,-20.508,55.298,2.441
-0.645,-1.101,0.481,-20.264,62.256,-10.132
-0.646,-1.072,0.435,-20.569,63.049,-24.963
-0.636,-1.061,0.424,-20.325,66.04,-39.978
-0.607,-1.057,0.398,-19.897,68.726,-56.152
-0.559,-1.073,0.382,-20.142,72.021,-72.876
-0.524,-1.077,0.349,-21.606,73.547,-90.698
-0.495,-1.08,0.345,-23.437,75.378,-107.605
-0.459,-1.082,0.363,-24.841,76.233,-123.291
-0.421,-1.083,0.367,-25.208,74.402,-137.39
-0.388,-1.086,0.365,-24.597,71.289,-150.269
-0.372,-1.091,0.365,-23.071,68.237,-161.56
-0.362,-1.109,0.363,-20.569,66.406,-171.814
-0.335,-1.137,0.359,-17.578,66.65,-182.007
-0.303,-1.164,0.357,-15.076,69.214,-192.627
-0.267,-1.208,0.362,-13.062,74.036,-203.003
-0.216,-1.25,0.369,-12.085,80.322,-213.318
-0.165,-1.292,0.395,-12.695,86.67,-223.755
-0.099,-1.322,0.4,-14.587,91.614,-234.985
-0.013,-1.351,0.394,-17.944,96.863,-245.239
0.035,-1.405,0.4,-21.118,102.844,-256.104
0.101,-1.426,0.413,-25.146,107.483,-270.447
0.211,-1.418,0.427,-27.649,111.267,-283.508
0.317,-1.425,0.451,-29.358,113.037,-291.87
0.401,-1.453,0.486,-30.64,112.366,-296.021
0.473,-1.458,0.513,-33.752,108.704,-297.485
0.519,-1.444,0.524,-37.537,103.21,-294.861
0.561,-1.417,0.52,-40.955,96.497,-289.062
0.633,-1.398,0.538,-42.664,88.806,-281.982
0.71,-1.369,0.541,-43.518,78.674,-273.743
0.747,-1.347,0.506,-43.335,67.81,-263.367
0.736,-1.303,0.489,-44.25,60.181,-251.709
0.738,-1.286,0.437,-45.532,56.763,-238.525
0.74,-1.195,0.504,-47.058,57.373,-225.769
0.759,-1.119,0.442,-46.509,54.688,-210.51
0.755,-1.176,0.339,-43.701,58.96,-191.04
0.741,-1.139,0.39,-42.297,70.557,-176.575
0.804,-1.131,0.406,-39.124,76.233,-165.039
0.867,-1.125,0.441,-35.645,76.172,-157.349
0.884,-0.986,0.432,-34.302,72.388,-151.978
-0.925,-1.338,0.519,20.874,4.456,-91.37
-1.073,-1.426,0.552,21.179,2.93,-115.173
-1.225,-1.495,0.551,16.418,2.38,-141.235
-1.376,-1.559,0.507,8.118,6.104,-166.687
-1.471,-1.641,0.466,-2.808,17.395,-191.04
-1.426,-1.737,0.427,-16.296,33.813,-218.384
-1.249,-1.832,0.391,-31.921,50.842,-250.549
-1.023,-1.923,0.39,-46.509,65.186,-285.889
-0.813,-1.99,0.397,-59.57,72.693,-324.402
-0.626,-2.009,0.389,-69.275,72.815,-365.784
-0.453,-2.04,0.387,-70.251,70.374,-406.677
-0.235,-2.151,0.432,-60.852,67.444,-446.167
-0.001,-2.281,0.483,-48.401,59.082,-484.68
0.209,-2.358,0.482,-33.875,46.997,-517.578
0.43,-2.409,0.551,-15.991,36.682,-534.973
0.669,-2.596,0.695,-2.136,26.123,-528.87
0.799,-2.573,0.719,-5.066,16.296,-504.7
0.672,-2.351,0.7,-16.541,16.235,-465.454
0.521,-2.13,0.604,-25.696,24.841,-422.058
0.558,-2.061,0.479,-26.245,42.236,-377.808
0.71,-1.911,0.398,-25.757,70.557,-334.351
0.893,-1.758,0.407,-24.414,104.37,-289.673
1.148,-1.701,0.522,-16.296,147.949,-214.783
1.202,-1.585,0.543,-14.282,146.912,-189.88
1.228,-1.479,0.546,-9.888,136.414,-172.241
1.235,-1.423,0.549,-3.906,121.826,-160.828
1.228,-1.35,0.513,0.671,103.149,-154.785
1.224,-1.279,0.463,3.784,85.815,-149.902
1.222,-1.219,0.439,4.517,72.449,-143.555
1.213,-1.157,0.414,2.014,63.049,-134.338
1.189,-1.097,0.379,-2.747,57.19,-123.535
1.137,-0.869,0.38,-6.897,56.58,-108.582
1.029,-0.861,0.295,-3.967,58.411,-82.092
0.949,-0.989,0.276,-3.174,65.43,-57.556
0.939,-0.94,0.298,-9.888,73.975,-40.405
0.939,-0.852,0.326,-13.611,79.163,-22.461
0.946,-0.803,0.347,-13.489,77.393,-3.723
0.887,-0.918,0.332,-11.414,68.42,14.648
0.823,-0.819,0.303,-12.207,57.251,24.719
0.803,-0.738,0.229,-7.263,41.321,34.851
0.768,-0.859,0.27,0.366,27.71,50.903
0.686,-0.924,0.3,0.488,14.526,63.843
0.609,-0.816,0.308,-1.587,0.671,70.923
0.575,-0.732,0.286,2.136,-12.451,79.773
0.521,-0.798,0.266,11.292,-22.888,93.872
0.463,-0.841,0.277,18.86,-28.748,107.422
0.419,-0.84,0.302,24.902,-33.569,119.751
0.358,-0.883,0.281,31.86,-38.94,129.517
0.302,-0.922,0.297,38.696,-41.26,133.667
0.262,-0.892,0.326,46.021,-41.443,135.498
0.231,-0.868,0.325,55.725,-41.992,137.817
0.191,-0.88,0.305,67.505,-40.71,140.991
0.15,-0.932,0.306,79.407,-37.231,143.066
0.108,-0.933,0.302,89.905,-33.936,141.724
0.073,-0.931,0.28,101.44,-30.151,140.991
0.042,-0.963,0.254,114.014,-24.597,141.846
0.045,-1.06,0.246,125.122,-17.639,141.907
0.06,-1.11,0.27,131.592,-11.658,138.062
0.041,-1.068,0.287,133.484,-8.118,134.644
0.115,-1.118,0.325,134.827,-5.615,136.047
0.161,-1.122,0.341,134.827,-7.385,135.01
0.133,-1.186,0.307,133.85,-11.78,135.01
0.094,-1.25,0.304,129.761,-12.329,134.155
0.111,-1.237,0.331,122.559,-10.62,131.897
0.146,-1.218,0.336,115.601,-9.644,132.019
0.171,-1.236,0.333,109.68,-9.216,133.789
0.204,-1.27,0.344,101.929,-8.789,136.292
0.251,-1.282,0.341,91.797,-8.484,139.954
0.308,-1.307,0.333,81.299,-8.606,144.836
0.347,-1.341,0.324,71.106,-9.827,150.391
0.341,-1.335,0.301,60.547,-12.878,156.25
0.317,-1.314,0.3,52.612,-14.893,162.842
0.303,-1.306,0.311,48.096,-14.832,168.945
0.304,-1.288,0.296,44.983,-14.16,173.95
0.285,-1.265,0.305,43.03,-10.437,177.368
0.221,-1.258,0.296,42.908,-5.737,179.81
0.354,-1.342,0.36,40.71,-0.732,179.138
0.229,-1.207,0.278,36.56,-0.305,172.729
0.277,-1.252,0.327,35.95,3.418,170.837
0.304,-1.227,0.316,32.593,5.188,164.673
0.326,-1.212,0.346,30.579,8.484,159.973
0.307,-1.138,0.332,25.574,7.263,152.832
0.3,-1.08,0.313,20.02,5.737,147.583
0.315,-1.035,0.3,14.832,4.883,142.334
0.345,-1.015,0.295,10.498,3.784,137.024
0.377,-1.0,0.282,6.714,2.136,131.958
0.385,-0.965,0.26,3.296,0.305,127.991
0.395,-0.938,0.241,1.648,-0.244,124.817
0.412,-0.898,0.236,0.732,-0.854,122.009
0.416,-0.863,0.233,0.549,-1.892,118.713
0.432,-0.841,0.225,1.099,-2.38,115.417
0.448,-0.812,0.219,2.197,-1.892,111.267
0.446,-0.781,0.22,4.883,-0.732,106.934
0.455,-0.766,0.23,8.423,0.61,103.455
0.47,-0.754,0.234,12.39,1.648,99.792
0.477,-0.76,0.234,15.442,2.502,96.313
0.503,-0.764,0.254,17.212,3.784,93.079
0.523,-0.745,0.275,18.005,2.93,89.172
0.564,-0.74,0.284,18.616,-0.427,85.388
0.616,-0.754,0.284,18.127,-5.066,81.299
0.603,-0.749,0.273,17.09,-10.254,75.806
0.608,-0.723,0.278,15.503,-14.893,70.007
0.618,-0.671,0.287,14.038,-19.531,65.43
0.604,-0.655,0.291,13.794,-24.475,63.721
0.612,-0.647,0.28,13.611,-29.968,61.951
0.632,-0.646,0.272,12.695,-35.095,59.265
0.631,-0.634,0.268,11.841,-39.307,56.274
0.64,-0.626,0.266,11.23,-43.823,52.979
0.641,-0.6,0.26,10.559,-47.729,48.828
0.657,-0.594,0.262,10.498,-50.598,45.105
0.675,-0.579,0.26,10.986,-53.345,41.199
0.687,-0.561,0.251,11.353,-56.213,38.635
0.699,-0.544,0.25,11.963,-59.326,36.56
0.71,-0.527,0.254,12.573,-61.951,35.095
0.709,-0.503,0.251,12.329,-64.575,34.058
0.702,-0.491,0.245,12.085,-66.711,33.386
0.71,-0.496,0.249,11.78,-67.627,33.142
0.711,-0.496,0.249,10.681,-69.275,32.41
0.693,-0.492,0.243,10.01,-70.679,31.189
-0.924,-1.406,0.793,31.982,-50.903,-52.734
-1.0,-1.446,0.754,26.428,-48.889,-82.886
-1.105,-1.505,0.742,20.813,-38.086,-111.633
-1.207,-1.568,0.689,13.672,-22.888,-142.334
-1.208,-1.643,0.642,6.042,-5.981,-177.856
-1.137,-1.721,0.614,-4.822,11.78,-211.792
-1.048,-1.738,0.583,-20.325,29.114,-243.225
-0.911,-1.734,0.55,-37.476,44.983,-271.973
-0.773,-1.761,0.519,-52.063,60.73,-296.021
-0.63,-1.809,0.508,-63.232,76.172,-319.153
-0.459,-1.86,0.481,-73.486,88.562,-342.896
-0.278,-1.922,0.457,-82.458,97.351,-366.089
-0.091,-1.959,0.434,-88.623,100.281,-388.184
0.094,-1.975,0.421,-91.614,96.313,-407.837
0.257,-2.001,0.444,-89.417,85.876,-424.194
0.391,-2.032,0.483,-83.923,67.383,-434.998
0.504,-2.049,0.515,-78.064,41.077,-441.528
0.547,-2.007,0.552,-72.083,11.23,-444.397
0.549,-1.935,0.587,-61.951,-17.212,-445.007
0.547,-1.91,0.598,-47.546,-42.908,-442.871
0.525,-1.934,0.558,-32.166,-62.378,-435.12
0.47,-1.973,0.482,-16.113,-72.754,-424.927
0.408,-2.019,0.415,-1.465,-73.12,-413.086
0.4,-2.048,0.36,8.606,-64.514,-398.071
0.512,-2.162,0.381,15.198,-48.096,-383.301
0.516,-1.966,0.423,17.7,-29.297,-371.948
0.552,-1.965,0.419,25.085,-11.78,-348.694
0.59,-2.038,0.472,32.349,7.324,-331.421
0.606,-1.925,0.459,37.659,23.376,-319.824
0.614,-1.75,0.456,45.715,43.152,-300.293
0.647,-1.762,0.477,56.396,64.209,-275.452
0.668,-1.683,0.41,63.843,81.543,-255.737
0.704,-1.605,0.425,70.007,104.919,-232.544
0.771,-1.495,0.417,72.449,125.427,-210.327
0.848,-1.426,0.385,72.388,142.09,-185.12
0.91,-1.369,0.395,67.627,154.724,-158.508
0.962,-1.304,0.429,58.411,158.386,-131.531
1.0,-1.229,0.434,46.997,150.452,-103.76
1.006,-1.158,0.425,34.241,135.803,-74.585
0.994,-1.093,0.443,20.752,116.638,-43.701
0.957,-1.035,0.449,6.042,90.454,-12.817
0.907,-1.024,0.45,-8.423,59.631,17.395
0.839,-1.066,0.461,-23.987,26.733,44.25
0.738,-1.056,0.426,-41.016,-7.202,65.125
0.628,-1.029,0.386,-56.946,-36.926,82.52
0.517,-1.01,0.351,-70.129,-59.692,97.229
0.418,-1.0,0.314,-80.322,-75.5,109.192
0.317,-0.976,0.268,-87.708,-84.167,118.469
0.229,-0.948,0.243,-91.553,-84.778,126.099
0.159,-0.916,0.222,-92.224,-79.041,132.69
0.106,-0.896,0.207,-89.478,-68.359,138.245
0.075,-0.88,0.209,-83.679,-54.382,142.212
0.067,-0.848,0.222,-75.745,-39.185,145.203
0.078,-0.807,0.24,-64.819,-24.353,148.743
0.097,-0.787,0.261,-52.246,-11.047,153.809
0.115,-0.783,0.285,-38.696,-1.16,159.607
0.132,-0.787,0.315,-24.719,5.859,166.138
0.169,-0.792,0.345,-12.085,9.644,174.377
0.205,-0.804,0.365,-0.61,10.437,184.57
0.219,-0.837,0.379,10.376,9.216,195.435
0.226,-0.874,0.398,20.996,5.371,205.383
0.232,-0.883,0.42,31.372,-0.549,212.585
0.219,-0.902,0.424,41.016,-7.019,219.36
0.196,-0.974,0.412,50.171,-12.024,225.708
0.182,-1.054,0.419,56.702,-14.343,229.004
0.167,-1.081,0.444,60.791,-14.709,227.783
0.133,-1.077,0.46,63.538,-13.611,227.661
0.112,-1.084,0.47,66.284,-10.803,230.835
0.114,-1.111,0.484,71.167,-7.263,234.863
0.124,-1.147,0.486,77.332,-3.418,237.732
0.124,-1.169,0.479,83.862,1.099,238.525
0.108,-1.187,0.467,92.102,6.653,239.38
0.132,-1.253,0.481,100.22,11.963,240.356
0.144,-1.303,0.496,105.652,14.587,237.122
0.182,-1.369,0.53,107.91,15.259,230.591
0.195,-1.344,0.576,106.995,12.024,220.642
0.197,-1.329,0.574,105.53,4.028,212.646
0.199,-1.368,0.567,102.844,-4.089,207.153
0.196,-1.399,0.58,96.558,-10.559,200.378
0.189,-1.385,0.614,88.074,-17.151,193.237
0.189,-1.354,0.628,79.712,-25.208,187.317
0.174,-1.339,0.612,71.594,-31.25,184.631
0.158,-1.34,0.585,63.293,-34.485,182.068
0.15,-1.319,0.57,54.81,-34.973,177.551
0.138,-1.263,0.548,46.204,-33.203,171.875
0.126,-1.205,0.521,39.49,-29.297,166.809
0.117,-1.162,0.499,36.194,-22.583,162.231
0.116,-1.128,0.471,34.485,-13.794,157.776
0.135,-1.115,0.472,34.668,-4.333,154.968
0.146,-1.07,0.483,36.377,3.601,152.649
0.161,-1.055,0.502,39.673,8.789,151.306
0.171,-1.045,0.503,43.274,10.864,148.743
0.201,-1.042,0.513,44.617,11.108,145.325
0.206,-1.028,0.51,43.152,10.01,140.564
0.194,-1.005,0.503,39.49,7.874,134.277
0.184,-0.97,0.493,33.813,5.432,127.38
0.185,-0.934,0.481,27.649,3.662,120.605
0.181,-0.915,0.461,21.057,1.16,113.586
0.176,-0.912,0.433,14.587,-1.77,106.201
0.18,-0.896,0.403,8.118,-4.395,99.06
0.2,-0.863,0.391,3.845,-6.409,91.675
0.233,-0.841,0.378,1.648,-9.644,83.801
0.252,-0.822,0.363,1.343,-13.977,75.378
0.25,-0.789,0.345,2.38,-18.127,67.322
0.263,-0.763,0.342,5.127,-21.606,59.875
0.3,-0.756,0.353,9.216,-24.719,52.307
0.332,-0.758,0.361,13.306,-28.87,44.495
0.341,-0.775,0.361,16.724,-33.447,37.72
0.35,-0.792,0.355,18.86,-38.147,31.799
0.358,-0.796,0.356,19.531,-41.809,26.306
0.363,-0.792,0.361,18.738,-44.189,21.667
0.37,-0.791,0.363,16.235,-45.654,18.25
0.385,-0.785,0.361,13.794,-46.387,15.137
0.396,-0.772,0.357,10.803,-46.509,12.756
0.403,-0.762,0.356,7.69,-44.739,11.414
0.407,-0.754,0.354,4.822,-41.138,10.864
0.407,-0.742,0.351,1.892,-35.706,10.925
0.407,-0.723,0.349,-0.366,-29.358,11.353
0.416,-0.704,0.349,-1.282,-22.156,12.085
0.306,-1.868,0.443,-24.048,-7.629,-335.083
0.313,-1.866,0.433,-22.644,-24.841,-337.646
0.295,-1.857,0.395,-19.592,-41.077,-339.661
0.262,-1.803,0.317,-15.442,-52.002,-340.149
0.246,-1.766,0.306,-9.399,-52.307,-336.06
0.197,-1.857,0.246,-2.563,-47.974,-328.796
0.18,-1.95,0.216,1.282,-39.001,-326.416
0.188,-1.92,0.238,1.709,-25.696,-326.843
0.23,-1.831,0.288,4.211,-13.855,-326.172
0.281,-1.769,0.283,10.498,-5.249,-321.167
0.29,-1.739,0.259,19.226,3.296,-311.707
0.282,-1.669,0.259,28.748,14.038,-299.805
0.313,-1.582,0.277,39.246,25.33,-284.912
0.375,-1.504,0.293,48.767,36.133,-267.517
0.421,-1.436,0.296,57.007,46.143,-248.779
0.442,-1.383,0.296,63.293,56.58,-228.821
0.465,-1.336,0.299,66.284,66.406,-208.557
0.487,-1.277,0.296,66.101,74.036,-187.439
0.503,-1.205,0.289,65.308,80.017,-165.161
0.522,-1.127,0.301,63.171,84.656,-141.418
0.541,-1.053,0.315,61.707,86.06,-116.638
0.559,-1.008,0.325,61.279,83.984,-91.125
0.569,-1.001,0.338,60.73,78.247,-66.406
0.57,-1.0,0.354,57.922,68.787,-44.617
0.563,-0.996,0.371,53.528,56.03,-25.085
0.543,-0.989,0.383,47.852,41.016,-7.751
0.505,-0.977,0.386,42.175,25.146,7.08
0.472,-0.979,0.384,36.438,10.071,20.02
0.433,-0.986,0.38,29.663,-3.967,30.457
0.391,-0.988,0.376,21.973,-15.015,38.879
0.349,-0.99,0.373,12.39,-23.804,45.471
0.304,-0.982,0.358,1.648,-29.602,50.598
0.257,-0.97,0.331,-9.033,-31.921,54.993
0.212,-0.962,0.298,-18.188,-30.029,59.204
0.177,-0.954,0.272,-25.818,-24.475,63.293
0.158,-0.947,0.26,-31.372,-16.418,67.932
0.15,-0.939,0.254,-36.072,-8.057,73.242
0.151,-0.93,0.241,-39.734,-0.671,79.834
0.152,-0.931,0.23,-41.809,5.432,87.28
0.15,-0.94,0.214,-42.969,10.071,95.093
0.151,-0.938,0.205,-43.396,13.672,103.577
0.159,-0.937,0.203,-42.48,15.137,112.183
0.161,-0.947,0.195,-39.673,14.832,120.605
0.156,-0.963,0.184,-35.828,12.634,128.357
0.147,-0.978,0.179,-30.64,10.254,135.376
0.133,-0.989,0.177,-24.353,7.812,141.602
0.125,-1.002,0.18,-17.273,5.676,147.644
0.113,-1.022,0.182,-9.888,3.723,153.015
0.111,-1.051,0.188,-3.54,2.808,157.715
0.11,-1.073,0.207,0.916,3.845,161.926
0.116,-1.073,0.234,3.479,5.188,166.687
0.14,-1.078,0.262,5.005,6.775,174.194
0.157,-1.105,0.283,5.798,7.568,184.387
0.162,-1.138,0.293,5.859,6.409,194.397
0.166,-1.16,0.295,4.883,3.662,203.369
0.171,-1.177,0.288,3.845,-0.61,210.754
0.175,-1.187,0.284,3.479,-5.554,215.088
0.171,-1.191,0.276,3.601,-11.23,216.736
0.168,-1.191,0.263,4.761,-17.151,215.759
0.166,-1.179,0.256,7.019,-22.461,213.013
0.173,-1.191,0.262,9.888,-26.55,208.862
0.176,-1.213,0.284,13.184,-29.663,203.979
0.176,-1.23,0.302,15.869,-33.813,197.998
0.183,-1.258,0.31,18.677,-39.001,191.284
0.18,-1.272,0.318,21.484,-43.762,184.937
0.177,-1.284,0.331,24.109,-47.729,179.26
0.171,-1.286,0.34,26.123,-51.025,174.377
0.173,-1.286,0.344,28.625,-53.223,170.532
0.179,-1.294,0.352,31.311,-54.26,167.847
0.168,-1.295,0.35,33.63,-54.688,165.771
0.162,-1.299,0.36,36.011,-53.223,163.757
0.159,-1.313,0.372,37.964,-49.988,161.865
0.153,-1.326,0.378,38.574,-45.776,160.339
0.149,-1.333,0.38,37.781,-40.833,158.386
0.151,-1.343,0.378,36.072,-35.767,155.518
0.158,-1.351,0.375,33.569,-30.701,152.222
0.158,-1.352,0.375,30.212,-25.818,148.499
0.155,-1.352,0.371,26.794,-20.874,144.348
0.153,-1.339,0.372,23.804,-15.808,140.198
0.161,-1.319,0.381,21.118,-11.353,136.108
0.188,-1.305,0.401,18.494,-8.118,132.812
0.204,-1.283,0.408,15.442,-6.775,130.615
0.206,-1.271,0.397,12.39,-7.69,128.662
0.205,-1.258,0.383,9.583,-8.728,127.625
0.219,-1.251,0.384,5.859,-8.789,127.197
0.234,-1.259,0.397,0.916,-7.385,127.075
0.235,-1.251,0.412,-5.798,-4.333,127.38
0.234,-1.226,0.419,-14.038,0.488,127.136
0.238,-1.203,0.414,-21.79,6.592,125.916
0.242,-1.177,0.399,-29.48,13.977,124.329
0.245,-1.135,0.388,-37.659,22.949,122.559
0.273,-1.086,0.384,-44.617,32.776,120.422
0.298,-1.035,0.385,-49.866,42.358,118.347
0.313,-0.992,0.379,-53.528,49.622,116.211
0.369,-0.964,0.387,-55.847,54.504,113.525
0.429,-0.934,0.399,-58.289,57.556,111.389
0.444,-0.885,0.391,-60.486,57.739,109.436
0.473,-0.841,0.378,-60.913,56.946,106.75
0.5,-0.801,0.373,-59.998,57.617,103.394
0.532,-0.766,0.378,-58.411,59.753,99.426
0.561,-0.726,0.384,-56.58,62.5,96.069
0.575,-0.679,0.384,-55.481,64.026,93.628
0.573,-0.633,0.371,-54.382,62.683,90.759
0.576,-0.589,0.359,-53.345,59.998,87.341
0.59,-0.546,0.347,-52.063,56.274,82.397
0.588,-0.513,0.34,-49.988,51.086,76.111
0.576,-0.485,0.324,-47.485,44.678,69.153
0.58,-0.463,0.319,-45.105,37.72,62.317
0.584,-0.437,0.319,-42.297,30.029,56.03
0.59,-0.416,0.312,-39.246,20.447,50.232
0.579,-0.396,0.293,-35.156,10.071,45.044
0.559,-0.381,0.272,-30.823,0.305,40.1
0.544,-0.368,0.253,-26.428,-7.629,35.461
0.542,-0.362,0.243,-22.766,-14.038,30.884
0.544,-0.36,0.234,-18.616,-19.348,25.818
0.545,-0.364,0.227,-15.015,-23.437,20.691
0.555,-0.366,0.224,-12.146,-25.879,15.503
0.556,-0.366,0.223,-9.277,-26.978,10.559
0.569,-0.378,0.225,-6.775,-27.039,5.554
-0.655,-1.315,0.75,44.25,-27.344,-157.288
-0.718,-1.364,0.715,35.278,-25.085,-184.448
-0.775,-1.406,0.688,25.574,-18.188,-210.388
-0.832,-1.487,0.682,17.944,-7.69,-233.459
-0.859,-1.555,0.66,8.728,5.31,-255.371
-0.837,-1.624,0.638,-0.61,21.484,-277.222
-0.786,-1.732,0.624,-8.118,40.1,-297.424
-0.709,-1.857,0.625,-17.334,58.472,-317.749
-0.582,-1.969,0.592,-30.701,73.73,-339.478
-0.454,-2.071,0.522,-46.448,85.266,-360.84
-0.344,-2.166,0.449,-63.599,96.191,-379.333
-0.232,-2.249,0.367,-81.787,104.797,-395.874
-0.063,-2.299,0.303,-98.267,112.0,-411.377
0.144,-2.345,0.285,-108.826,115.967,-422.913
0.365,-2.411,0.319,-113.586,112.549,-428.894
0.594,-2.439,0.323,-115.295,96.375,-433.35
0.784,-2.432,0.267,-115.906,70.923,-438.538
0.892,-2.335,0.156,-114.136,46.326,-439.697
0.996,-2.177,0.153,-109.985,31.982,-429.382
1.083,-2.188,0.264,-106.262,21.667,-408.447
1.107,-2.052,0.201,-105.835,2.136,-388.55
1.058,-1.908,0.233,-101.257,-5.066,-357.544
1.003,-1.746,0.268,-96.008,-5.798,-320.068
0.961,-1.547,0.266,-88.684,-4.578,-280.334
0.944,-1.507,0.351,-74.158,4.272,-237.183
0.905,-1.335,0.416,-59.143,12.024,-200.012
0.919,-1.237,0.423,-45.288,14.771,-161.987
0.895,-1.135,0.445,-30.823,19.531,-124.268
0.894,-1.016,0.443,-15.747,18.188,-90.82
0.892,-1.074,0.354,0.122,13.672,-60.913
0.804,-1.137,0.404,11.292,15.991,-40.1
0.755,-1.009,0.433,14.404,15.137,-26.917
0.737,-0.903,0.401,16.541,11.719,-10.01
0.657,-0.996,0.448,19.836,12.878,9.216
0.598,-1.008,0.458,15.381,7.812,21.179
0.548,-0.939,0.467,7.812,2.625,33.081
0.496,-0.932,0.484,1.038,-2.747,45.288
0.44,-0.951,0.453,-6.653,-9.888,55.115
0.379,-0.908,0.425,-14.526,-14.221,62.5
0.318,-0.833,0.41,-20.63,-15.076,70.068
0.276,-0.845,0.392,-23.743,-13.916,78.796
0.23,-0.879,0.389,-26.123,-11.719,84.29
0.177,-0.839,0.383,-28.931,-8.789,86.914
0.145,-0.8,0.376,-29.419,-4.883,90.576
0.133,-0.809,0.368,-27.283,-0.122,95.093
0.121,-0.818,0.375,-23.743,5.127,99.06
0.1,-0.801,0.381,-19.653,10.01,102.905
0.085,-0.789,0.388,-14.038,14.526,107.544
0.079,-0.81,0.399,-7.874,18.738,112.915
0.08,-0.832,0.421,-2.502,23.56,118.652
0.079,-0.844,0.441,1.953,28.015,124.329
0.086,-0.859,0.468,5.432,32.166,130.615
0.088,-0.877,0.494,8.057,35.706,137.451
0.085,-0.876,0.507,10.315,37.964,143.921
0.101,-0.874,0.523,12.695,39.307,149.78
0.118,-0.872,0.537,15.747,39.185,155.212
0.116,-0.873,0.531,19.714,37.842,158.997
0.109,-0.887,0.512,25.146,36.133,161.072
0.11,-0.904,0.501,30.762,36.194,162.354
0.103,-0.918,0.497,35.828,38.025,163.147
0.094,-0.927,0.485,39.49,42.542,163.33
0.122,-0.928,0.486,42.603,48.95,163.208
0.175,-0.947,0.501,46.143,56.519,163.513
0.238,-0.988,0.519,48.889,62.439,164.429
0.27,-1.037,0.512,49.866,65.857,165.344
0.296,-1.07,0.518,49.133,69.214,165.405
0.351,-1.052,0.532,48.218,70.679,164.185
0.401,-1.025,0.525,49.011,69.641,164.124
0.438,-1.031,0.527,51.27,67.322,165.649
0.466,-1.062,0.531,54.749,62.683,166.809
0.484,-1.075,0.519,57.678,54.993,167.297
0.5,-1.068,0.493,60.242,45.288,167.908
0.508,-1.083,0.486,63.599,36.682,169.189
0.497,-1.095,0.479,66.772,30.273,170.898
0.507,-1.106,0.504,70.068,25.635,171.814
0.51,-1.089,0.527,73.792,20.325,170.837
0.502,-1.081,0.521,78.064,13.977,170.349
0.522,-1.137,0.512,81.177,8.423,170.105
0.504,-1.15,0.505,79.468,3.601,166.87
0.468,-1.099,0.487,75.439,-1.587,162.964
0.457,-1.071,0.448,72.754,-5.981,160.767
0.42,-1.028,0.403,71.838,-7.874,158.508
0.394,-0.993,0.415,73.73,-5.615,157.104
0.387,-0.976,0.434,77.087,-2.563,156.006
0.406,-1.001,0.444,79.834,-0.671,153.687
0.423,-0.981,0.468,80.261,0.0,148.926
0.406,-0.919,0.474,80.383,-1.221,144.47
0.386,-0.957,0.455,81.848,-3.418,141.724
0.347,-0.941,0.443,81.055,-4.211,136.108
0.342,-0.902,0.421,79.834,-3.113,131.714
0.323,-0.875,0.423,78.979,0.183,128.662
0.318,-0.877,0.429,77.515,2.686,124.634
0.33,-0.873,0.429,74.524,3.601,118.774
0.372,-0.858,0.452,70.068,3.723,112.122
0.423,-0.836,0.459,65.43,0.061,105.225
0.435,-0.822,0.45,61.035,-5.859,98.633
0.424,-0.825,0.445,57.007,-11.108,93.506
0.42,-0.824,0.444,52.673,-16.541,88.501
0.414,-0.8,0.444,47.852,-21.851,83.191
0.408,-0.775,0.44,43.579,-26.55,78.064
0.402,-0.759,0.428,39.551,-30.09,72.51
0.39,-0.74,0.415,35.583,-31.189,67.017
0.386,-0.724,0.409,31.25,-30.334,62.134
0.397,-0.708,0.4,26.611,-27.588,57.434
0.413,-0.687,0.397,21.973,-23.804,52.856
0.429,-0.668,0.396,17.517,-19.226,48.462
0.447,-0.658,0.389,13.123,-14.771,45.227
0.473,-0.67,0.378,8.545,-10.803,42.48
0.502,-0.675,0.369,4.883,-7.69,39.368
0.524,-0.662,0.375,1.77,-5.31,35.828
0.55,-0.639,0.385,-0.977,-5.066,32.227
0.559,-0.619,0.375,-3.357,-6.104,29.358
0.535,-0.6,0.351,-3.967,-6.409,27.344
0.526,-0.587,0.328,-3.906,-5.066,25.085
0.527,-0.561,0.336,-2.991,-1.953,21.973
0.548,-0.573,0.338,-1.587,0.244,18.738
0.547,-0.539,0.336,-0.366,2.197,14.221
0.545,-0.559,0.331,1.831,4.822,10.681
0.562,-0.571,0.325,3.174,6.531,6.409
-0.723,-1.266,0.883,27.954,-47.302,-19.897
-0.858,-1.315,0.902,19.47,-49.866,-41.321
-0.967,-1.374,0.931,10.315,-48.828,-66.101
-1.098,-1.431,0.959,-0.244,-46.631,-91.98
-1.19,-1.468,0.951,-13.916,-44.617,-121.826
-1.2,-1.498,0.899,-27.893,-40.894,-156.494
-1.153,-1.547,0.837,-39.551,-33.508,-193.665
-1.082,-1.587,0.797,-49.255,-24.353,-231.384
-0.974,-1.624,0.776,-56.824,-15.808,-268.86
-0.828,-1.686,0.735,-62.012,-10.437,-306.274
-0.681,-1.754,0.671,-66.65,-5.92,-343.323
-0.55,-1.814,0.576,-71.716,-0.183,-378.235
-0.374,-1.869,0.484,-74.951,8.362,-412.109
-0.181,-1.947,0.365,-73.425,19.897,-446.35
0.061,-2.048,0.373,-68.115,36.743,-479.37
0.293,-2.099,0.421,-62.073,48.95,-506.958
0.608,-2.282,0.449,-53.101,47.363,-524.841
0.835,-2.485,0.54,-51.147,36.133,-536.56
0.872,-2.428,0.548,-62.988,12.39,-542.786
0.817,-2.277,0.478,-75.378,-8.789,-534.363
0.754,-2.131,0.384,-82.397,-22.705,-515.991
0.746,-2.13,0.355,-80.994,-30.884,-494.934
0.77,-2.056,0.323,-72.266,-35.095,-471.68
0.781,-2.003,0.344,-60.425,-28.503,-434.204
0.698,-1.956,0.364,-50.842,-15.137,-390.076
0.565,-1.91,0.324,-43.396,3.418,-345.947
0.49,-1.864,0.309,-37.964,33.813,-302.429
0.422,-1.769,0.311,-34.668,73.853,-263.55
0.394,-1.7,0.31,-34.119,118.225,-230.103
0.458,-1.661,0.426,-39.063,167.053,-204.895
0.556,-1.538,0.455,-48.462,204.895,-187.195
0.643,-1.434,0.455,-58.105,231.689,-169.739
0.709,-1.352,0.417,-64.636,248.23,-154.175
0.758,-1.288,0.357,-66.772,253.906,-144.47
0.834,-1.205,0.33,-64.941,251.099,-138.977
0.925,-1.029,0.318,-61.401,238.525,-133.789
0.982,-0.862,0.329,-52.917,216.187,-123.84
1.008,-0.784,0.351,-41.016,186.218,-106.323
1.009,-0.726,0.395,-28.992,149.78,-84.534
0.961,-0.643,0.416,-17.578,107.91,-58.472
0.897,-0.62,0.428,-6.653,64.087,-27.527
0.822,-0.649,0.435,1.831,20.203,3.174
0.744,-0.678,0.432,7.568,-21.851,30.884
0.643,-0.715,0.398,11.047,-60.608,56.335
0.528,-0.757,0.358,12.085,-93.384,78.491
0.411,-0.779,0.336,11.414,-117.432,95.276
0.306,-0.783,0.323,9.705,-132.629,108.398
0.228,-0.806,0.315,7.751,-140.32,118.835
0.162,-0.843,0.313,4.822,-142.395,125.427
0.097,-0.847,0.31,1.831,-140.442,128.662
0.043,-0.83,0.312,0.549,-134.338,129.517
0.019,-0.824,0.325,2.441,-125.061,129.089
0.01,-0.821,0.343,5.554,-114.441,127.869
0.005,-0.82,0.365,10.437,-103.638,126.16
-0.0,-0.818,0.385,16.052,-94.177,124.756
0.001,-0.833,0.406,22.461,-87.036,123.23
0.002,-0.872,0.427,28.748,-82.764,121.643
-0.008,-0.884,0.429,33.569,-82.031,119.202
-0.031,-0.88,0.416,37.292,-81.909,116.577
-0.053,-0.905,0.409,41.321,-80.994,114.502
-0.1,-0.839,0.404,46.326,-78.918,112.366
-0.142,-0.858,0.408,54.199,-74.402,113.403
-0.204,-0.902,0.441,62.561,-67.139,113.281
-0.238,-0.954,0.47,69.58,-58.96,112.854
-0.246,-0.953,0.507,72.632,-47.546,112.244
-0.232,-0.979,0.541,74.158,-34.058,113.892
-0.214,-1.002,0.548,72.327,-20.996,117.676
-0.191,-1.012,0.547,68.42,-7.263,124.207
-0.161,-0.99,0.551,64.819,4.883,132.507
-0.115,-0.957,0.546,63.66,14.648,143.188
-0.07,-0.926,0.55,66.101,22.644,156.677
-0.051,-0.938,0.571,73.242,28.564,173.096
-0.035,-0.981,0.589,82.52,30.09,189.88
0.005,-1.01,0.601,91.919,27.466,204.346
0.056,-1.039,0.592,101.379,23.315,216.858
0.066,-1.08,0.568,110.657,19.958,227.661
0.055,-1.126,0.54,119.69,18.494,236.816
0.077,-1.186,0.538,128.296,18.86,243.408
0.122,-1.228,0.543,135.681,19.104,247.07
0.144,-1.154,0.554,141.663,16.602,249.695
0.138,-1.179,0.469,151.001,13.611,257.751
0.181,-1.473,0.458,159.058,17.09,261.23
0.153,-1.511,0.459,152.893,20.325,245.972
0.184,-1.425,0.553,144.653,24.17,229.248
0.186,-1.3,0.561,137.756,21.179,214.661
0.219,-1.323,0.561,132.385,17.639,205.261
0.238,-1.405,0.563,125.305,13.367,194.153
0.207,-1.393,0.535,113.647,7.874,178.772
0.182,-1.353,0.523,100.342,4.456,164.307
0.172,-1.306,0.509,88.257,2.197,150.391
0.165,-1.278,0.476,76.782,0.061,138.062
0.145,-1.245,0.442,65.491,-0.305,127.197
0.14,-1.207,0.409,55.115,0.61,117.92
0.149,-1.169,0.393,46.753,3.845,110.291
0.173,-1.152,0.379,40.649,6.409,103.943
0.192,-1.114,0.348,36.377,8.118,99.06
0.234,-1.092,0.333,33.386,10.071,96.802
0.298,-1.085,0.345,31.799,10.864,97.29
0.364,-1.071,0.353,30.396,7.263,99.792
0.405,-1.053,0.351,29.602,0.366,103.577
0.424,-1.029,0.338,29.907,-9.033,107.483
0.424,-1.002,0.32,30.884,-19.409,111.755
0.401,-0.986,0.307,32.166,-28.259,115.662
0.382,-0.97,0.294,33.203,-34.729,118.713
0.357,-0.96,0.291,33.63,-38.513,119.568
0.334,-0.961,0.281,33.264,-39.429,118.164
0.319,-0.94,0.272,31.982,-38.147,115.54
0.313,-0.904,0.268,30.823,-34.851,112.854
0.304,-0.867,0.268,30.151,-31.25,109.68
0.303,-0.846,0.27,29.541,-27.649,105.835
0.305,-0.838,0.275,28.564,-24.17,101.685
0.306,-0.828,0.276,26.245,-21.79,97.107
0.312,-0.814,0.281,23.682,-20.63,91.797
0.333,-0.803,0.288,21.179,-20.569,85.876
0.358,-0.795,0.301,19.226,-22.461,79.712
0.366,-0.784,0.305,16.724,-26.855,73.425
0.372,-0.776,0.302,14.038,-32.288,66.467
0.387,-0.761,0.302,10.742,-36.926,59.326
0.392,-0.742,0.301,8.484,-40.771,51.819
-1.165,-1.369,0.842,54.81,-60.669,-6.592
-1.454,-1.491,0.818,35.706,-65.613,-26.794
-1.557,-1.564,0.771,9.216,-63.049,-59.082
-1.555,-1.681,0.695,-20.142,-54.443,-97.412
-1.533,-1.809,0.617,-49.072,-42.603,-140.93
-1.508,-1.88,0.562,-72.815,-30.579,-190.857
-1.449,-1.911,0.516,-86.365,-23.743,-244.507
-1.286,-1.919,0.495,-88.562,-22.522,-298.279
-1.056,-1.925,0.512,-81.909,-21.973,-347.534
-0.831,-1.959,0.49,-70.19,-24.109,-392.883
-0.614,-2.055,0.425,-54.504,-28.87,-436.768
-0.4,-2.198,0.33,-36.133,-32.349,-479.37
-0.156,-2.391,0.232,-15.32,-30.945,-520.081
0.09,-2.563,0.157,8.179,-25.696,-560.364
0.332,-2.7,0.073,37.598,-15.686,-593.689
0.621,-3.147,0.318,65.308,-3.418,-607.91
0.848,-3.599,0.529,58.655,-15.93,-613.281
0.969,-3.758,0.551,17.639,-45.837,-616.15
1.125,-3.136,0.461,-27.039,-62.256,-608.154
1.14,-2.602,0.423,-53.65,-58.289,-559.082
0.961,-2.34,0.399,-64.331,-53.528,-502.808
0.83,-2.257,0.315,-69.458,-49.805,-449.768
0.797,-2.135,0.23,-74.463,-35.461,-392.395
0.781,-1.997,0.152,-78.186,-9.766,-330.933
0.714,-1.894,0.134,-79.224,21.057,-270.996
0.638,-1.823,0.131,-75.745,54.26,-218.262
0.597,-1.763,0.149,-68.42,87.769,-174.377
0.624,-1.694,0.128,-58.533,118.225,-142.029
0.727,-1.579,0.176,-46.509,142.029,-121.094
0.884,-1.518,0.177,-36.499,154.968,-105.042
0.976,-1.381,0.123,-28.687,158.325,-97.046
0.96,-1.249,0.118,-17.639,161.011,-89.6
0.962,-1.125,0.171,-5.066,157.166,-82.397
0.963,-0.984,0.201,9.033,147.583,-69.824
0.907,-0.933,0.226,24.719,136.169,-47.913
0.808,-0.895,0.278,36.072,125.305,-23.315
0.724,-0.865,0.342,43.335,112.549,3.784
0.669,-0.907,0.367,47.729,95.215,31.982
0.641,-0.961,0.383,46.448,74.829,57.312
0.593,-0.958,0.417,40.344,50.659,79.712
0.538,-0.967,0.39,32.532,22.4,99.67
0.463,-1.013,0.37,23.804,-2.93,115.173
0.367,-1.072,0.34,12.207,-26.245,123.84
0.26,-1.041,0.269,-0.549,-46.753,127.197
0.173,-0.977,0.225,-9.766,-58.655,129.822
0.119,-0.923,0.219,-13.977,-63.11,133.301
0.089,-0.901,0.201,-14.16,-65.247,137.024
0.06,-0.892,0.18,-10.986,-64.026,140.564
0.04,-0.894,0.169,-5.371,-59.265,145.203
0.038,-0.911,0.168,2.014,-54.321,150.757
0.037,-0.907,0.166,9.155,-49.866,155.151
0.034,-0.905,0.164,18.005,-45.715,160.217
0.027,-0.931,0.16,28.259,-41.321,165.649
0.025,-0.961,0.166,38.269,-37.537,170.532
0.02,-0.983,0.173,47.607,-34.424,175.11
-0.014,-0.918,0.207,56.824,-31.067,180.054
-0.039,-0.965,0.077,69.031,-25.94,191.406
0.081,-1.224,0.254,79.163,-11.597,195.801
0.091,-1.167,0.377,72.754,-13.733,182.434
0.097,-1.114,0.288,70.496,-23.071,183.167
0.13,-1.231,0.353,72.754,-20.752,188.416
0.172,-1.272,0.372,71.655,-25.818,186.279
0.172,-1.262,0.38,69.824,-32.288,185.12
0.155,-1.273,0.366,67.566,-37.598,186.584
0.143,-1.34,0.361,64.209,-39.917,188.599
0.109,-1.294,0.378,57.922,-39.673,189.27
0.097,-1.318,0.358,51.697,-37.903,192.261
0.12,-1.362,0.335,45.166,-31.982,192.566
0.142,-1.317,0.35,37.781,-23.499,191.223
0.155,-1.285,0.395,33.752,-15.442,192.2
0.168,-1.291,0.382,31.921,-12.207,194.946
0.197,-1.378,0.372,29.48,-7.629,197.571
0.226,-1.39,0.408,22.339,-0.916,195.862
0.21,-1.321,0.41,12.39,1.221,193.237
0.219,-1.302,0.364,4.272,1.831,194.153
0.231,-1.302,0.334,-2.136,5.554,194.824
0.246,-1.271,0.316,-7.69,10.803,194.214
0.283,-1.214,0.312,-11.414,16.052,193.97
0.317,-1.171,0.315,-12.085,20.447,193.665
0.332,-1.143,0.312,-10.864,22.705,192.139
0.362,-1.117,0.317,-8.301,23.437,190.308
0.402,-1.079,0.324,-4.517,22.766,188.965
0.412,-1.038,0.328,0.488,19.836,188.721
0.408,-1.002,0.328,7.751,14.587,188.599
0.41,-1.003,0.335,17.151,8.484,187.866
0.415,-1.017,0.351,25.818,3.967,184.631
0.397,-1.005,0.375,31.738,1.099,179.993
0.363,-0.993,0.386,36.011,-0.61,174.438
0.338,-0.978,0.363,39.063,-0.793,168.152
0.33,-0.961,0.337,40.588,2.808,162.72
0.336,-0.944,0.335,40.466,10.803,159.119
0.333,-0.925,0.345,37.476,21.362,156.799
0.353,-0.908,0.359,31.738,31.372,153.625
0.353,-0.884,0.348,24.292,40.283,150.94
0.361,-0.857,0.334,16.418,48.645,148.193
0.394,-0.833,0.322,9.583,55.969,144.958
0.422,-0.796,0.313,4.639,59.937,140.32
0.45,-0.774,0.303,1.526,60.669,135.01
0.448,-0.755,0.285,0.0,59.448,128.479
0.446,-0.736,0.277,-0.854,57.19,120.667
0.465,-0.709,0.292,-1.77,54.077,112.427
0.501,-0.684,0.313,-3.052,49.011,104.431
0.531,-0.659,0.312,-4.639,42.053,97.595
0.539,-0.638,0.288,-5.432,34.18,90.759
0.537,-0.624,0.269,-5.066,25.452,83.374
0.551,-0.609,0.254,-4.517,17.09,75.439
0.581,-0.591,0.24,-3.906,10.132,67.2
0.597,-0.573,0.232,-2.686,4.639,59.021
0.613,-0.557,0.229,-1.526,0.366,51.514
0.643,-0.544,0.231,-0.61,-3.235,44.495
0.662,-0.529,0.227,0.244,-6.775,37.903
0.673,-0.517,0.216,1.343,-10.01,31.738
0.685,-0.515,0.209,2.747,-12.695,26.245
0.707,-0.51,0.204,4.272,-14.832,22.095
0.719,-0.5,0.193,5.554,-16.052,19.47
0.724,-0.501,0.186,6.714,-16.174,17.944
0.727,-0.497,0.183,7.141,-15.137,17.212
0.743,-0.487,0.192,7.324,-13.733,16.479
0.764,-0.478,0.205,7.324,-13.062,15.564
-1.04,-1.261,0.717,13.611,-69.641,-94.727
-1.081,-1.344,0.752,-3.052,-54.443,-120.544
-1.07,-1.422,0.793,-26.855,-41.992,-150.33
-1.08,-1.532,0.781,-56.885,-35.767,-183.777
-1.05,-1.664,0.774,-91.064,-33.691,-220.093
-0.978,-1.76,0.737,-130.615,-37.903,-256.348
-0.845,-1.833,0.608,-169.983,-49.072,-295.105
-0.672,-1.938,0.459,-200.867,-62.073,-337.402
-0.444,-2.042,0.39,-219.849,-72.388,-387.207
-0.124,-2.086,0.326,-228.088,-82.642,-446.655
0.202,-2.035,0.337,-226.746,-94.543,-504.517
0.504,-1.677,0.442,-215.088,-107.3,-550.537
0.957,-1.911,0.835,-187.561,-118.835,-565.796
1.291,-1.962,1.016,-164.673,-149.17,-579.468
1.31,-2.02,0.888,-146.851,-177.124,-577.759
0.964,-1.982,0.78,-137.939,-178.833,-564.636
0.718,-1.85,0.599,-133.179,-155.579,-541.382
0.743,-1.761,0.456,-120.789,-103.027,-506.287
0.853,-1.715,0.432,-99.731,-21.912,-462.708
1.043,-1.491,0.513,-79.346,67.566,-416.077
1.339,-1.35,0.655,-54.077,140.625,-363.831
1.525,-1.187,0.692,-23.01,181.763,-311.401
1.666,-1.144,0.775,7.935,197.205,-261.292
1.735,-1.095,0.794,33.997,186.768,-218.811
1.742,-1.109,0.819,55.237,161.926,-181.091
1.682,-1.172,0.844,68.604,130.127,-147.705
1.59,-1.212,0.811,72.571,92.285,-118.225
1.477,-1.264,0.772,70.496,55.603,-89.355
1.343,-1.243,0.744,62.134,25.879,-63.904
1.197,-1.22,0.73,51.88,6.714,-40.588
1.049,-1.18,0.712,41.504,-3.723,-20.447
0.926,-1.133,0.725,31.921,-7.324,-3.113
0.87,-1.078,0.789,25.33,-7.874,11.23
0.863,-0.974,0.771,23.01,-10.925,24.719
0.827,-0.943,0.702,25.024,-12.634,41.382
0.726,-0.98,0.668,27.832,-10.193,57.19
0.668,-0.98,0.639,29.236,-9.827,68.909
0.658,-0.927,0.625,30.09,-11.047,78.247
0.62,-0.891,0.599,33.447,-13.489,88.379
0.569,-0.906,0.575,37.415,-15.442,98.938
0.523,-0.92,0.557,40.039,-16.052,106.812
0.496,-0.915,0.532,40.955,-16.846,112.488
0.472,-0.892,0.512,40.833,-17.029,117.615
0.451,-0.859,0.49,40.71,-15.625,123.657
0.423,-0.839,0.463,42.847,-13.794,131.042
0.405,-0.837,0.452,46.448,-11.353,139.587
0.404,-0.846,0.449,51.147,-9.338,148.376
0.394,-0.833,0.466,57.129,-9.033,156.128
0.367,-0.806,0.483,64.575,-9.399,165.1
0.384,-0.892,0.468,72.449,-10.498,175.171
0.332,-0.858,0.474,77.759,-10.803,179.993
0.32,-0.881,0.472,83.862,-9.705,187.012
0.325,-0.978,0.496,88.989,-6.714,191.711
0.343,-1.07,0.508,90.088,-7.69,188.11
0.348,-0.987,0.572,87.219,-11.841,178.223
0.303,-0.882,0.531,88.318,-18.738,177.49
0.34,-1.093,0.537,93.811,-17.822,184.143
0.244,-1.041,0.521,92.957,-15.32,177.856
0.195,-1.053,0.494,93.018,-10.01,176.514
0.232,-1.095,0.507,92.834,1.16,176.514
0.228,-1.07,0.52,90.393,13.0,175.293
0.235,-1.067,0.542,89.233,24.17,177.673
0.291,-1.058,0.529,88.44,32.715,180.359
0.329,-1.125,0.51,89.6,40.771,182.922
0.356,-1.165,0.529,87.646,48.462,180.908
0.387,-1.119,0.555,83.008,51.331,174.988
0.413,-1.117,0.554,79.59,49.866,170.959
0.456,-1.153,0.588,77.087,47.729,166.809
0.495,-1.162,0.581,73.181,40.222,159.424
0.47,-1.095,0.521,66.833,31.006,151.428
0.461,-1.086,0.533,61.401,26.367,146.179
0.486,-1.072,0.521,55.847,19.043,140.076
0.498,-1.043,0.502,49.072,10.193,135.071
0.498,-1.006,0.473,42.297,0.305,131.409
0.489,-0.973,0.413,36.804,-9.766,129.272
0.517,-0.996,0.39,34.363,-16.663,127.502
0.52,-0.96,0.384,31.616,-21.667,123.413
0.492,-0.924,0.381,30.579,-25.33,121.643
0.477,-0.931,0.368,30.396,-26.611,121.765
0.468,-0.921,0.347,29.968,-24.841,120.972
0.478,-0.897,0.344,30.09,-21.118,120.361
0.491,-0.87,0.354,31.006,-18.372,120.056
0.472,-0.84,0.348,32.593,-18.433,119.751
0.469,-0.818,0.342,34.668,-18.86,119.141
0.479,-0.812,0.356,37.17,-19.409,117.615
0.481,-0.804,0.358,39.368,-22.339,114.197
0.474,-0.781,0.351,41.199,-27.161,110.046
0.462,-0.764,0.345,42.358,-31.311,106.812
0.438,-0.754,0.333,43.823,-33.752,104.065
0.411,-0.738,0.324,44.8,-33.875,101.685
0.4,-0.72,0.338,45.166,-31.616,99.304
0.411,-0.704,0.356,45.105,-29.907,95.825
0.427,-0.695,0.374,44.373,-29.907,90.942
0.434,-0.695,0.379,42.542,-31.555,85.327
0.437,-0.682,0.371,41.016,-34.302,78.918
0.429,-0.671,0.363,40.466,-36.621,72.693
0.431,-0.664,0.362,40.039,-37.415,66.895
0.447,-0.654,0.371,39.795,-36.377,61.157
0.46,-0.636,0.376,40.161,-34.912,55.298
0.477,-0.621,0.372,39.795,-33.691,50.049
0.493,-0.608,0.375,39.307,-32.043,45.654
0.505,-0.598,0.38,38.452,-30.151,42.114
0.518,-0.589,0.383,37.231,-29.419,38.879
0.534,-0.576,0.386,36.316,-29.907,36.682
0.546,-0.571,0.393,35.583,-30.64,35.217
0.543,-0.569,0.39,34.363,-31.006,34.058
0.532,-0.576,0.379,33.203,-30.64,33.203
0.518,-0.584,0.377,32.227,-28.259,32.776
0.509,-0.583,0.377,30.09,-24.353,31.921
0.507,-0.58,0.38,28.015,-19.226,30.518
0.514,-0.579,0.392,25.94,-12.878,28.381
0.527,-0.583,0.411,23.865,-7.202,26.245
0.55,-0.585,0.428,21.912,-4.028,23.682
0.593,-0.595,0.444,20.752,-3.845,21.301
0.646,-0.622,0.472,19.531,-6.165,19.104
0.651,-0.615,0.48,18.127,-12.146,15.442
0.615,-0.6,0.453,16.968,-19.409,11.902
0.537,-0.601,0.391,16.479,-21.667,9.216
0.549,-0.637,0.399,17.09,-14.954,6.836
-0.947,-1.395,0.724,22.278,20.63,-96.069
-1.283,-1.499,0.722,7.751,36.011,-102.417
-1.59,-1.602,0.649,-14.465,59.937,-112.0
-1.752,-1.691,0.527,-44.983,93.75,-128.967
-1.709,-1.781,0.421,-82.397,135.254,-151.917
-1.48,-1.872,0.335,-126.221,175.964,-179.626
-1.192,-1.972,0.256,-171.875,205.688,-212.646
-0.609,-2.199,0.028,-255.737,217.712,-286.987
-0.277,-2.214,-0.093,-288.391,197.449,-323.669
0.111,-2.117,-0.175,-308.167,165.1,-353.882
0.555,-2.027,-0.169,-311.89,122.009,-378.418
0.92,-1.878,-0.041,-300.415,64.209,-434.204
1.097,-1.677,0.045,-226.379,-67.078,-459.778
1.285,-1.376,0.295,-167.053,-125.061,-487.122
1.365,-1.342,0.441,-101.013,-173.035,-497.62
1.387,-1.288,0.581,-42.847,-207.336,-484.436
1.171,-1.215,0.654,-0.732,-220.642,-442.688
0.759,-1.249,0.608,26.978,-213.135,-383.362
0.516,-1.425,0.518,46.692,-183.96,-325.928
0.642,-1.7,0.581,56.641,-127.808,-271.729
0.746,-1.661,0.594,45.715,-59.937,-223.328
0.78,-1.573,0.758,28.015,13.916,-182.617
0.869,-1.632,0.715,13.794,72.51,-151.367
0.998,-1.678,0.74,-1.77,116.394,-134.277
1.091,-1.561,0.744,-20.02,143.311,-125.122
1.166,-1.448,0.738,-33.508,152.649,-116.516
1.238,-1.359,0.72,-40.771,146.24,-108.948
1.297,-1.296,0.706,-44.067,127.441,-100.22
1.297,-1.212,0.681,-44.556,100.525,-90.393
1.25,-1.156,0.675,-41.931,70.557,-77.209
1.191,-1.097,0.686,-38.269,40.222,-61.89
1.102,-1.023,0.672,-33.813,11.597,-44.983
0.972,-0.97,0.631,-28.503,-10.498,-26.123
0.836,-0.954,0.583,-22.583,-24.109,-6.714
0.715,-0.956,0.546,-17.395,-28.809,11.108
0.609,-0.949,0.508,-13.794,-26.733,26.611
0.525,-0.929,0.482,-10.681,-19.165,39.856
0.48,-0.927,0.471,-7.385,-8.85,51.025
0.459,-0.93,0.472,-4.822,0.427,59.937
0.45,-0.938,0.481,-2.625,6.836,66.772
0.454,-0.942,0.49,-0.854,8.118,72.449
0.446,-0.939,0.494,-0.122,3.601,77.515
0.424,-0.944,0.488,0.183,-4.822,82.214
0.383,-0.955,0.467,0.671,-15.198,86.731
0.329,-0.957,0.438,0.671,-24.963,91.431
0.279,-0.95,0.419,-0.122,-31.982,96.863
0.228,-0.94,0.408,0.061,-35.156,102.417
0.192,-0.931,0.39,1.16,-35.339,108.337
0.159,-0.928,0.378,2.258,-32.41,114.624
0.112,-0.938,0.375,3.967,-26.245,119.934
0.082,-0.944,0.406,5.249,-18.372,124.207
0.075,-0.924,0.433,6.958,-11.902,127.563
0.08,-0.931,0.457,11.108,-6.592,131.165
0.088,-0.964,0.481,15.869,-2.563,133.789
0.102,-0.992,0.506,18.921,-0.427,134.155
0.117,-1.001,0.521,20.691,0.0,133.606
0.123,-1.007,0.514,20.63,-0.671,133.667
0.127,-1.001,0.516,20.447,-1.343,134.949
0.13,-0.987,0.526,21.057,-1.587,137.695
0.132,-0.956,0.525,23.01,-2.625,142.151
0.124,-0.929,0.521,27.039,-2.93,148.804
0.11,-0.938,0.503,33.569,-1.77,157.715
0.097,-0.951,0.49,40.649,2.319,166.809
0.107,-0.956,0.497,48.157,8.301,174.316
0.133,-0.967,0.51,56.458,14.404,180.42
0.16,-1.034,0.532,63.965,20.142,183.472
0.203,-1.083,0.573,67.505,23.315,180.725
0.225,-1.047,0.579,67.81,22.156,175.781
0.231,-1.033,0.571,68.115,19.775,173.889
0.249,-1.047,0.558,69.092,15.259,171.814
0.289,-1.076,0.555,69.885,9.46,168.335
0.304,-1.094,0.55,68.604,3.357,164.001
0.318,-1.091,0.547,64.941,-3.113,158.63
0.35,-1.088,0.558,59.326,-9.583,153.015
0.367,-1.079,0.548,52.246,-16.907,147.4
0.356,-1.063,0.517,44.006,-23.56,142.273
0.334,-1.028,0.494,35.95,-27.832,138.062
0.325,-0.997,0.475,30.029,-30.64,134.766
0.335,-0.976,0.463,27.1,-32.41,131.897
0.347,-0.954,0.459,26.367,-34.18,128.723
0.347,-0.929,0.451,26.855,-36.987,125.122
0.336,-0.895,0.435,27.466,-41.321,121.887
0.313,-0.858,0.422,28.87,-46.204,118.835
0.279,-0.822,0.414,31.25,-50.964,116.089
0.25,-0.799,0.419,35.217,-54.565,113.953
0.224,-0.785,0.427,39.49,-57.373,111.938
0.192,-0.764,0.432,43.03,-59.631,109.253
0.161,-0.748,0.433,45.471,-60.242,106.75
0.135,-0.738,0.436,47.18,-58.838,104.248
0.126,-0.734,0.442,47.363,-55.786,101.501
0.116,-0.728,0.446,46.448,-51.697,98.694
0.111,-0.725,0.458,43.884,-46.753,96.008
0.124,-0.726,0.48,40.955,-42.725,92.59
0.151,-0.732,0.501,38.33,-39.368,88.867
0.156,-0.728,0.511,34.424,-36.56,84.9
0.178,-0.731,0.519,30.396,-34.79,79.834
0.2,-0.731,0.522,26.917,-32.715,73.853
0.211,-0.724,0.516,22.705,-30.579,68.054
0.235,-0.721,0.51,18.738,-28.076,62.683
0.267,-0.714,0.504,14.587,-25.085,57.922
0.3,-0.706,0.499,11.047,-21.912,54.016
0.354,-0.698,0.501,8.118,-19.104,51.086
0.401,-0.695,0.507,5.859,-16.907,49.194
0.424,-0.69,0.499,3.784,-15.93,48.767
0.449,-0.682,0.491,2.319,-15.869,48.706
0.482,-0.68,0.49,2.075,-16.479,48.035
0.491,-0.676,0.486,2.686,-17.456,47.668
0.488,-0.668,0.478,3.723,-18.677,46.997
0.484,-0.663,0.474,5.676,-18.494,45.715
0.471,-0.66,0.476,7.263,-17.151,44.434
0.472,-0.656,0.481,8.789,-14.771,42.603
0.484,-0.656,0.49,10.193,-11.658,40.771
0.489,-0.653,0.491,11.658,-9.216,38.94
0.49,-0.647,0.492,12.878,-7.446,36.804
0.498,-0.642,0.494,13.55,-5.493,34.851
0.512,-0.644,0.502,14.343,-3.601,32.41
0.522,-0.639,0.506,14.465,-3.052,29.48
0.525,-0.63,0.506,13.977,-4.028,26.306
0.527,-0.625,0.505,13.428,-5.249,23.01
-0.692,-1.291,0.726,-88.257,59.753,-191.833
-0.802,-1.336,0.668,-103.76,65.247,-215.698
-0.841,-1.39,0.598,-124.878,74.158,-238.831
-0.767,-1.483,0.521,-150.818,83.862,-261.78
-0.618,-1.568,0.461,-181.519,89.478,-286.743
-0.384,-1.62,0.37,-211.548,86.121,-315.186
-0.038,-1.671,0.279,-235.352,71.411,-347.107
0.387,-1.676,0.255,-244.995,42.114,-381.714
0.806,-1.647,0.272,-238.403,-0.793,-418.03
1.13,-1.602,0.337,-214.661,-51.819,-452.698
1.453,-1.526,0.468,-177.673,-102.844,-482.3
1.8,-1.469,0.599,-130.92,-147.095,-503.54
2.0,-1.543,0.757,-80.933,-175.171,-504.333
1.921,-1.673,0.79,-40.466,-184.753,-473.999
1.594,-1.729,0.737,-17.944,-172.913,-419.312
1.302,-1.749,0.694,-13.428,-130.737,-353.027
1.289,-1.622,0.745,-25.146,-61.218,-279.175
1.429,-1.442,0.823,-44.067,19.043,-194.214
1.591,-1.421,0.945,-59.265,91.248,-109.253
1.597,-1.384,0.943,-70.251,127.075,-46.082
1.558,-1.23,0.949,-74.89,131.47,-1.77
1.557,-1.045,0.951,-73.364,106.812,27.588
1.5,-0.896,0.957,-65.308,62.5,48.462
1.351,-0.862,0.963,-54.321,7.69,61.096
1.128,-0.846,0.902,-47.18,-49.377,64.392
0.868,-0.792,0.775,-45.349,-97.656,62.317
0.587,-0.733,0.646,-47.485,-125.854,59.082
0.325,-0.659,0.535,-50.781,-131.348,55.603
0.128,-0.583,0.447,-51.697,-117.371,51.575
0.012,-0.524,0.381,-49.377,-87.402,48.401
-0.022,-0.499,0.349,-44.678,-46.875,46.692
0.006,-0.482,0.355,-37.842,-4.517,45.227
0.08,-0.468,0.368,-29.48,32.837,44.189
0.183,-0.468,0.379,-19.897,62.561,44.556
0.283,-0.459,0.382,-9.399,81.665,46.631
0.366,-0.461,0.392,1.526,90.576,51.025
0.439,-0.483,0.42,13.184,89.966,57.861
0.472,-0.512,0.453,24.719,80.261,66.772
0.48,-0.548,0.488,34.485,62.988,76.477
0.485,-0.57,0.514,42.175,40.527,85.51
0.47,-0.589,0.53,49.377,16.296,93.994
0.435,-0.629,0.537,56.274,-6.897,101.929
0.38,-0.661,0.528,62.5,-27.1,108.459
0.296,-0.693,0.499,68.542,-41.992,113.586
0.21,-0.731,0.478,73.975,-49.316,117.249
0.164,-0.74,0.49,78.308,-48.767,118.835
0.139,-0.722,0.525,83.862,-43.579,119.751
0.089,-0.71,0.532,91.187,-37.598,121.765
0.065,-0.775,0.559,99.426,-30.945,125.366
0.08,-0.851,0.587,104.37,-24.475,126.587
0.085,-0.875,0.584,104.492,-19.348,124.023
0.096,-0.891,0.594,102.417,-13.184,120.3
0.107,-0.896,0.601,99.731,-7.263,115.051
0.123,-0.904,0.599,96.375,-2.075,110.046
0.145,-0.898,0.602,92.651,2.747,106.262
0.162,-0.885,0.607,89.844,7.446,105.53
0.186,-0.885,0.611,89.111,11.23,107.483
0.22,-0.891,0.619,89.783,14.038,110.718
0.25,-0.896,0.628,91.309,15.686,114.502
0.262,-0.906,0.63,93.384,16.418,118.713
0.266,-0.928,0.612,96.497,15.808,122.498
0.278,-0.964,0.595,98.45,15.076,125.793
0.279,-0.99,0.578,98.938,14.587,127.869
0.278,-1.01,0.578,98.267,15.32,129.15
0.296,-1.04,0.584,95.764,16.235,128.235
0.326,-1.053,0.591,90.942,15.93,125.793
0.338,-1.043,0.599,85.449,13.489,122.62
0.354,-1.048,0.612,80.627,9.399,120.239
0.392,-1.067,0.616,75.256,2.808,117.615
0.411,-1.07,0.605,69.519,-5.737,114.319
0.404,-1.06,0.597,63.354,-15.015,111.267
0.404,-1.052,0.587,57.007,-24.719,108.948
0.407,-1.04,0.57,51.88,-33.875,107.422
0.396,-1.026,0.545,47.119,-42.603,106.873
0.377,-1.012,0.515,42.725,-49.805,106.812
0.363,-0.999,0.498,39.185,-54.321,106.75
0.348,-0.979,0.499,36.621,-56.03,106.323
0.329,-0.967,0.507,35.217,-56.824,105.713
0.318,-0.958,0.511,34.302,-57.129,104.431
0.308,-0.946,0.512,33.325,-57.068,102.661
0.287,-0.932,0.516,32.227,-56.152,100.769
0.262,-0.921,0.522,31.982,-54.199,99.182
0.241,-0.916,0.525,32.349,-50.537,97.717
0.241,-0.913,0.529,32.471,-45.41,95.886
0.249,-0.909,0.534,31.494,-39.307,93.018
0.256,-0.898,0.535,29.602,-33.691,89.478
0.268,-0.886,0.538,26.672,-28.87,85.205
0.279,-0.867,0.536,23.315,-25.024,80.75
0.287,-0.849,0.545,19.348,-21.851,76.721
0.303,-0.832,0.552,15.686,-19.897,73.669
0.328,-0.815,0.55,12.634,-19.47,71.106
0.338,-0.799,0.543,9.888,-19.836,68.97
0.337,-0.783,0.537,7.08,-20.142,66.528
0.334,-0.762,0.529,5.127,-20.081,64.27
0.337,-0.745,0.525,3.357,-19.653,61.707
0.339,-0.732,0.522,1.77,-18.921,58.655
0.338,-0.718,0.514,0.0,-18.25,55.481
0.345,-0.702,0.503,-1.587,-17.944,52.49
0.359,-0.686,0.499,-3.296,-17.883,49.316
0.379,-0.671,0.496,-4.7,-18.616,46.021
0.393,-0.66,0.491,-6.287,-20.081,42.786
0.401,-0.649,0.486,-7.385,-22.339,39.795
0.408,-0.64,0.48,-7.507,-24.841,36.682
0.41,-0.633,0.477,-6.958,-26.855,33.508
0.412,-0.626,0.478,-5.493,-28.32,30.334
0.411,-0.62,0.477,-3.479,-29.602,27.1
0.405,-0.615,0.472,-1.587,-30.09,24.048
0.407,-0.612,0.474,0.366,-29.724,21.362
0.403,-0.607,0.474,1.953,-28.687,19.409
0.397,-0.606,0.467,3.174,-27.283,17.822
0.402,-0.61,0.466,3.967,-24.841,16.541
0.412,-0.614,0.473,4.272,-21.362,15.564
0.415,-0.615,0.475,3.784,-17.212,14.771
0.421,-0.616,0.475,3.174,-12.878,13.916
0.436,-0.618,0.478,2.502,-8.545,13.184
0.46,-0.62,0.487,1.892,-4.15,12.512
0.487,-0.622,0.497,1.465,-0.977,11.841
0.513,-0.625,0.502,1.221,0.732,11.475
0.531,-0.627,0.505,1.038,0.854,10.925
-1.336,-1.062,0.73,7.263,75.806,-62.683
-1.655,-1.177,0.749,-2.258,100.464,-72.876
-1.877,-1.296,0.763,-21.362,126.099,-90.027
-1.95,-1.392,0.727,-50.415,148.071,-115.173
-1.943,-1.523,0.681,-83.923,163.574,-147.766
-1.898,-1.746,0.593,-119.69,176.025,-188.354
-1.745,-1.963,0.466,-156.616,185.242,-239.075
-1.467,-2.087,0.248,-193.054,188.11,-295.959
-1.122,-2.16,0.089,-220.52,188.904,-351.379
-0.745,-2.19,-0.001,-237.122,189.575,-396.057
-0.344,-2.259,-0.027,-239.075,190.796,-430.176
0.066,-2.347,0.024,-229.858,187.378,-458.74
0.508,-2.403,0.155,-214.539,173.767,-481.384
0.926,-2.373,0.246,-196.716,147.949,-495.483
1.208,-2.304,0.338,-176.758,115.356,-498.657
1.255,-2.066,0.382,-154.175,78.613,-495.178
1.258,-1.868,0.383,-122.864,44.495,-479.675
1.398,-1.758,0.35,-85.693,20.02,-449.097
1.615,-1.599,0.394,-51.575,1.282,-403.259
1.749,-1.425,0.435,-16.907,-15.808,-349.243
1.749,-1.338,0.458,19.653,-31.86,-292.603
1.717,-1.391,0.482,53.711,-40.588,-236.572
1.724,-1.477,0.503,76.904,-43.823,-184.204
1.74,-1.494,0.499,87.769,-46.997,-136.353
1.721,-1.492,0.486,88.806,-51.88,-93.384
1.66,-1.521,0.501,84.717,-57.556,-56.03
1.57,-1.516,0.477,76.233,-66.406,-26.672
1.467,-1.488,0.467,65.186,-74.036,-4.089
1.352,-1.432,0.481,53.101,-79.529,13.611
1.233,-1.363,0.482,41.199,-85.266,27.649
1.106,-1.282,0.468,29.419,-88.074,40.039
0.977,-1.203,0.452,19.348,-85.999,51.941
0.847,-1.147,0.434,11.353,-79.102,62.378
0.747,-1.112,0.399,4.883,-67.566,70.129
0.674,-1.066,0.371,-1.221,-51.819,74.585
0.614,-1.004,0.35,-7.568,-33.386,77.881
0.56,-0.963,0.323,-13.428,-14.648,81.787
0.515,-0.947,0.321,-19.043,3.296,85.693
0.482,-0.915,0.327,-23.743,18.616,89.05
0.466,-0.874,0.327,-27.466,29.114,92.896
0.451,-0.858,0.322,-28.931,34.424,97.9
0.439,-0.858,0.329,-29.541,35.645,102.905
0.439,-0.862,0.34,-28.564,32.654,108.093
0.428,-0.871,0.351,-25.94,25.208,113.464
0.405,-0.874,0.357,-23.254,13.977,118.53
0.382,-0.868,0.354,-20.447,0.793,122.925
0.367,-0.874,0.347,-15.93,-12.268,127.869
0.351,-0.901,0.335,-11.597,-23.865,133.301
0.316,-0.93,0.332,-7.629,-33.691,137.878
0.253,-0.941,0.326,-3.601,-40.955,141.357
0.191,-0.96,0.332,0.549,-43.457,144.592
0.155,-0.959,0.365,3.967,-41.809,145.935
0.136,-0.949,0.405,8.118,-38.879,145.813
0.113,-0.939,0.415,11.963,-36.804,146.057
0.107,-0.976,0.421,15.32,-32.959,147.095
0.097,-1.005,0.428,17.517,-26.978,146.545
0.081,-1.018,0.427,18.005,-20.63,143.188
0.075,-1.012,0.434,17.517,-13.245,137.939
0.123,-1.018,0.47,17.395,-6.409,131.958
0.143,-0.997,0.492,17.151,-2.686,124.817
0.177,-0.992,0.489,17.517,-1.953,119.019
0.213,-0.993,0.502,17.395,-2.625,112.915
0.222,-0.972,0.501,16.785,-6.348,106.689
0.237,-0.95,0.493,16.968,-11.353,102.722
0.25,-0.951,0.498,19.043,-16.724,101.196
0.252,-0.95,0.485,21.118,-23.499,100.586
0.237,-0.944,0.466,23.865,-29.419,100.952
0.233,-0.939,0.462,27.588,-33.325,101.868
0.234,-0.937,0.466,31.738,-35.767,102.783
0.223,-0.939,0.464,36.56,-37.659,103.882
0.217,-0.944,0.452,41.016,-39.185,104.37
0.217,-0.953,0.447,44.067,-39.124,104.431
0.217,-0.972,0.452,45.776,-38.086,103.882
0.211,-0.971,0.457,45.715,-36.865,102.478
0.219,-0.964,0.465,44.25,-35.4,101.257
0.228,-0.956,0.467,41.443,-34.241,100.342
0.233,-0.945,0.47,37.231,-33.813,99.487
0.253,-0.937,0.484,32.837,-33.997,98.389
0.271,-0.924,0.492,28.32,-36.133,96.863
0.278,-0.911,0.491,24.109,-39.673,95.093
0.286,-0.905,0.484,20.874,-43.823,93.567
0.289,-0.902,0.473,18.799,-47.791,91.736
0.276,-0.882,0.464,16.724,-50.049,91.125
0.261,-0.858,0.468,15.259,-49.805,93.018
0.269,-0.844,0.481,14.404,-47.424,96.558
0.277,-0.838,0.485,13.489,-43.152,100.891
0.272,-0.824,0.475,11.841,-38.391,105.164
0.277,-0.809,0.463,10.193,-33.63,108.032
0.306,-0.799,0.454,8.362,-28.076,109.863
0.324,-0.792,0.448,6.165,-22.095,112.183
0.347,-0.782,0.442,3.052,-16.541,115.295
0.414,-0.767,0.458,-0.366,-11.292,120.728
0.44,-0.747,0.47,-4.028,-6.226,131.226
0.398,-0.722,0.456,-6.531,-2.991,144.165
0.354,-0.702,0.435,-4.883,1.038,154.175
0.354,-0.681,0.425,0.977,7.141,160.217
0.379,-0.675,0.444,8.057,15.503,162.415
0.408,-0.68,0.468,15.198,23.621,159.18
0.418,-0.674,0.483,21.79,29.541,151.001
0.417,-0.661,0.496,27.405,33.081,140.503
0.419,-0.655,0.511,30.701,34.424,128.052
0.444,-0.649,0.529,31.982,33.325,113.953
0.473,-0.638,0.533,31.372,28.87,98.999
0.5,-0.622,0.533,29.846,20.935,85.266
0.535,-0.605,0.537,27.771,10.498,73.914
0.556,-0.59,0.544,26.306,-0.732,65.308
0.56,-0.577,0.547,25.208,-11.169,58.899
0.551,-0.568,0.55,24.719,-20.203,53.528
0.544,-0.565,0.55,24.109,-26.245,49.255
0.528,-0.56,0.545,22.766,-28.87,46.082
0.525,-0.551,0.538,21.057,-28.503,43.579
0.522,-0.542,0.539,19.165,-25.269,41.565
0.517,-0.532,0.536,16.541,-20.508,39.734
0.517,-0.521,0.532,14.282,-14.648,37.292
0.521,-0.51,0.527,12.329,-8.118,34.424
0.534,-0.501,0.521,10.62,-2.014,31.067
0.559,-0.494,0.518,9.705,3.235,27.1
0.586,-0.49,0.523,8.911,6.836,23.376
0.615,-0.486,0.527,8.484,7.751,20.142
-0.916,-1.241,0.844,-14.893,4.028,-84.595
-1.209,-1.338,0.812,-33.691,22.766,-99.792
-1.477,-1.453,0.725,-60.852,50.903,-115.845
-1.642,-1.559,0.612,-94.299,88.013,-133.667
-1.659,-1.655,0.544,-131.836,129.15,-153.748
-1.508,-1.743,0.521,-169.434,164.368,-177.49
-1.268,-1.81,0.479,-201.477,183.838,-207.336
-1.026,-1.876,0.399,-224.976,185.73,-242.004
-0.807,-1.94,0.322,-238.647,172.424,-280.945
-0.574,-1.961,0.259,-243.713,144.958,-322.632
-0.347,-1.926,0.229,-238.098,108.582,-363.159
-0.12,-1.917,0.251,-220.276,72.205,-400.391
0.078,-1.954,0.291,-192.81,36.438,-434.631
0.31,-2.058,0.379,-162.354,2.014,-466.675
0.595,-2.157,0.457,-132.568,-30.518,-495.605
0.815,-2.252,0.448,-105.957,-61.035,-510.864
0.962,-2.244,0.46,-90.698,-79.407,-505.798
1.165,-2.19,0.536,-86.792,-85.51,-481.14
1.323,-2.09,0.548,-91.614,-83.435,-437.988
1.243,-1.963,0.459,-98.633,-70.923,-385.254
1.317,-1.75,0.43,-95.642,-16.907,-290.1
1.469,-1.704,0.482,-85.938,11.047,-247.864
1.547,-1.676,0.504,-69.031,31.128,-217.041
1.61,-1.604,0.532,-49.927,41.87,-197.144
1.639,-1.499,0.523,-30.579,43.945,-182.678
1.684,-1.443,0.496,-10.742,38.879,-171.936
1.735,-1.358,0.462,5.737,28.442,-164.368
1.758,-1.264,0.446,18.921,17.151,-155.579
1.74,-1.183,0.428,29.602,5.92,-143.86
1.675,-1.123,0.402,39.246,-4.395,-129.028
1.598,-1.068,0.372,46.692,-11.963,-111.389
1.511,-1.017,0.366,51.697,-15.625,-89.417
1.424,-1.01,0.364,53.711,-15.259,-62.012
1.331,-0.994,0.389,50.476,-12.695,-32.532
1.238,-0.948,0.402,42.358,-11.108,-3.784
1.144,-0.919,0.416,33.63,-10.132,23.254
1.053,-0.893,0.423,25.208,-9.705,48.096
0.967,-0.871,0.426,18.433,-10.925,70.068
0.885,-0.858,0.439,13.611,-13.916,88.562
0.801,-0.855,0.45,10.864,-19.043,104.004
0.71,-0.858,0.453,9.155,-25.146,116.15
0.613,-0.866,0.447,7.69,-30.579,125.549
0.529,-0.874,0.441,6.653,-33.081,132.629
0.463,-0.877,0.435,7.141,-32.166,137.451
0.417,-0.893,0.433,9.033,-27.771,140.869
0.404,-0.91,0.442,10.986,-20.63,143.433
0.394,-0.935,0.456,12.756,-12.451,145.63
0.389,-0.992,0.494,13.794,-5.554,146.667
0.391,-0.986,0.552,13.184,-3.296,144.897
0.391,-0.951,0.586,13.062,-7.019,143.86
0.384,-0.968,0.613,14.954,-12.756,146.362
0.37,-1.0,0.623,16.479,-20.813,149.536
0.321,-1.0,0.622,17.029,-29.846,152.527
0.274,-1.002,0.632,17.029,-37.109,156.128
0.248,-1.03,0.649,17.029,-42.236,159.363
0.209,-1.056,0.639,15.869,-46.57,160.889
0.161,-1.057,0.61,13.184,-47.913,160.339
0.128,-1.041,0.592,10.498,-44.312,158.936
0.111,-1.034,0.583,9.888,-37.109,158.02
0.092,-1.028,0.571,10.254,-28.015,156.494
0.094,-1.02,0.583,11.23,-18.494,154.48
0.108,-1.01,0.612,12.817,-10.498,152.222
0.128,-1.006,0.633,14.771,-5.798,149.658
0.148,-1.0,0.636,16.296,-4.333,146.423
0.148,-0.986,0.625,18.005,-5.31,143.86
0.14,-0.982,0.606,19.104,-6.714,142.7
0.141,-0.994,0.588,20.874,-8.118,141.663
0.143,-1.0,0.576,23.01,-9.46,139.832
0.142,-0.986,0.577,25.635,-10.681,137.573
0.147,-0.989,0.585,30.09,-11.902,135.62
0.154,-1.0,0.587,34.668,-14.282,133.423
0.151,-1.007,0.575,37.903,-16.846,130.676
0.133,-1.0,0.56,39.49,-18.433,127.441
0.126,-0.973,0.551,39.246,-18.555,124.39
0.136,-0.958,0.539,37.842,-16.907,121.643
0.15,-0.946,0.526,35.583,-13.733,119.019
0.168,-0.929,0.528,33.203,-10.132,116.577
0.187,-0.911,0.529,30.457,-7.141,115.417
0.21,-0.897,0.53,28.442,-6.104,114.99
0.232,-0.88,0.528,26.428,-6.653,115.295
0.254,-0.86,0.528,24.475,-8.24,115.906
0.282,-0.847,0.528,22.766,-10.742,116.516
0.3,-0.832,0.522,21.24,-14.587,117.065
0.304,-0.804,0.513,19.47,-18.738,116.943
0.3,-0.772,0.505,18.25,-22.217,117.004
0.294,-0.744,0.495,17.273,-24.475,116.943
0.293,-0.724,0.484,17.334,-25.94,116.455
0.305,-0.714,0.484,18.86,-26.55,115.784
0.32,-0.702,0.487,20.996,-27.222,115.417
0.329,-0.688,0.488,24.292,-28.381,114.624
0.338,-0.673,0.49,27.771,-29.968,113.77
0.344,-0.658,0.489,31.006,-31.982,112.427
0.348,-0.654,0.485,34.485,-34.607,110.413
0.349,-0.653,0.48,37.537,-36.743,107.788
0.355,-0.647,0.481,39.734,-38.208,104.309
0.363,-0.642,0.487,41.504,-38.879,100.159
0.369,-0.639,0.495,42.725,-38.818,95.764
0.386,-0.637,0.503,42.847,-38.818,91.553
0.41,-0.631,0.513,42.358,-39.124,87.646
0.419,-0.627,0.516,41.687,-39.856,83.862
0.427,-0.619,0.517,40.71,-40.283,80.933
0.443,-0.603,0.519,39.124,-40.039,78.43
0.445,-0.585,0.522,37.781,-38.757,76.904
0.436,-0.574,0.511,35.4,-35.339,75.928
0.433,-0.59,0.508,35.217,-32.837,75.317
0.421,-0.585,0.509,34.912,-29.907,74.524
0.415,-0.583,0.513,35.706,-26.794,72.998
0.411,-0.58,0.52,36.682,-23.193,70.496
0.412,-0.579,0.524,37.903,-19.653,66.711
0.411,-0.581,0.522,39.49,-15.625,61.157
0.414,-0.577,0.517,41.321,-11.292,54.81
0.433,-0.579,0.524,42.48,-6.775,48.157
0.455,-0.578,0.538,42.664,-3.357,41.565
0.477,-0.568,0.544,41.687,-2.258,35.583
0.487,-0.555,0.527,40.527,-2.502,31.433
0.469,-0.557,0.494,39.368,-2.136,29.541
0.464,-0.563,0.481,37.72,1.343,28.32
0.527,-0.58,0.575,34.973,5.005,26.306
0.549,-0.513,0.544,31.006,-0.793,22.644
-0.644,-1.403,0.675,-12.695,83.801,-180.298
-0.752,-1.439,0.669,-13.184,84.106,-208.435
-0.876,-1.448,0.666,-13.855,86.609,-234.375
-1.004,-1.427,0.659,-13.733,90.271,-256.226
-1.15,-1.404,0.663,-15.991,96.191,-269.714
-1.243,-1.435,0.652,-22.827,103.149,-275.269
-1.244,-1.514,0.592,-36.865,110.718,-279.053
-1.23,-1.613,0.502,-57.434,120.239,-284.241
-1.187,-1.738,0.406,-83.13,131.897,-292.48
-0.993,-1.877,0.323,-110.596,142.944,-306.824
-0.693,-2.014,0.268,-137.817,148.132,-325.439
-0.385,-2.152,0.172,-162.231,143.982,-344.971
-0.048,-2.277,0.109,-182.8,131.775,-364.441
0.322,-2.385,0.099,-197.388,112.122,-382.751
0.701,-2.432,0.136,-201.355,82.825,-400.269
0.999,-2.347,0.108,-191.162,39.551,-416.26
1.172,-2.191,0.021,-161.133,-12.268,-427.124
1.267,-2.032,-0.071,-117.676,-58.35,-422.485
1.307,-1.868,-0.023,-68.298,-92.163,-395.447
1.293,-1.692,-0.009,-13.794,-119.141,-355.835
1.245,-1.562,-0.064,35.889,-139.221,-311.89
1.129,-1.726,-0.019,79.407,-138.123,-261.78
0.966,-1.694,0.004,105.896,-124.084,-221.497
0.832,-1.663,-0.032,120.544,-99.67,-180.298
0.727,-1.675,-0.036,132.08,-59.265,-142.273
0.625,-1.688,0.013,138.916,-8.606,-114.807
0.591,-1.688,0.078,141.785,41.504,-96.741
0.66,-1.588,0.187,142.822,90.21,-84.778
0.782,-1.554,0.342,140.625,128.784,-72.51
0.937,-1.558,0.414,132.69,146.423,-66.711
1.027,-1.535,0.48,117.249,147.095,-66.528
1.083,-1.479,0.529,94.849,133.057,-69.702
1.076,-1.334,0.523,68.542,107.3,-72.876
1.031,-1.192,0.512,41.748,77.576,-69.641
0.973,-1.09,0.454,17.151,48.035,-59.937
0.878,-1.022,0.41,-4.944,25.391,-44.8
0.768,-0.976,0.348,-25.269,9.338,-25.635
0.668,-0.937,0.282,-43.579,1.099,-4.822
0.583,-0.904,0.229,-58.167,-0.122,15.869
0.523,-0.886,0.193,-68.848,2.991,35.645
0.479,-0.883,0.17,-76.233,8.179,54.199
0.438,-0.885,0.164,-79.773,13.794,70.251
0.405,-0.887,0.167,-80.872,17.212,83.74
0.377,-0.889,0.173,-78.796,18.738,94.482
0.355,-0.887,0.184,-73.975,17.7,102.722
0.34,-0.89,0.195,-67.444,14.893,108.398
0.326,-0.898,0.208,-60.303,10.498,112.122
0.308,-0.905,0.229,-53.406,5.31,114.868
0.294,-0.919,0.24,-46.631,-0.61,117.126
0.277,-0.943,0.251,-42.236,-6.531,119.141
0.244,-0.951,0.267,-39.124,-11.292,120.728
0.214,-0.951,0.282,-36.621,-14.16,122.07
0.194,-0.95,0.287,-33.63,-15.442,124.146
0.188,-0.955,0.305,-30.212,-14.282,127.197
0.201,-0.97,0.346,-26.184,-12.085,131.042
0.208,-0.958,0.374,-22.4,-11.292,135.559
0.161,-0.966,0.327,-17.456,-11.414,141.724
0.133,-1.07,0.35,-13.0,-5.188,147.949
0.166,-1.063,0.415,-12.268,0.793,148.376
0.174,-1.013,0.431,-11.292,1.099,148.254
0.168,-1.026,0.437,-8.24,0.671,149.17
0.175,-1.064,0.44,-5.371,-0.488,149.292
0.176,-1.069,0.446,-3.54,-2.991,146.973
0.161,-1.036,0.451,-2.319,-5.188,144.897
0.147,-1.028,0.444,0.305,-6.287,144.775
0.143,-1.032,0.45,4.395,-5.127,145.325
0.176,-1.046,0.47,8.545,-3.113,144.714
0.173,-1.035,0.499,12.024,-1.953,142.578
0.186,-1.027,0.514,16.418,-2.747,141.357
0.219,-1.024,0.499,21.362,-4.211,142.273
0.229,-1.051,0.497,27.161,-3.662,143.982
0.189,-1.022,0.483,32.349,-1.77,145.813
0.218,-1.069,0.483,38.574,2.075,149.841
0.249,-1.094,0.496,42.603,6.165,151.917
0.271,-1.098,0.51,45.166,7.385,153.87
0.311,-1.133,0.511,46.57,5.31,155.396
0.336,-1.162,0.537,46.509,0.916,154.236
0.345,-1.145,0.567,45.776,-6.165,152.161
0.339,-1.137,0.571,45.41,-28.198,150.269
0.319,-1.135,0.568,44.922,-39.001,149.048
0.297,-1.125,0.559,44.006,-48.34,147.827
0.275,-1.115,0.548,43.457,-55.359,147.339
0.254,-1.109,0.548,43.762,-60.181,147.4
0.233,-1.105,0.542,44.556,-64.087,146.362
0.213,-1.083,0.521,44.8,-66.895,143.799
0.201,-1.062,0.503,44.312,-67.2,140.503
0.188,-1.049,0.477,43.884,-65.063,136.597
0.161,-1.038,0.443,42.114,-61.157,131.836
0.142,-1.022,0.407,39.001,-55.054,127.258
0.146,-0.998,0.397,35.339,-46.631,123.23
0.153,-0.964,0.41,31.982,-37.231,119.873
0.174,-0.94,0.44,28.625,-29.419,116.638
0.206,-0.924,0.467,25.513,-24.902,113.281
0.232,-0.902,0.48,22.034,-23.804,109.009
0.248,-0.878,0.487,18.982,-25.085,104.309
0.263,-0.862,0.483,16.296,-28.625,99.304
0.276,-0.857,0.477,14.648,-32.837,94.604
0.274,-0.851,0.47,12.939,-36.255,91.125
0.265,-0.836,0.464,11.902,-38.574,88.074
0.262,-0.817,0.46,11.841,-39.246,84.717
0.261,-0.807,0.453,12.573,-37.964,81.055
0.259,-0.801,0.442,13.367,-35.095,76.782
0.267,-0.793,0.441,14.038,-30.457,72.51
0.28,-0.787,0.445,13.611,-24.597,68.115
0.306,-0.78,0.453,12.878,-19.47,63.049
0.335,-0.762,0.456,11.292,-15.564,58.105
0.365,-0.748,0.458,9.46,-12.756,54.199
0.396,-0.731,0.457,7.996,-11.719,50.964
0.42,-0.711,0.455,6.775,-12.146,48.34
0.44,-0.691,0.453,5.92,-13.611,46.143
0.461,-0.668,0.45,5.493,-16.113,43.945
0.477,-0.647,0.444,5.92,-18.738,41.87
0.482,-0.63,0.435,6.714,-20.935,40.588
0.489,-0.617,0.427,7.751,-21.973,39.246
0.5,-0.606,0.42,9.033,-21.973,37.659
0.507,-0.591,0.411,9.888,-21.667,35.95
0.515,-0.582,0.405,11.414,-20.569,33.875
0.524,-0.578,0.406,12.817,-18.616,31.921
0.539,-0.575,0.411,13.733,-16.602,29.846
-1.114,-1.476,0.184,-20.264,-18.982,-14.404
-1.403,-1.319,-0.079,-51.208,-7.08,-32.593
-1.694,-1.132,-0.157,-61.523,12.939,-49.194
-1.836,-1.086,-0.051,-42.053,31.25,-71.228
-1.83,-1.199,0.129,-5.798,39.001,-103.577
-1.837,-1.385,0.332,27.71,36.072,-145.63
-1.876,-1.551,0.441,49.5,22.705,-196.228
-1.808,-1.747,0.399,58.411,4.395,-250.366
-1.651,-1.903,0.264,58.899,-9.277,-301.086
-1.478,-1.995,0.21,57.861,-11.658,-344.36
-1.212,-2.096,0.221,61.096,-6.409,-380.554
-0.862,-2.215,0.261,69.58,0.793,-414.062
-0.511,-2.327,0.286,82.703,7.568,-448.73
-0.268,-2.469,0.319,99.243,12.939,-482.91
-0.129,-2.639,0.36,113.831,16.724,-512.512
0.041,-2.858,0.41,125.488,20.447,-536.377
0.197,-3.062,0.487,134.277,24.841,-551.758
0.267,-3.239,0.607,134.705,30.029,-558.105
0.323,-3.249,0.638,122.253,35.95,-560.242
0.411,-3.111,0.553,104.37,49.072,-551.636
0.44,-2.883,0.467,87.402,76.843,-527.649
0.463,-2.734,0.302,71.228,113.892,-495.239
0.554,-2.769,0.062,50.72,160.583,-458.069
0.764,-2.791,-0.117,20.935,215.759,-421.326
1.019,-2.669,-0.249,-13.672,264.587,-385.132
1.225,-2.42,-0.296,-44.067,302.124,-346.252
1.384,-2.168,-0.211,-61.462,324.585,-304.687
1.505,-1.916,-0.155,-66.65,324.585,-262.695
1.62,-1.699,-0.099,-61.279,306.519,-220.459
1.708,-1.506,-0.042,-48.096,272.888,-180.603
1.72,-1.359,-0.043,-27.71,227.112,-147.034
1.647,-1.282,-0.031,-2.38,181.274,-118.774
1.523,-1.222,-0.004,23.254,138.916,-94.788
1.37,-1.169,0.016,46.814,103.394,-72.998
1.212,-1.058,0.074,67.505,79.895,-49.072
1.082,-1.068,0.119,85.938,66.772,-19.958
0.951,-1.148,0.148,95.52,61.096,7.874
0.851,-1.133,0.181,94.971,59.509,33.447
0.784,-1.163,0.252,90.088,60.303,59.326
0.719,-1.131,0.268,81.299,54.81,80.078
0.652,-1.1,0.282,71.228,47.852,103.394
0.617,-1.068,0.326,58.655,39.307,128.906
0.617,-1.112,0.317,46.387,25.574,155.64
0.602,-1.175,0.365,33.569,8.545,180.054
0.558,-1.236,0.394,16.541,-14.709,200.195
0.507,-1.284,0.363,-0.671,-44.556,213.989
0.436,-1.311,0.299,-17.029,-73.486,223.572
0.359,-1.314,0.243,-31.189,-96.313,230.957
0.297,-1.329,0.201,-40.466,-113.647,236.45
0.243,-1.355,0.156,-45.227,-126.648,238.647
0.182,-1.335,0.14,-46.631,-134.399,235.779
0.101,-1.248,0.138,-43.518,-136.963,228.821
0.036,-1.161,0.105,-36.011,-134.033,222.351
0.009,-1.157,0.079,-24.414,-122.559,217.773
-0.026,-1.172,0.07,-12.878,-104.248,213.257
-0.073,-1.167,0.067,-2.625,-82.581,208.862
-0.044,-1.202,0.113,6.775,-58.167,204.834
0.014,-1.166,0.201,12.695,-35.889,199.89
0.07,-1.118,0.265,18.494,-21.057,197.388
0.128,-1.109,0.292,26.489,-13.062,198.242
0.2,-1.141,0.329,34.79,-9.766,200.562
0.259,-1.173,0.366,41.931,-12.329,201.782
0.272,-1.175,0.382,47.485,-20.874,201.172
0.253,-1.164,0.384,52.612,-31.982,200.256
0.213,-1.166,0.388,58.899,-42.664,199.707
0.17,-1.179,0.403,66.223,-51.208,199.097
0.147,-1.215,0.432,73.364,-56.885,197.876
0.156,-1.25,0.513,77.637,-61.707,194.58
0.076,-1.218,0.478,78.918,-69.153,189.758
0.067,-1.276,0.447,78.796,-70.496,185.669
0.03,-1.267,0.438,74.768,-67.566,177.246
0.037,-1.276,0.43,68.909,-61.829,169.861
0.041,-1.287,0.415,58.899,-56.274,160.522
0.033,-1.273,0.416,47.363,-49.072,150.574
0.038,-1.252,0.404,35.522,-42.725,140.503
0.069,-1.232,0.399,24.231,-37.109,130.859
0.082,-1.172,0.422,14.832,-33.325,122.07
0.076,-1.132,0.442,9.399,-32.776,117.126
0.083,-1.096,0.46,7.263,-34.79,113.77
0.088,-1.066,0.478,7.568,-38.208,111.572
0.085,-1.051,0.471,8.972,-42.786,109.863
0.07,-1.041,0.456,9.094,-46.753,107.544
0.054,-1.027,0.442,8.667,-49.072,103.577
0.037,-1.0,0.411,7.446,-49.805,98.206
0.022,-0.974,0.375,6.531,-46.631,92.773
0.008,-0.965,0.361,5.188,-39.001,87.219
0.04,-0.946,0.364,2.197,-30.09,80.261
0.079,-0.918,0.367,-2.075,-20.874,74.28
0.113,-0.883,0.382,-5.371,-13.489,69.58
0.149,-0.855,0.377,-7.751,-10.437,66.101
0.195,-0.85,0.376,-8.24,-10.132,63.599
0.236,-0.842,0.383,-7.08,-12.39,60.852
0.261,-0.829,0.388,-4.883,-17.456,57.434
0.275,-0.819,0.387,-1.953,-23.926,53.955
0.288,-0.815,0.386,1.465,-31.311,50.293
0.292,-0.805,0.385,4.639,-38.147,46.692
0.281,-0.792,0.379,7.141,-43.579,42.725
0.27,-0.781,0.369,8.667,-46.692,38.574
0.262,-0.775,0.364,9.46,-46.936,34.729
0.263,-0.761,0.362,9.155,-44.861,31.128
0.273,-0.75,0.363,8.484,-40.771,27.71
0.288,-0.737,0.365,7.324,-35.767,24.597
0.304,-0.73,0.366,6.226,-30.64,21.79
0.323,-0.725,0.363,5.493,-26.428,18.799
0.345,-0.723,0.366,5.066,-22.705,15.808
0.365,-0.721,0.368,5.066,-19.714,13.0
0.378,-0.715,0.37,5.31,-17.761,10.376
0.393,-0.713,0.371,6.226,-16.418,7.751
0.412,-0.716,0.377,7.324,-15.503,4.7
0.438,-0.719,0.387,8.606,-14.832,1.587
0.46,-0.718,0.39,9.155,-14.954,-0.671
0.474,-0.719,0.391,9.888,-15.869,-2.38
0.489,-0.717,0.391,10.254,-17.578,-3.296
0.493,-0.712,0.38,10.62,-18.372,-3.54
0.483,-0.703,0.381,10.681,-16.968,-3.174
0.489,-0.728,0.399,10.498,-14.038,-2.502
0.506,-0.738,0.404,8.423,-11.719,-3.113
0.527,-0.73,0.413,6.104,-9.888,-3.906
0.533,-0.727,0.409,3.967,-8.911,-4.639
-0.895,-1.474,0.545,-14.587,41.87,-17.7
-1.027,-1.532,0.588,-27.039,61.951,-25.757
-1.142,-1.557,0.624,-42.053,78.369,-36.804
-1.279,-1.591,0.663,-58.228,88.684,-50.964
-1.443,-1.615,0.646,-75.439,94.604,-67.749
-1.605,-1.623,0.604,-95.154,99.854,-88.684
-1.749,-1.633,0.533,-117.615,108.643,-113.22
-1.829,-1.645,0.418,-141.113,122.07,-141.907
-1.847,-1.675,0.312,-164.856,142.09,-172.729
-1.724,-1.692,0.206,-185.913,164.856,-204.163
-1.43,-1.74,0.125,-199.707,183.228,-237.183
-1.08,-1.825,0.104,-204.529,194.885,-269.47
-0.668,-1.893,0.15,-202.881,193.237,-298.706
-0.139,-1.977,0.254,-194.031,173.096,-323.608
0.371,-2.06,0.342,-177.979,135.193,-343.506
0.684,-2.043,0.378,-159.119,87.891,-360.901
0.775,-1.947,0.366,-136.841,43.884,-375.61
0.795,-1.925,0.34,-111.877,15.137,-383.484
0.857,-1.925,0.344,-87.769,4.517,-387.329
0.977,-1.862,0.212,-65.552,10.01,-383.789
1.165,-1.928,0.242,-47.668,38.269,-365.845
1.399,-2.016,0.298,-45.715,69.214,-346.313
1.558,-1.917,0.271,-57.495,88.928,-329.346
1.656,-1.738,0.281,-69.946,103.271,-307.556
1.757,-1.609,0.248,-77.515,107.544,-284.79
1.837,-1.478,0.203,-78.491,102.6,-263.0
1.879,-1.343,0.2,-72.388,92.896,-240.356
1.883,-1.22,0.212,-60.547,78.308,-216.492
1.853,-1.104,0.22,-45.41,59.937,-190.979
1.795,-0.993,0.213,-29.724,39.917,-164.062
1.717,-0.89,0.205,-14.282,21.179,-136.78
1.624,-0.826,0.2,1.038,5.188,-109.07
1.524,-0.783,0.221,15.381,-7.69,-82.275
1.43,-0.749,0.231,27.771,-19.714,-56.335
1.329,-0.758,0.245,38.574,-29.419,-30.884
1.233,-0.792,0.28,44.922,-37.781,-6.836
1.13,-0.817,0.302,46.387,-46.631,13.672
1.021,-0.843,0.318,43.091,-55.115,31.555
0.914,-0.875,0.333,36.011,-62.012,46.814
0.808,-0.9,0.328,26.062,-67.81,59.875
0.707,-0.901,0.297,14.954,-71.045,71.167
0.62,-0.929,0.281,4.395,-70.496,81.421
0.541,-0.947,0.254,-5.737,-68.848,87.524
0.476,-0.935,0.244,-14.648,-65.247,90.759
0.426,-0.894,0.242,-21.362,-61.218,92.957
0.386,-0.863,0.231,-24.414,-57.251,96.008
0.349,-0.869,0.22,-24.353,-52.246,99.731
0.302,-0.86,0.227,-23.743,-45.532,102.661
0.259,-0.818,0.233,-21.851,-39.734,105.164
0.236,-0.806,0.238,-17.334,-34.302,108.337
0.213,-0.804,0.245,-11.292,-29.236,111.694
0.192,-0.807,0.258,-5.005,-23.987,115.479
0.184,-0.82,0.281,1.465,-18.677,119.507
0.185,-0.83,0.311,7.019,-14.709,123.352
0.193,-0.838,0.352,12.268,-13.855,127.747
0.188,-0.835,0.386,16.663,-16.724,132.629
0.166,-0.844,0.405,21.484,-22.888,137.634
0.136,-0.886,0.416,27.466,-29.846,141.602
0.099,-0.941,0.45,31.921,-36.438,143.372
0.072,-0.951,0.5,33.752,-43.945,141.663
0.045,-0.925,0.528,34.912,-53.65,138.977
0.007,-0.933,0.545,36.804,-61.707,137.695
-0.048,-0.95,0.546,38.208,-66.406,135.681
-0.105,-0.954,0.539,39.246,-67.627,132.751
-0.126,-0.972,0.546,39.49,-65.552,129.272
-0.12,-0.98,0.559,38.818,-62.073,124.268
-0.129,-1.0,0.57,37.415,-57.373,120.117
-0.137,-1.014,0.582,35.339,-51.758,116.028
-0.116,-1.034,0.612,31.616,-46.509,112.122
-0.078,-1.025,0.624,26.611,-43.213,108.887
-0.065,-1.013,0.616,20.813,-41.931,106.14
-0.054,-1.018,0.612,16.296,-40.588,103.821
-0.047,-1.01,0.606,12.207,-40.283,101.013
-0.024,-1.008,0.605,9.094,-40.405,97.534
0.003,-1.002,0.599,6.409,-40.71,93.262
0.029,-0.996,0.587,4.333,-41.26,89.05
0.05,-0.985,0.565,2.136,-40.955,85.022
0.079,-0.959,0.56,0.0,-39.734,81.543
0.088,-0.932,0.561,-0.732,-37.415,80.566
0.077,-0.911,0.557,0.854,-34.668,81.421
0.071,-0.907,0.557,3.662,-30.457,83.74
0.066,-0.913,0.562,6.836,-25.085,86.487
0.062,-0.907,0.573,8.667,-18.555,88.684
0.068,-0.908,0.577,10.01,-11.841,90.027
0.078,-0.916,0.58,10.376,-5.615,90.21
0.089,-0.903,0.587,9.46,0.244,88.867
0.105,-0.894,0.597,8.423,4.211,86.731
0.141,-0.905,0.612,7.568,6.165,84.045
0.176,-0.903,0.614,5.127,5.615,80.444
0.189,-0.891,0.62,2.38,3.235,76.66
0.191,-0.869,0.626,0.183,-0.366,73.303
0.202,-0.852,0.632,-0.977,-5.493,71.35
0.208,-0.844,0.635,-1.404,-11.841,69.824
0.195,-0.834,0.618,-1.465,-18.799,67.81
0.161,-0.817,0.594,-1.831,-23.499,65.857
0.139,-0.796,0.577,-1.77,-25.146,61.646
0.126,-0.788,0.563,-1.892,-23.132,59.021
0.111,-0.79,0.553,-1.77,-19.531,56.396
0.108,-0.785,0.552,-1.648,-14.526,54.199
0.126,-0.781,0.562,-1.587,-10.071,51.819
0.143,-0.778,0.564,-1.77,-7.385,48.645
0.146,-0.77,0.554,-1.77,-6.409,44.678
0.149,-0.761,0.552,-1.526,-5.859,40.588
0.159,-0.753,0.559,-0.366,-5.676,36.804
0.174,-0.742,0.571,0.793,-5.859,33.752
0.189,-0.733,0.578,2.197,-7.08,30.64
0.195,-0.732,0.575,3.845,-9.155,28.076
0.2,-0.74,0.568,5.066,-11.292,25.879
0.203,-0.742,0.563,6.165,-12.573,23.865
0.211,-0.74,0.561,6.714,-13.489,22.034
0.223,-0.741,0.56,7.141,-13.855,20.264
0.229,-0.738,0.555,7.446,-14.526,18.799
0.23,-0.737,0.549,7.568,-14.832,17.517
0.234,-0.736,0.547,7.324,-14.465,16.479
0.242,-0.74,0.554,7.324,-13.184,15.686
0.247,-0.74,0.56,8.179,-11.719,14.832
0.253,-0.748,0.562,8.423,-10.376,13.794
0.269,-0.757,0.565,8.545,-9.216,12.634
0.276,-0.762,0.567,8.362,-8.179,11.353
-0.978,-1.23,0.643,-19.897,-11.78,-12.329
-1.237,-1.267,0.59,-39.063,-6.348,-18.25
-1.534,-1.299,0.504,-61.584,4.639,-25.757
-1.813,-1.289,0.412,-83.496,22.827,-38.208
-2.041,-1.221,0.326,-102.234,45.898,-55.237
-2.153,-1.161,0.223,-113.22,70.618,-77.271
-2.101,-1.151,0.185,-109.863,92.102,-108.765
-1.978,-1.21,0.25,-93.018,107.483,-149.902
-1.83,-1.317,0.389,-67.81,109.253,-197.937
-1.601,-1.447,0.492,-41.87,93.384,-250.488
-1.313,-1.595,0.542,-17.151,65.674,-302.979
-1.045,-1.767,0.552,5.371,34.729,-350.525
-0.772,-1.958,0.554,25.391,4.211,-392.334
-0.465,-2.072,0.59,41.992,-27.1,-430.542
-0.221,-2.053,0.557,61.707,-57.8,-463.257
0.022,-2.276,0.703,87.708,-80.139,-485.474
0.194,-2.469,0.796,111.023,-107.849,-509.583
0.25,-2.56,0.787,127.197,-138.123,-528.076
0.266,-2.538,0.766,137.39,-152.649,-528.87
0.349,-2.391,0.724,139.038,-152.344,-513.794
0.437,-2.207,0.635,138.611,-135.864,-491.882
0.503,-2.19,0.517,140.991,-102.417,-461.487
0.553,-2.177,0.399,143.066,-56.335,-425.232
0.691,-2.336,0.488,143.433,-1.892,-384.766
0.767,-2.097,0.421,138.672,40.771,-349.915
0.897,-1.88,0.388,137.939,83.069,-305.664
1.001,-1.745,0.415,140.137,116.882,-253.723
1.044,-1.629,0.38,142.09,139.832,-208.252
1.091,-1.539,0.393,140.747,156.982,-165.833
1.134,-1.411,0.371,133.789,168.579,-126.221
1.172,-1.363,0.464,124.023,171.936,-87.952
1.149,-1.235,0.485,109.741,161.011,-54.138
1.107,-1.184,0.403,94.666,143.677,-19.836
1.083,-1.245,0.447,79.468,130.737,10.803
1.033,-1.156,0.522,57.129,111.267,33.569
0.949,-1.084,0.509,33.02,81.604,55.786
0.849,-1.069,0.546,9.705,54.81,76.294
0.734,-1.024,0.53,-14.954,28.015,94.788
0.594,-0.989,0.469,-38.025,4.883,113.22
0.453,-0.977,0.424,-57.983,-8.789,130.432
0.333,-0.977,0.376,-75.684,-15.015,146.301
0.242,-0.992,0.347,-90.576,-15.015,159.851
0.183,-0.999,0.334,-103.76,-10.62,170.715
0.148,-1.002,0.311,-113.892,-4.7,180.176
0.108,-1.012,0.282,-120.239,2.625,187.622
0.048,-0.979,0.259,-123.23,11.536,192.993
0.002,-0.944,0.223,-121.216,22.339,199.28
-0.011,-0.932,0.204,-113.525,34.973,205.872
-0.014,-0.97,0.194,-102.295,48.157,210.327
-0.023,-1.027,0.22,-90.515,59.998,210.205
-0.025,-1.02,0.294,-80.933,67.2,203.979
0.005,-0.964,0.355,-71.106,66.833,195.679
0.059,-0.955,0.411,-58.899,60.425,189.27
0.08,-0.955,0.447,-47.485,48.828,182.434
0.057,-0.945,0.467,-36.926,35.217,178.101
0.013,-0.933,0.482,-27.344,22.705,176.331
-0.027,-0.907,0.485,-18.066,11.963,175.232
-0.074,-0.884,0.492,-8.484,5.371,176.147
-0.117,-0.895,0.508,1.465,4.15,179.016
-0.138,-0.921,0.529,10.315,7.141,182.312
-0.132,-0.931,0.555,16.052,12.573,184.448
-0.125,-0.955,0.589,20.081,18.677,184.326
-0.124,-0.975,0.609,21.79,23.315,180.542
-0.126,-0.986,0.617,21.301,26.794,174.072
-0.112,-0.996,0.633,20.569,29.724,166.077
-0.074,-1.004,0.652,19.592,31.006,156.982
-0.061,-1.0,0.662,19.287,30.457,148.254
-0.061,-0.984,0.67,21.301,28.015,141.113
-0.029,-0.978,0.69,24.475,24.719,135.254
0.017,-0.987,0.7,27.649,19.836,130.432
0.036,-0.983,0.692,29.236,13.428,126.221
0.041,-0.974,0.675,28.931,6.653,121.765
0.042,-0.955,0.642,27.588,1.099,117.554
0.044,-0.939,0.607,25.757,-2.197,113.586
0.06,-0.931,0.591,24.475,-3.296,109.07
0.084,-0.921,0.594,23.193,-3.662,104.492
0.096,-0.912,0.604,22.583,-5.066,100.403
0.096,-0.907,0.605,23.376,-7.08,96.863
0.083,-0.91,0.603,26.001,-9.46,94.482
0.08,-0.907,0.611,30.09,-11.658,92.224
0.091,-0.91,0.611,33.997,-14.832,89.417
0.105,-0.911,0.61,36.987,-18.311,85.876
0.106,-0.899,0.608,39.673,-22.278,81.726
0.105,-0.892,0.6,41.748,-26.978,77.332
0.116,-0.888,0.582,43.457,-30.579,72.51
0.116,-0.879,0.554,44.495,-31.86,67.139
0.11,-0.876,0.526,44.983,-30.334,62.012
0.111,-0.865,0.501,44.739,-25.94,56.824
0.11,-0.85,0.489,45.349,-19.531,53.162
0.118,-0.855,0.502,46.997,-12.024,50.842
0.141,-0.867,0.521,48.584,-6.226,49.316
0.177,-0.87,0.539,47.913,-2.319,48.767
0.199,-0.864,0.55,45.654,-0.977,49.683
0.208,-0.857,0.548,42.908,-1.892,51.392
0.228,-0.859,0.549,40.894,-3.906,53.101
0.253,-0.868,0.551,38.269,-6.47,54.26
0.265,-0.88,0.547,34.668,-9.827,53.894
0.274,-0.884,0.534,29.785,-13.977,52.002
0.29,-0.869,0.515,24.109,-18.25,48.645
0.296,-0.846,0.501,19.714,-21.912,44.922
0.289,-0.823,0.496,16.602,-25.208,42.053
0.276,-0.805,0.493,14.587,-27.771,40.283
0.264,-0.792,0.495,13.977,-30.09,39.307
0.251,-0.784,0.501,14.709,-31.677,38.513
0.236,-0.78,0.504,16.235,-33.203,37.659
0.216,-0.779,0.499,17.883,-34.302,36.499
0.199,-0.78,0.49,19.287,-34.241,34.851
0.185,-0.778,0.477,20.691,-32.654,32.715
0.171,-0.783,0.457,21.545,-29.541,29.907
0.168,-0.783,0.458,21.912,-23.865,26.794
0.183,-0.784,0.474,21.729,-17.761,23.499
0.216,-0.785,0.476,20.935,-13.794,20.325
0.258,-0.786,0.488,19.775,-11.475,17.639
0.297,-0.782,0.501,18.555,-11.902,15.869
0.342,-0.806,0.521,17.761,-15.32,14.832
0.37,-0.805,0.534,16.357,-22.156,13.062
0.378,-0.801,0.533,14.954,-30.701,11.841
0.333,-0.763,0.491,15.076,-37.903,11.536
0.283,-0.761,0.444,18.188,-37.903,14.465
-0.881,-1.392,0.534,-27.954,53.65,41.199
-1.057,-1.435,0.554,-40.405,59.57,39.917
-1.207,-1.469,0.571,-56.213,64.941,34.729
-1.302,-1.489,0.566,-74.097,69.885,22.278
-1.31,-1.497,0.546,-92.957,73.853,1.343
-1.251,-1.48,0.515,-111.694,75.623,-25.879
-1.207,-1.46,0.476,-128.052,74.89,-57.19
-1.219,-1.436,0.436,-139.465,72.937,-92.163
-1.207,-1.421,0.412,-145.386,70.068,-129.578
-1.104,-1.425,0.417,-146.606,65.674,-167.053
-0.966,-1.414,0.448,-145.325,60.059,-201.233
-0.843,-1.396,0.494,-140.93,52.673,-232.788
-0.709,-1.398,0.516,-133.24,42.664,-263.367
-0.518,-1.399,0.532,-120.667,31.067,-292.175
-0.344,-1.407,0.559,-100.586,17.456,-319.58
-0.211,-1.457,0.572,-74.28,1.526,-346.741
-0.063,-1.506,0.584,-47.485,-14.282,-375.61
0.067,-1.551,0.619,-18.555,-25.513,-404.785
0.187,-1.705,0.716,11.414,-29.724,-430.054
0.307,-1.945,0.844,33.813,-28.625,-448.669
0.37,-2.086,0.928,42.664,-18.982,-455.994
0.683,-2.229,0.81,22.583,36.316,-425.964
0.984,-2.282,0.663,-4.211,74.036,-396.118
1.317,-2.284,0.531,-36.316,112.122,-365.051
1.667,-2.188,0.451,-66.04,144.653,-334.656
1.928,-2.003,0.378,-88.684,163.391,-303.528
2.064,-1.787,0.375,-102.112,167.786,-270.752
2.091,-1.577,0.375,-104.98,162.415,-235.84
2.068,-1.428,0.367,-100.159,151.855,-197.632
2.006,-1.271,0.341,-92.468,136.78,-157.104
1.922,-1.17,0.317,-81.787,119.812,-115.601
1.816,-1.099,0.278,-70.007,100.891,-77.576
1.687,-1.016,0.248,-58.044,81.787,-44.128
1.536,-0.943,0.232,-45.959,63.538,-15.137
1.385,-0.892,0.25,-33.508,47.791,9.766
1.242,-0.87,0.267,-22.705,33.447,32.043
1.114,-0.856,0.275,-14.404,20.081,50.598
0.991,-0.836,0.284,-8.972,7.751,66.589
0.87,-0.807,0.284,-5.859,-3.723,80.139
0.761,-0.776,0.285,-3.723,-14.648,91.919
0.677,-0.768,0.295,-1.77,-24.292,101.99
0.611,-0.772,0.311,-0.549,-33.386,108.826
0.545,-0.767,0.312,-0.122,-42.175,112.793
0.483,-0.75,0.303,0.488,-50.171,115.112
0.427,-0.736,0.292,1.038,-55.42,116.272
0.383,-0.729,0.29,3.052,-57.678,116.272
0.332,-0.71,0.282,5.554,-57.617,115.723
0.286,-0.689,0.277,9.827,-55.481,116.028
0.265,-0.685,0.277,15.869,-50.659,117.798
0.266,-0.687,0.288,23.621,-44.678,120.3
0.28,-0.699,0.31,31.189,-38.086,123.84
0.307,-0.724,0.332,38.269,-33.02,128.662
0.342,-0.738,0.347,44.495,-30.64,134.033
0.383,-0.751,0.366,49.988,-31.189,139.221
0.426,-0.794,0.387,54.81,-34.851,143.982
0.426,-0.816,0.391,58.838,-42.603,146.973
0.341,-0.846,0.36,62.317,-50.598,150.879
0.332,-0.948,0.443,66.04,-54.077,154.602
0.35,-0.937,0.504,67.871,-62.134,153.625
0.267,-0.886,0.492,71.777,-74.463,155.334
0.193,-0.949,0.514,78.979,-80.75,162.17
0.147,-1.015,0.525,84.717,-84.961,166.443
0.076,-1.017,0.516,87.83,-86.792,167.358
0.001,-1.016,0.522,91.37,-82.336,168.274
-0.042,-1.019,0.531,94.116,-72.51,167.664
-0.042,-1.039,0.537,95.886,-59.692,164.612
-0.024,-1.061,0.549,94.971,-44.983,158.813
-0.079,-1.041,0.518,91.675,-30.579,151.306
-0.062,-1.121,0.516,88.501,-12.878,144.348
0.028,-1.098,0.652,83.679,3.662,132.874
0.084,-1.037,0.698,78.735,4.822,123.84
0.088,-1.039,0.651,73.853,-3.174,119.385
0.102,-1.1,0.692,69.275,-8.118,116.028
0.097,-1.085,0.683,61.34,-18.25,110.84
0.059,-1.036,0.625,52.185,-30.09,106.812
0.078,-1.074,0.629,44.861,-35.828,103.821
0.065,-1.062,0.609,36.133,-41.26,98.389
0.044,-1.036,0.583,27.466,-44.556,93.872
0.046,-1.029,0.556,19.958,-44.312,89.233
0.044,-1.021,0.535,13.0,-41.382,85.388
0.032,-0.994,0.525,8.667,-35.95,83.069
0.04,-0.977,0.522,7.568,-29.663,82.458
0.055,-0.975,0.519,9.155,-24.353,82.397
0.08,-0.974,0.513,11.597,-20.203,82.031
0.098,-0.97,0.516,14.526,-17.029,81.116
0.106,-0.974,0.52,16.418,-14.832,80.383
0.125,-0.98,0.524,17.517,-14.16,78.613
0.146,-0.976,0.526,17.517,-14.771,76.05
0.163,-0.965,0.519,16.541,-17.151,72.876
0.174,-0.956,0.509,15.503,-20.142,69.458
0.185,-0.948,0.499,14.893,-22.949,65.857
0.195,-0.936,0.49,14.16,-25.33,62.439
0.188,-0.923,0.485,14.16,-27.283,59.082
0.175,-0.917,0.49,15.808,-28.015,56.885
0.166,-0.917,0.494,18.127,-27.527,55.847
0.151,-0.915,0.494,20.325,-25.818,55.115
0.135,-0.915,0.496,21.973,-23.01,54.81
0.128,-0.918,0.497,22.156,-19.104,54.382
0.128,-0.924,0.497,21.545,-14.832,53.101
0.131,-0.923,0.495,19.958,-10.681,50.903
0.149,-0.914,0.494,17.273,-7.69,47.974
0.17,-0.904,0.488,13.794,-5.676,44.25
0.192,-0.893,0.478,10.132,-4.944,40.222
0.222,-0.879,0.475,6.958,-4.883,36.377
0.26,-0.866,0.475,4.822,-6.531,32.837
0.299,-0.854,0.472,3.052,-10.376,29.175
0.323,-0.837,0.468,1.648,-16.357,25.452
0.332,-0.823,0.458,1.526,-23.865,22.217
0.328,-0.804,0.445,1.953,-31.311,19.348
0.32,-0.79,0.437,3.052,-36.804,17.151
0.309,-0.783,0.432,5.127,-40.344,14.893
0.304,-0.78,0.428,6.836,-41.382,12.756
0.299,-0.776,0.424,8.789,-40.161,11.108
0.292,-0.768,0.428,10.925,-37.354,10.376
0.291,-0.77,0.436,12.39,-32.471,10.254
0.292,-0.774,0.439,12.878,-26.794,9.949
0.295,-0.774,0.441,12.695,-20.447,9.705
0.302,-0.774,0.445,11.597,-13.611,9.888
0.316,-0.778,0.455,10.193,-7.141,9.949
-0.866,-1.32,0.775,-25.818,41.443,-12.878
-1.076,-1.336,0.764,-38.879,57.251,-19.653
-1.247,-1.367,0.749,-56.824,73.425,-30.701
-1.389,-1.407,0.729,-79.285,88.562,-46.631
-1.533,-1.432,0.647,-106.14,101.807,-65.491
-1.652,-1.458,0.566,-136.108,114.99,-88.257
-1.646,-1.475,0.493,-166.992,128.113,-116.15
-1.548,-1.469,0.417,-195.496,139.038,-147.339
-1.438,-1.44,0.37,-217.407,145.02,-179.26
-1.288,-1.38,0.376,-228.638,141.907,-207.703
-1.044,-1.359,0.4,-228.699,128.174,-233.826
-0.823,-1.37,0.494,-219.91,106.506,-257.874
-0.599,-1.39,0.585,-203.796,75.256,-281.86
-0.328,-1.452,0.613,-184.143,37.109,-311.096
-0.079,-1.454,0.639,-161.011,-5.188,-348.572
0.122,-1.487,0.629,-130.005,-50.293,-383.545
0.303,-1.511,0.648,-93.14,-95.886,-411.743
0.472,-1.49,0.63,-56.885,-138.428,-430.176
0.56,-1.49,0.679,-17.517,-157.288,-431.885
0.535,-1.521,0.781,15.076,-152.71,-414.795
0.458,-1.652,0.827,38.391,-129.211,-384.216
0.512,-1.743,0.746,49.011,-97.534,-353.394
0.676,-1.762,0.694,47.852,-51.758,-315.918
0.821,-1.757,0.705,36.743,2.319,-277.893
0.965,-1.742,0.684,22.095,53.467,-249.329
1.164,-1.787,0.659,6.47,97.107,-230.469
1.347,-1.756,0.614,-10.315,127.563,-220.215
1.475,-1.678,0.549,-26.001,144.836,-213.928
1.578,-1.613,0.488,-39.917,152.283,-208.557
1.656,-1.542,0.413,-51.208,152.893,-202.515
1.664,-1.419,0.305,-57.739,153.076,-192.993
1.627,-1.33,0.259,-57.8,158.936,-177.185
1.64,-1.329,0.187,-55.176,163.757,-158.325
1.707,-1.206,0.142,-55.115,159.18,-135.437
1.696,-1.005,0.16,-50.049,148.071,-105.652
1.617,-0.874,0.168,-38.513,130.188,-70.862
1.524,-0.824,0.184,-24.048,107.849,-32.715
1.431,-0.799,0.207,-9.705,80.139,4.7
1.326,-0.802,0.249,3.479,47.424,39.429
1.185,-0.837,0.287,15.32,13.367,71.594
1.012,-0.87,0.293,23.499,-18.066,98.938
0.835,-0.902,0.296,28.198,-44.25,121.094
0.672,-0.923,0.314,30.64,-63.416,138.428
0.533,-0.959,0.355,31.189,-77.087,151.794
0.415,-0.983,0.397,29.114,-87.891,160.095
0.315,-0.986,0.426,25.33,-95.947,164.673
0.236,-0.98,0.456,20.813,-99.121,167.908
0.163,-0.973,0.469,17.456,-99.121,170.41
0.099,-0.946,0.47,15.076,-97.534,171.997
0.037,-0.89,0.497,15.137,-92.529,174.255
-0.016,-0.833,0.529,19.348,-85.693,178.162
-0.045,-0.842,0.54,28.259,-78.796,183.289
-0.155,-0.883,0.49,37.903,-69.092,187.073
-0.222,-1.051,0.538,44.25,-53.894,186.951
-0.087,-1.132,0.727,44.373,-43.03,174.255
0.013,-1.044,0.837,42.542,-54.199,154.053
0.001,-0.906,0.726,41.565,-79.59,141.479
0.016,-0.995,0.753,44.067,-88.989,142.029
-0.06,-1.014,0.674,43.03,-101.99,139.221
-0.189,-0.981,0.646,43.823,-111.267,137.756
-0.219,-0.987,0.687,46.448,-112.061,139.954
-0.209,-1.016,0.71,47.302,-111.084,143.188
-0.264,-1.008,0.706,45.044,-109.558,146.851
-0.285,-1.052,0.725,41.077,-103.027,153.381
-0.268,-1.081,0.743,33.63,-94.482,157.837
-0.27,-1.034,0.704,25.33,-86.304,159.119
-0.29,-0.965,0.641,19.226,-73.73,161.926
-0.303,-0.912,0.614,16.968,-55.908,169.006
-0.312,-0.879,0.621,20.752,-38.025,179.26
-0.32,-0.866,0.672,30.64,-24.231,189.819
-0.246,-0.907,0.704,42.358,-15.808,196.899
-0.176,-0.933,0.663,51.575,-14.221,197.998
-0.15,-0.943,0.65,59.326,-12.146,197.388
-0.157,-0.939,0.607,65.979,-11.902,195.679
-0.159,-0.948,0.582,72.083,-12.39,193.176
-0.155,-0.965,0.549,77.759,-11.719,189.758
-0.145,-0.984,0.537,82.214,-9.399,185.059
-0.138,-0.992,0.551,85.571,-6.409,178.528
-0.141,-0.99,0.563,86.975,-4.028,170.837
-0.145,-0.979,0.562,86.609,-1.038,162.292
-0.145,-0.969,0.556,85.876,2.93,153.992
-0.156,-0.969,0.558,83.923,7.202,146.606
-0.15,-0.976,0.554,80.566,10.498,139.221
-0.129,-0.953,0.54,75.378,13.245,130.676
-0.093,-0.951,0.539,69.214,17.151,121.277
-0.063,-0.951,0.523,62.317,20.264,110.84
-0.025,-0.945,0.511,54.993,21.484,99.487
0.023,-0.939,0.52,46.387,20.081,87.585
0.078,-0.934,0.527,37.292,15.015,75.012
0.113,-0.907,0.532,29.114,6.653,62.866
0.112,-0.872,0.517,22.827,-3.174,53.04
0.114,-0.857,0.502,19.348,-12.512,45.593
0.13,-0.85,0.494,17.7,-20.386,38.757
0.14,-0.843,0.482,16.724,-26.978,32.898
0.144,-0.837,0.468,16.357,-31.799,27.954
0.149,-0.839,0.458,16.174,-34.424,23.254
0.162,-0.84,0.452,16.357,-35.278,19.348
0.171,-0.835,0.444,16.052,-34.729,16.235
0.173,-0.825,0.432,15.442,-32.837,13.672
0.178,-0.814,0.426,14.709,-28.625,11.963
0.187,-0.811,0.435,15.137,-22.888,10.681
0.199,-0.815,0.439,15.686,-17.029,9.827
0.221,-0.824,0.452,15.625,-11.597,8.728
0.251,-0.833,0.462,15.015,-7.202,7.263
0.284,-0.849,0.47,13.916,-4.395,4.944
0.318,-0.852,0.477,11.597,-3.601,2.319
0.35,-0.84,0.477,9.155,-5.005,-0.793
0.378,-0.835,0.479,7.019,-7.446,-3.113
0.391,-0.829,0.474,5.188,-10.742,-4.456
0.386,-0.817,0.461,3.479,-14.526,-5.371
0.382,-0.81,0.451,2.319,-16.968,-5.493
0.39,-0.807,0.46,2.197,-17.517,-5.249
0.399,-0.811,0.467,2.747,-18.188,-4.883
0.397,-0.809,0.458,3.235,-19.409,-4.456
0.394,-0.803,0.449,3.784,-20.386,-3.662
0.39,-0.802,0.447,4.578,-20.142,-3.235
0.38,-0.8,0.443,5.188,-18.616,-2.869
0.365,-0.795,0.432,5.432,-15.564,-2.136
0.354,-0.798,0.417,5.859,-11.23,-1.099
-0.942,-1.263,0.609,-25.024,40.039,18.372
-1.133,-1.304,0.648,-31.25,59.509,16.418
-1.292,-1.383,0.658,-40.833,78.918,9.827
-1.398,-1.452,0.659,-54.26,98.694,-3.174
-1.443,-1.499,0.678,-70.74,117.31,-23.743
-1.408,-1.499,0.703,-90.698,131.348,-50.476
-1.4,-1.471,0.7,-112.976,135.803,-80.627
-1.466,-1.455,0.691,-133.85,132.751,-111.572
-1.541,-1.431,0.643,-152.466,123.291,-142.456
-1.541,-1.42,0.577,-166.382,111.755,-173.462
-1.482,-1.443,0.522,-175.049,99.426,-203.003
-1.446,-1.507,0.496,-180.481,85.571,-230.896
-1.391,-1.534,0.478,-183.838,69.275,-260.132
-1.166,-1.701,0.507,-183.472,53.284,-289.49
-0.896,-1.759,0.449,-176.636,35.767,-325.806
-0.567,-1.937,0.444,-160.706,15.93,-365.784
-0.196,-1.936,0.403,-142.151,-9.033,-407.959
0.131,-2.01,0.35,-111.084,-26.855,-439.636
0.347,-2.133,0.328,-74.951,-37.781,-471.558
0.606,-2.13,0.317,-36.621,-35.095,-499.39
1.075,-2.41,0.366,0.0,-10.803,-507.935
1.577,-2.645,0.383,21.606,29.114,-506.348
2.036,-2.617,0.372,22.278,76.904,-482.422
2.393,-2.293,0.42,8.728,122.314,-430.237
2.643,-1.954,0.393,-5.859,159.79,-357.483
2.771,-1.84,0.371,-17.029,185.181,-274.231
2.793,-1.801,0.346,-32.288,196.716,-196.167
2.864,-1.768,0.368,-56.213,196.289,-125.183
2.919,-1.62,0.402,-83.13,173.401,-62.744
2.805,-1.398,0.412,-100.159,129.7,-16.724
2.61,-1.314,0.396,-103.577,74.89,18.311
2.381,-1.214,0.318,-102.112,15.137,41.138
2.058,-1.03,0.235,-97.107,-32.959,58.289
1.685,-0.893,0.153,-87.402,-63.232,78.064
1.355,-0.836,0.095,-75.317,-72.144,101.196
1.096,-0.81,0.072,-64.331,-64.514,123.535
0.905,-0.752,0.064,-55.176,-48.218,143.005
0.746,-0.672,0.091,-45.41,-27.771,159.973
0.648,-0.64,0.142,-32.043,-9.033,174.683
0.596,-0.644,0.189,-15.564,2.197,184.204
0.547,-0.623,0.211,1.465,4.456,188.11
0.48,-0.61,0.219,20.02,0.366,189.697
0.396,-0.626,0.228,38.696,-5.127,190.552
0.313,-0.653,0.238,57.007,-10.986,191.406
0.262,-0.677,0.256,74.28,-16.907,192.261
0.223,-0.7,0.288,90.942,-23.193,193.604
0.175,-0.731,0.301,106.323,-30.09,196.228
0.125,-0.793,0.305,119.385,-36.621,199.951
0.114,-0.852,0.372,128.296,-41.016,201.965
0.104,-0.868,0.417,133.789,-48.462,202.881
0.076,-0.903,0.442,138.55,-57.19,205.627
0.046,-0.975,0.479,142.517,-64.209,207.581
0.008,-1.037,0.507,143.372,-71.655,206.909
-0.049,-1.07,0.51,141.479,-78.674,204.041
-0.102,-1.082,0.503,138.611,-81.97,199.463
-0.164,-1.082,0.501,136.169,-80.566,194.885
-0.216,-1.102,0.501,134.644,-75.256,188.599
-0.229,-1.133,0.505,131.653,-67.2,179.016
-0.225,-1.143,0.498,126.221,-57.495,166.87
-0.215,-1.14,0.493,120.117,-47.241,153.748
-0.208,-1.134,0.498,114.441,-37.903,139.954
-0.201,-1.134,0.497,110.168,-30.579,126.465
-0.182,-1.134,0.505,107.422,-25.574,114.38
-0.165,-1.123,0.511,105.103,-21.484,102.6
-0.144,-1.126,0.529,101.624,-18.799,91.37
-0.116,-1.132,0.552,96.069,-17.334,81.665
-0.083,-1.117,0.568,87.952,-17.273,72.144
-0.054,-1.1,0.572,77.82,-19.409,62.805
-0.02,-1.082,0.573,67.505,-22.522,54.26
0.006,-1.056,0.565,56.274,-26.367,47.119
0.028,-1.027,0.552,45.776,-31.189,41.687
0.048,-1.003,0.536,36.377,-36.011,37.781
0.058,-0.986,0.507,28.687,-40.405,34.973
0.056,-0.967,0.481,23.01,-43.152,33.691
0.055,-0.948,0.455,19.897,-43.274,33.142
0.057,-0.932,0.435,18.738,-40.955,33.325
0.055,-0.919,0.423,19.836,-36.926,33.325
0.054,-0.914,0.415,23.01,-32.043,33.142
0.093,-0.912,0.451,27.771,-27.649,33.203
0.104,-0.926,0.466,32.593,-26.672,33.447
0.093,-0.93,0.472,36.377,-27.161,33.386
0.09,-0.92,0.472,38.452,-27.71,32.715
0.077,-0.927,0.473,40.222,-27.039,31.86
0.073,-0.935,0.476,40.344,-24.78,29.663
0.087,-0.933,0.475,38.452,-21.79,26.489
0.103,-0.927,0.467,35.522,-18.25,21.851
0.128,-0.922,0.458,31.982,-15.32,16.724
0.173,-0.915,0.448,27.588,-13.245,12.207
0.211,-0.899,0.429,23.376,-12.024,8.911
0.231,-0.888,0.42,20.081,-10.986,7.019
0.241,-0.883,0.41,17.944,-10.376,5.432
0.259,-0.871,0.406,16.907,-11.108,4.333
0.285,-0.865,0.42,16.724,-12.024,4.211
0.306,-0.858,0.435,17.334,-14.709,4.456
0.325,-0.862,0.44,18.188,-19.348,4.944
0.339,-0.879,0.436,18.799,-24.597,5.127
0.332,-0.89,0.431,18.738,-29.48,4.578
0.311,-0.887,0.416,17.944,-32.898,2.747
0.301,-0.895,0.407,17.334,-33.752,0.916
0.296,-0.897,0.407,16.479,-32.104,-1.16
0.29,-0.893,0.404,15.991,-29.175,-3.052
0.295,-0.89,0.402,15.747,-25.33,-4.15
0.31,-0.889,0.405,15.381,-21.362,-4.944
0.32,-0.888,0.405,15.259,-17.944,-5.249
0.326,-0.891,0.399,15.32,-14.771,-4.639
0.332,-0.896,0.404,15.32,-11.78,-4.15
0.35,-0.911,0.409,15.137,-9.827,-3.784
0.361,-0.913,0.418,14.099,-9.155,-4.028
0.365,-0.91,0.422,13.123,-9.766,-4.272
0.367,-0.905,0.421,11.902,-11.414,-4.028
0.363,-0.9,0.418,10.193,-13.184,-3.479
0.35,-0.9,0.409,8.667,-14.526,-2.869
0.341,-0.907,0.401,6.897,-15.137,-1.77
0.337,-0.898,0.399,4.639,-15.137,-0.61
0.336,-0.884,0.398,2.136,-14.709,0.854
0.315,-0.851,0.385,0.793,-14.16,2.869
0.318,-0.877,0.363,-0.183,-11.719,5.92
0.318,-0.882,0.366,-1.404,-7.629,7.568
0.319,-0.872,0.367,-2.563,-4.211,8.545
-0.854,-1.507,0.554,-1.831,123.657,50.171
-0.978,-1.53,0.553,-19.47,143.555,49.011
-1.087,-1.565,0.549,-41.138,164.429,46.509
-1.136,-1.592,0.597,-66.528,183.777,39.978
-1.148,-1.623,0.646,-95.764,195.129,29.236
-1.152,-1.667,0.673,-127.686,196.045,14.587
-1.151,-1.705,0.677,-161.621,187.744,-4.395
-1.154,-1.724,0.656,-195.129,171.143,-28.564
-1.158,-1.776,0.606,-224.182,148.437,-57.922
-1.126,-1.845,0.512,-246.765,120.789,-95.337
-1.073,-1.879,0.394,-262.085,92.712,-142.212
-0.967,-1.868,0.301,-268.127,70.19,-195.312
-0.779,-1.836,0.248,-268.25,52.124,-251.16
-0.524,-1.759,0.258,-262.512,35.156,-308.35
-0.165,-1.752,0.351,-246.277,17.639,-364.258
0.253,-1.798,0.407,-222.168,-6.348,-419.678
0.591,-1.788,0.381,-194.824,-39.063,-473.45
0.843,-1.76,0.35,-158.325,-73.486,-519.897
1.053,-1.845,0.304,-111.206,-106.384,-559.509
1.223,-2.037,0.286,-62.805,-136.414,-587.952
1.447,-2.193,0.285,-19.836,-155.029,-595.276
1.796,-2.055,0.441,9.46,-150.33,-575.867
1.905,-1.872,0.617,23.56,-116.272,-522.705
1.758,-1.787,0.488,26.245,-73.059,-449.524
1.77,-1.706,0.359,26.489,-23.743,-365.479
2.053,-1.561,0.423,21.545,33.569,-270.874
2.269,-1.508,0.496,7.324,84.412,-172.119
2.246,-1.593,0.513,-12.817,117.371,-87.585
2.123,-1.607,0.489,-36.804,127.38,-27.222
1.993,-1.463,0.473,-59.57,118.835,8.362
1.847,-1.284,0.455,-75.317,98.816,31.372
1.648,-1.13,0.435,-84.473,74.524,48.706
1.424,-1.016,0.422,-87.83,50.293,63.293
1.218,-0.931,0.401,-88.135,28.076,76.477
1.038,-0.855,0.366,-86.914,9.888,88.684
0.885,-0.79,0.323,-84.534,-2.563,101.013
0.751,-0.733,0.28,-81.177,-9.216,112.61
0.636,-0.678,0.251,-75.439,-10.925,123.169
0.545,-0.645,0.246,-66.589,-9.277,133.362
0.495,-0.642,0.244,-55.664,-7.141,142.578
0.468,-0.654,0.239,-43.945,-6.042,150.085
0.443,-0.676,0.236,-31.494,-6.165,156.25
0.425,-0.698,0.243,-19.165,-7.141,160.95
0.425,-0.725,0.26,-7.446,-9.705,164.429
0.424,-0.744,0.276,3.784,-15.076,167.786
0.409,-0.758,0.308,13.55,-22.583,172.119
0.388,-0.775,0.343,22.4,-31.738,178.162
0.371,-0.8,0.383,30.396,-41.016,186.523
0.352,-0.833,0.417,37.781,-49.866,196.167
0.317,-0.865,0.423,44.861,-59.265,205.75
0.262,-0.883,0.42,51.88,-67.261,214.844
0.202,-0.907,0.417,58.472,-71.228,223.45
0.16,-0.916,0.409,65.735,-71.167,229.37
0.113,-0.905,0.393,74.036,-66.895,232.483
0.037,-0.909,0.365,84.29,-58.289,234.009
-0.109,-0.959,0.293,95.52,-43.213,234.131
-0.221,-1.085,0.319,104.126,-18.738,229.37
-0.103,-1.139,0.546,106.812,5.859,214.478
0.073,-1.089,0.694,107.117,7.751,193.542
0.039,-0.99,0.565,105.042,-9.521,179.626
0.016,-1.083,0.649,108.704,-7.385,178.833
-0.012,-1.116,0.649,109.436,-13.062,172.729
-0.015,-1.168,0.64,108.093,-22.4,164.307
-0.064,-1.188,0.651,104.37,-30.762,153.625
0.031,-1.274,0.734,97.168,-39.368,142.334
0.024,-1.171,0.689,84.045,-54.016,127.93
-0.012,-1.168,0.739,71.777,-64.453,119.507
-0.086,-1.109,0.702,61.157,-76.05,111.877
-0.19,-1.098,0.592,54.199,-82.52,109.131
-0.287,-1.169,0.502,48.645,-73.669,104.675
-0.277,-1.082,0.698,40.405,-55.359,94.91
-0.188,-1.026,0.614,32.104,-53.467,88.196
-0.127,-1.039,0.601,26.123,-47.729,83.313
-0.163,-1.03,0.648,21.545,-39.795,78.491
-0.132,-0.978,0.589,15.259,-40.649,72.937
-0.103,-0.969,0.573,10.986,-39.856,69.397
-0.121,-0.94,0.558,8.545,-39.795,64.697
-0.117,-0.911,0.528,6.714,-39.673,60.059
-0.085,-0.904,0.519,6.592,-37.415,54.81
-0.098,-0.878,0.496,7.08,-35.156,48.828
-0.113,-0.867,0.465,8.24,-30.762,43.64
-0.099,-0.857,0.415,9.888,-22.705,38.086
-0.039,-0.821,0.479,12.817,-10.62,32.593
-0.023,-0.784,0.5,15.93,-5.737,28.687
0.007,-0.845,0.444,19.165,-5.798,26.611
0.066,-0.852,0.518,21.362,-2.869,22.461
0.106,-0.814,0.513,21.606,-8.057,17.944
0.133,-0.84,0.508,23.132,-13.794,15.686
0.136,-0.857,0.507,23.376,-19.592,13.428
0.126,-0.853,0.498,23.132,-25.024,11.841
0.126,-0.868,0.5,22.766,-28.381,9.949
0.136,-0.87,0.498,22.156,-30.762,7.629
0.147,-0.857,0.49,20.569,-31.067,5.676
0.171,-0.885,0.48,19.897,-28.564,4.211
0.183,-0.895,0.488,18.799,-24.292,1.648
0.186,-0.869,0.486,16.785,-20.508,-0.61
0.204,-0.874,0.476,16.174,-16.235,-1.16
0.225,-0.882,0.485,15.808,-11.23,-1.282
0.245,-0.871,0.5,14.038,-7.385,-1.404
0.261,-0.859,0.499,12.756,-5.676,-0.854
0.278,-0.862,0.489,12.085,-4.761,0.061
0.28,-0.86,0.476,10.986,-3.723,0.671
0.288,-0.862,0.465,10.071,-2.38,0.793
0.303,-0.864,0.468,9.338,-1.099,-0.122
0.312,-0.856,0.465,8.057,-0.793,-1.404
0.32,-0.851,0.447,7.202,-1.404,-2.014
0.329,-0.862,0.442,7.324,-0.854,-2.502
0.338,-0.869,0.439,7.69,0.0,-3.54
0.34,-0.862,0.442,7.935,0.977,-4.822
0.342,-0.854,0.443,8.423,2.686,-5.432
0.345,-0.855,0.442,8.85,4.578,-5.31
0.352,-0.855,0.442,9.521,6.287,-4.578
0.359,-0.851,0.439,9.766,8.057,-3.418
0.358,-0.833,0.437,10.132,9.888,-1.953
0.362,-0.839,0.439,11.169,12.512,0.977
0.379,-0.849,0.451,11.658,14.465,3.54
0.393,-0.842,0.447,10.864,13.855,5.493
0.4,-0.852,0.445,9.705,12.817,7.629
0.399,-0.872,0.439,7.935,11.475,8.789
-1.09,-1.451,0.745,-6.226,52.979,20.447
-1.473,-1.52,0.786,-23.132,64.697,13.367
-1.799,-1.551,0.739,-50.232,81.787,0.183
-2.03,-1.582,0.701,-83.191,107.849,-18.372
-2.135,-1.598,0.651,-116.516,139.282,-42.053
-2.05,-1.68,0.627,-146.912,168.213,-74.829
-1.889,-1.838,0.61,-174.438,190.552,-120.239
-1.802,-1.943,0.641,-200.073,201.782,-174.133
-1.67,-1.97,0.679,-219.055,196.106,-230.042
-1.42,-1.994,0.702,-225.159,176.514,-280.029
-1.031,-2.074,0.671,-219.788,153.809,-321.899
-0.562,-2.177,0.572,-213.135,130.249,-361.023
-0.068,-2.173,0.402,-213.196,104.736,-397.827
0.456,-2.361,0.251,-215.21,86.853,-423.828
0.886,-2.312,0.145,-218.14,70.374,-453.735
1.332,-2.283,-0.041,-219.788,34.546,-482.849
1.722,-2.134,-0.094,-216.431,5.554,-497.314
1.932,-1.876,0.12,-199.951,-14.099,-500.61
2.044,-1.571,0.246,-161.255,-28.442,-484.436
2.101,-1.44,0.22,-104.614,-46.631,-455.2
2.116,-1.437,0.269,-49.805,-53.65,-419.25
2.106,-1.334,0.407,15.747,-48.34,-307.373
1.986,-1.37,0.406,33.508,-43.457,-235.901
1.908,-1.382,0.436,40.405,-37.598,-167.908
1.831,-1.33,0.414,40.222,-32.959,-103.455
1.733,-1.337,0.458,36.316,-28.32,-45.044
1.573,-1.296,0.471,27.039,-28.442,2.38
1.41,-1.259,0.485,14.526,-32.776,41.138
1.265,-1.205,0.455,-0.549,-40.771,70.007
1.124,-1.131,0.405,-16.602,-48.34,90.698
0.985,-1.079,0.343,-31.494,-53.955,104.98
0.851,-1.013,0.282,-44.617,-56.519,112.488
0.721,-0.942,0.232,-54.749,-55.664,116.15
0.616,-0.871,0.203,-61.035,-50.354,118.164
0.546,-0.802,0.181,-62.866,-40.894,119.08
0.504,-0.748,0.177,-60.486,-29.602,119.507
0.47,-0.702,0.179,-54.26,-18.066,119.812
0.438,-0.658,0.187,-45.898,-8.423,120.056
0.428,-0.625,0.202,-35.095,-1.221,121.643
0.439,-0.626,0.234,-22.888,2.808,125.0
0.452,-0.646,0.27,-10.986,2.686,129.944
0.47,-0.672,0.302,-1.038,-2.136,134.827
0.49,-0.701,0.317,7.263,-11.902,139.587
0.5,-0.734,0.322,14.526,-25.635,143.86
0.501,-0.773,0.322,20.386,-41.443,147.339
0.487,-0.803,0.314,25.146,-57.8,150.33
0.446,-0.818,0.313,29.236,-72.998,154.175
0.386,-0.847,0.321,33.875,-85.205,160.217
0.326,-0.899,0.343,38.513,-94.421,167.175
0.279,-0.922,0.36,41.626,-101.074,172.791
0.234,-0.93,0.367,44.922,-104.675,178.955
0.215,-0.967,0.377,49.194,-105.286,184.692
0.191,-0.99,0.375,52.612,-104.431,187.622
0.151,-0.996,0.373,55.115,-101.929,188.538
0.144,-1.018,0.384,58.472,-96.497,189.148
0.16,-1.049,0.403,61.34,-90.21,188.171
0.162,-1.065,0.422,63.599,-84.9,185.242
0.162,-1.079,0.426,65.796,-80.994,181.824
0.132,-1.083,0.407,67.749,-76.965,179.199
0.068,-1.082,0.399,70.679,-70.435,179.016
0.002,-1.098,0.392,74.89,-60.974,181.335
0.025,-1.161,0.442,79.041,-48.157,184.387
0.047,-1.152,0.499,81.665,-37.903,185.547
0.04,-1.154,0.498,82.947,-33.386,186.829
0.053,-1.211,0.483,83.984,-28.503,186.096
0.062,-1.235,0.506,82.52,-22.888,181.213
0.074,-1.214,0.528,79.346,-21.423,174.988
0.09,-1.183,0.54,76.477,-23.804,170.044
0.071,-1.165,0.561,75.623,-29.419,165.649
0.022,-1.165,0.584,77.209,-37.17,161.987
-0.015,-1.174,0.609,79.224,-46.143,158.325
-0.054,-1.187,0.629,80.261,-55.542,153.259
-0.098,-1.201,0.633,78.674,-64.697,146.301
-0.135,-1.212,0.615,72.937,-71.777,137.695
-0.17,-1.213,0.589,64.209,-74.707,128.296
-0.197,-1.191,0.56,53.162,-73.792,118.042
-0.207,-1.156,0.537,41.382,-68.848,106.445
-0.213,-1.13,0.531,31.616,-61.89,94.971
-0.212,-1.105,0.522,24.048,-54.993,84.534
-0.21,-1.061,0.507,18.127,-48.706,74.463
-0.213,-1.035,0.518,15.93,-43.03,66.65
-0.216,-1.016,0.53,16.235,-38.086,60.669
-0.208,-1.001,0.532,16.907,-34.241,55.42
-0.191,-0.992,0.524,17.883,-30.396,50.415
-0.179,-0.989,0.512,17.151,-26.428,45.227
-0.155,-0.988,0.501,15.015,-22.278,39.734
-0.119,-0.972,0.49,12.024,-18.616,33.02
-0.082,-0.955,0.473,8.362,-16.113,25.818
-0.044,-0.942,0.461,4.883,-14.221,18.433
-0.002,-0.931,0.451,2.258,-13.367,11.108
0.035,-0.912,0.442,-0.488,-13.428,4.456
0.074,-0.896,0.439,-2.502,-14.465,-1.038
0.104,-0.88,0.443,-2.747,-16.235,-4.7
0.124,-0.867,0.443,-1.282,-18.494,-7.141
0.138,-0.858,0.439,1.404,-20.386,-8.057
0.145,-0.854,0.43,4.761,-21.179,-7.935
0.15,-0.856,0.424,7.874,-20.691,-6.958
0.161,-0.86,0.424,11.414,-18.799,-5.554
0.166,-0.861,0.421,14.465,-16.541,-4.211
0.156,-0.862,0.412,16.846,-13.245,-3.113
0.175,-0.88,0.43,18.738,-8.118,-2.38
0.225,-0.915,0.473,18.86,-4.272,-3.296
0.235,-0.874,0.467,16.296,-4.7,-6.226
0.279,-0.929,0.444,14.465,-5.371,-8.179
0.273,-0.878,0.477,11.292,-6.165,-12.207
0.304,-0.913,0.465,8.545,-9.705,-14.343
0.3,-0.879,0.468,5.615,-13.123,-18.616
0.301,-0.869,0.458,4.089,-16.357,-21.118
0.299,-0.855,0.443,3.052,-17.029,-22.888
0.305,-0.85,0.435,3.235,-16.174,-23.743
0.313,-0.838,0.43,4.028,-14.343,-24.414
0.335,-0.844,0.433,5.493,-12.451,-24.475
0.356,-0.841,0.438,6.592,-10.864,-24.048
0.373,-0.824,0.439,7.69,-10.01,-22.766
0.386,-0.813,0.433,9.216,-8.972,-19.47
0.397,-0.841,0.431,10.803,-7.446,-15.015
0.385,-0.848,0.42,10.925,-5.127,-12.146
0.37,-0.845,0.409,10.864,-1.099,-9.583
0.383,-0.863,0.419,10.437,4.761,-7.874
-1.002,-1.408,0.624,-19.958,59.814,31.86
-1.318,-1.507,0.685,-28.259,69.885,29.785
-1.679,-1.631,0.739,-43.335,80.994,23.071
-1.99,-1.723,0.739,-67.871,91.797,6.287
-2.189,-1.798,0.647,-98.267,105.53,-18.372
-2.272,-1.859,0.509,-132.629,124.573,-51.025
-2.323,-1.93,0.375,-170.349,148.132,-92.041
-2.373,-2.052,0.234,-209.595,168.579,-140.503
-2.261,-2.11,0.14,-244.873,177.307,-197.693
-2.038,-2.062,0.104,-268.25,171.57,-256.226
-1.79,-2.018,0.132,-272.827,156.86,-313.11
-1.343,-2.055,0.265,-258.118,135.62,-367.92
-0.863,-1.922,0.344,-233.032,100.952,-422.241
-0.344,-2.107,0.515,-198.669,61.646,-471.069
-0.076,-2.15,0.532,-164.49,14.709,-525.452
0.12,-2.157,0.482,-123.901,-24.475,-569.763
0.308,-2.109,0.368,-73.73,-45.166,-599.915
0.488,-2.218,0.322,-10.559,-39.551,-610.229
0.663,-2.428,0.445,52.673,0.793,-605.164
0.949,-2.72,0.556,100.22,63.904,-585.083
1.315,-2.978,0.524,113.647,138.245,-544.922
1.589,-3.255,0.481,86.426,211.67,-489.685
2.032,-3.239,0.303,25.208,271.24,-442.322
2.535,-2.808,0.249,-46.448,304.382,-388.306
2.875,-2.156,0.245,-104.553,307.861,-318.054
2.97,-1.723,0.176,-140.503,282.227,-233.337
2.829,-1.485,0.183,-158.447,236.389,-142.578
2.688,-1.325,0.187,-164.001,169.189,-56.58
2.519,-1.252,0.184,-156.921,91.064,16.296
2.207,-1.211,0.158,-141.724,12.817,69.946
1.821,-1.19,0.113,-123.657,-54.321,107.727
1.463,-1.16,0.047,-109.68,-103.21,133.484
1.135,-1.107,-0.029,-100.037,-130.981,149.902
0.835,-1.015,-0.089,-92.529,-137.756,159.973
0.595,-0.918,-0.105,-84.229,-126.16,166.687
0.439,-0.827,-0.094,-73.059,-102.905,171.143
0.354,-0.762,-0.076,-58.472,-74.524,173.035
0.307,-0.705,-0.04,-41.687,-43.945,172.241
0.294,-0.657,0.004,-23.193,-15.381,169.617
0.304,-0.626,0.047,-4.15,8.667,166.626
0.328,-0.622,0.096,14.954,28.442,164.124
0.346,-0.612,0.144,33.02,41.565,161.926
0.365,-0.593,0.19,50.11,47.424,161.865
0.373,-0.579,0.228,66.101,48.34,165.466
0.367,-0.584,0.255,81.36,45.166,172.791
0.346,-0.625,0.278,96.68,39.368,183.105
0.344,-0.705,0.29,111.694,32.166,193.848
0.424,-0.793,0.378,125.0,24.048,200.989
0.472,-0.833,0.521,136.108,8.057,203.43
0.421,-0.75,0.563,146.79,-21.973,205.872
0.341,-0.949,0.363,158.264,-53.467,217.041
0.352,-1.075,0.501,164.673,-64.88,217.773
0.278,-0.992,0.465,164.978,-85.815,210.754
0.24,-1.038,0.39,171.326,-103.577,212.585
0.165,-1.077,0.413,174.927,-109.07,210.754
0.156,-1.113,0.431,177.185,-110.657,207.275
0.154,-1.181,0.443,176.636,-110.962,202.209
0.084,-1.226,0.439,172.058,-107.666,192.993
0.023,-1.212,0.433,164.551,-99.731,181.396
-0.023,-1.157,0.458,158.63,-86.487,172.852
-0.031,-1.216,0.434,156.311,-72.571,171.448
0.014,-1.347,0.506,153.931,-58.533,166.016
0.018,-1.335,0.521,145.691,-50.11,153.503
0.06,-1.291,0.56,136.78,-45.044,143.921
0.034,-1.246,0.553,128.723,-43.152,136.414
0.017,-1.262,0.564,123.413,-42.236,132.446
0.012,-1.291,0.556,117.188,-43.762,127.38
-0.007,-1.268,0.579,109.497,-46.57,120.544
-0.036,-1.227,0.595,102.234,-50.72,114.99
-0.066,-1.218,0.592,95.215,-55.542,110.474
-0.085,-1.257,0.586,86.792,-60.364,104.797
-0.124,-1.253,0.563,75.806,-63.232,97.473
-0.147,-1.219,0.551,63.049,-62.378,90.088
-0.168,-1.179,0.524,51.514,-59.143,81.726
-0.176,-1.147,0.483,41.077,-53.772,73.792
-0.161,-1.125,0.471,32.349,-45.715,66.223
-0.146,-1.085,0.463,24.475,-38.635,58.228
-0.135,-1.049,0.464,19.653,-33.447,52.49
-0.13,-1.012,0.463,17.334,-29.968,48.95
-0.131,-0.985,0.457,17.822,-28.503,46.326
-0.133,-0.968,0.452,19.348,-27.466,44.067
-0.132,-0.962,0.442,20.569,-26.55,41.443
-0.127,-0.973,0.42,20.325,-25.024,37.72
-0.119,-0.978,0.4,18.494,-22.705,32.532
-0.103,-0.961,0.392,15.503,-19.531,27.039
-0.086,-0.947,0.39,12.695,-16.785,21.179
-0.065,-0.938,0.383,9.766,-15.381,14.954
-0.035,-0.93,0.383,7.69,-14.587,8.484
0.003,-0.922,0.383,6.409,-15.015,1.709
0.038,-0.914,0.383,5.798,-16.357,-4.456
0.062,-0.905,0.378,5.859,-18.799,-10.437
0.08,-0.896,0.37,6.592,-21.79,-15.93
0.099,-0.89,0.371,7.935,-24.231,-19.958
0.109,-0.882,0.374,10.132,-26.245,-22.156
0.112,-0.882,0.371,13.0,-27.588,-23.315
0.115,-0.889,0.367,16.357,-27.344,-23.56
0.125,-0.897,0.364,19.226,-25.818,-23.437
0.144,-0.906,0.369,21.179,-22.766,-22.949
0.162,-0.915,0.37,22.339,-19.226,-23.193
0.181,-0.928,0.369,22.522,-15.381,-23.865
0.171,-0.896,0.358,21.973,-11.353,-24.719
0.152,-0.869,0.222,22.522,-5.31,-22.522
0.256,-1.053,0.426,23.437,10.01,-20.386
0.238,-0.97,0.338,17.761,11.902,-24.048
0.324,-0.959,0.343,15.381,14.099,-23.804
0.336,-0.921,0.365,11.475,13.184,-25.269
0.376,-0.967,0.399,11.108,11.597,-23.621
0.396,-0.968,0.393,8.606,4.028,-24.231
0.424,-0.957,0.391,6.836,-5.676,-24.597
0.424,-0.928,0.39,5.798,-15.259,-24.353
0.418,-0.954,0.389,6.775,-24.475,-22.339
0.4,-0.953,0.364,6.775,-33.325,-21.484
0.374,-0.947,0.36,6.653,-38.33,-20.142
0.343,-0.937,0.332,6.348,-40.588,-18.372
0.308,-0.941,0.311,6.348,-38.086,-15.747
0.273,-0.945,0.296,5.92,-30.884,-13.245
0.255,-0.94,0.285,4.883,-20.142,-10.742
0.258,-0.93,0.285,4.028,-7.385,-7.751
0.282,-0.935,0.295,3.967,5.432,-4.7
-0.923,-1.406,0.726,-7.568,-2.991,29.419
-1.267,-1.433,0.7,-29.419,9.705,23.682
-1.65,-1.468,0.697,-56.091,31.738,16.113
-2.021,-1.487,0.651,-86.67,60.608,2.808
-2.253,-1.476,0.514,-116.638,95.398,-20.996
-2.237,-1.468,0.408,-142.273,139.404,-55.847
-2.082,-1.497,0.359,-164.307,186.462,-97.595
-1.95,-1.589,0.352,-181.091,224.487,-145.508
-1.801,-1.634,0.28,-194.275,246.826,-200.378
-1.598,-1.641,0.259,-206.238,253.967,-253.906
-1.267,-1.65,0.312,-215.332,250.488,-298.279
-0.841,-1.741,0.421,-222.961,234.985,-338.196
-0.418,-1.788,0.45,-236.084,200.073,-381.042
-0.104,-1.775,0.391,-248.779,150.269,-424.011
0.1,-1.687,0.312,-250.916,97.046,-462.952
0.262,-1.559,0.263,-235.046,49.866,-492.249
0.356,-1.573,0.33,-199.097,12.939,-509.888
0.362,-1.61,0.42,-149.536,-19.104,-526.428
0.308,-1.683,0.315,-93.933,-45.837,-541.504
0.317,-1.765,0.235,-36.377,-48.645,-547.607
0.417,-1.792,0.164,13.0,-31.128,-534.729
0.599,-1.96,0.117,47.852,-2.075,-499.756
0.677,-2.032,0.102,64.087,36.438,-458.801
0.818,-2.238,0.135,66.833,77.148,-411.56
1.052,-2.274,0.114,57.19,103.333,-367.31
1.31,-2.099,0.145,39.49,117.859,-321.533
1.509,-1.947,0.201,24.17,119.019,-266.541
1.643,-1.849,0.231,10.071,99.243,-209.473
1.668,-1.661,0.176,-3.967,65.552,-153.015
1.595,-1.538,0.171,-12.146,32.532,-95.154
1.486,-1.386,0.191,-17.578,-1.465,-39.551
1.317,-1.318,0.153,-20.142,-36.011,12.634
1.11,-1.323,0.197,-19.409,-58.472,59.875
0.919,-1.22,0.176,-20.752,-73.669,98.145
0.745,-1.175,0.196,-20.081,-76.843,134.399
0.602,-1.187,0.217,-18.982,-73.792,165.894
0.477,-1.221,0.22,-20.203,-68.359,190.857
0.37,-1.233,0.224,-24.292,-59.448,209.351
0.281,-1.213,0.266,-29.419,-49.438,223.267
0.221,-1.2,0.243,-33.752,-41.992,235.596
0.238,-1.259,0.227,-37.415,-35.278,244.751
0.265,-1.278,0.26,-41.504,-29.541,246.094
0.254,-1.178,0.235,-45.166,-30.64,244.873
0.247,-1.156,0.224,-43.03,-31.738,247.559
0.232,-1.15,0.228,-37.781,-32.288,248.474
0.203,-1.132,0.218,-29.053,-34.607,247.803
0.165,-1.111,0.202,-18.005,-37.231,247.131
0.144,-1.083,0.189,-5.798,-39.185,246.826
0.142,-1.084,0.21,7.812,-39.978,248.047
0.141,-1.091,0.236,20.691,-41.199,250.305
0.147,-1.098,0.271,32.166,-43.579,254.578
0.156,-1.115,0.31,41.809,-47.241,259.766
0.155,-1.105,0.338,50.903,-53.589,265.198
0.137,-1.088,0.343,61.646,-62.012,270.996
0.099,-1.059,0.354,74.585,-70.374,275.208
0.037,-1.063,0.379,89.478,-76.477,276.978
-0.01,-1.122,0.351,103.638,-80.078,275.818
-0.05,-1.161,0.315,112.976,-80.444,270.691
-0.089,-1.18,0.304,119.629,-74.463,263.428
-0.114,-1.228,0.322,123.474,-64.209,254.089
-0.106,-1.272,0.378,123.291,-53.467,239.929
-0.125,-1.245,0.42,119.751,-45.593,222.046
-0.144,-1.227,0.444,115.662,-39.551,206.604
-0.121,-1.245,0.488,110.046,-33.752,192.322
-0.109,-1.248,0.515,102.112,-31.189,176.514
-0.12,-1.223,0.523,93.018,-31.372,161.804
-0.104,-1.204,0.565,83.801,-32.654,148.987
-0.098,-1.203,0.552,74.341,-37.598,136.597
-0.089,-1.212,0.532,64.392,-42.847,123.169
-0.082,-1.158,0.56,53.04,-47.668,108.826
-0.117,-1.059,0.539,43.457,-54.688,97.839
-0.113,-1.071,0.497,38.696,-60.974,90.027
-0.144,-1.035,0.484,35.156,-63.599,80.688
-0.175,-0.974,0.473,34.485,-63.965,73.914
-0.171,-0.968,0.46,37.17,-62.5,69.092
-0.176,-0.973,0.455,38.879,-58.96,64.697
-0.194,-0.964,0.445,39.429,-54.565,60.059
-0.209,-0.954,0.438,38.086,-48.645,55.359
-0.194,-0.959,0.451,35.034,-40.833,50.537
-0.162,-0.948,0.477,30.334,-32.715,45.044
-0.142,-0.943,0.493,24.475,-26.794,39.429
-0.098,-0.975,0.493,18.25,-22.583,33.63
-0.052,-0.987,0.487,11.292,-19.836,26.306
-0.023,-0.969,0.499,5.127,-18.25,18.494
0.016,-0.957,0.509,1.16,-19.104,10.986
0.051,-0.942,0.505,-0.977,-22.583,4.15
0.068,-0.934,0.494,-1.587,-26.489,-1.587
0.076,-0.928,0.489,-1.648,-29.419,-6.042
0.072,-0.901,0.47,-0.854,-31.25,-10.315
0.07,-0.902,0.46,1.343,-29.968,-12.878
0.068,-0.899,0.451,3.113,-25.879,-14.893
0.084,-0.907,0.445,4.7,-19.653,-15.991
0.107,-0.919,0.451,4.7,-12.268,-16.418
0.13,-0.924,0.458,2.686,-5.981,-16.907
0.156,-0.912,0.465,-0.732,-0.732,-17.7
0.187,-0.901,0.474,-4.211,3.479,-18.005
0.211,-0.889,0.473,-7.629,5.798,-18.005
0.236,-0.88,0.468,-10.437,6.531,-17.883
0.269,-0.877,0.465,-12.39,6.165,-17.578
0.292,-0.873,0.457,-13.489,4.456,-17.7
0.301,-0.865,0.444,-14.282,1.953,-18.066
0.309,-0.859,0.435,-14.648,0.061,-18.372
0.327,-0.855,0.431,-14.709,-1.526,-18.494
0.336,-0.847,0.426,-13.977,-3.723,-18.799
0.339,-0.843,0.415,-13.55,-5.798,-18.677
0.343,-0.844,0.403,-12.878,-7.507,-18.616
0.353,-0.846,0.396,-11.719,-8.423,-18.433
0.358,-0.844,0.395,-10.01,-9.094,-18.188
0.362,-0.843,0.389,-8.057,-9.46,-17.639
0.359,-0.844,0.389,-5.92,-9.216,-16.602
0.347,-0.823,0.396,-4.211,-8.362,-15.076
0.368,-0.865,0.394,-1.77,-6.836,-12.573
0.364,-0.866,0.419,-0.671,-5.066,-11.902
0.355,-0.83,0.415,-0.122,-5.005,-11.353
0.378,-0.881,0.407,2.014,-4.028,-9.644
0.37,-0.884,0.421,2.563,-2.686,-9.644
0.371,-0.881,0.416,1.648,-2.319,-10.132
0.375,-0.866,0.421,0.732,-1.526,-10.742
0.372,-0.864,0.428,0.122,-0.244,-10.071
-1.502,-1.61,0.761,-27.771,41.565,57.007
-1.986,-1.771,0.924,-35.583,54.321,41.321
-2.231,-1.793,0.908,-52.368,68.054,6.287
-2.14,-1.697,0.684,-79.041,88.989,-39.612
-1.991,-1.753,0.5,-108.398,123.535,-88.806
-2.029,-1.913,0.44,-139.404,160.828,-146.729
-1.931,-1.923,0.375,-172.852,184.631,-213.44
-1.622,-1.869,0.384,-200.5,192.932,-273.132
-1.242,-1.839,0.477,-213.684,190.918,-316.895
-0.855,-1.84,0.534,-213.196,175.659,-350.098
-0.479,-1.853,0.575,-203.491,145.02,-380.371
-0.188,-1.891,0.603,-185.242,106.079,-408.508
0.021,-1.92,0.602,-164.917,65.186,-433.96
0.215,-1.916,0.587,-145.264,26.55,-457.397
0.371,-1.915,0.52,-122.986,-5.859,-476.196
0.502,-2.007,0.51,-101.257,-25.146,-484.192
0.527,-2.093,0.488,-87.097,-27.893,-478.699
0.433,-2.05,0.388,-83.069,-9.033,-456.482
0.337,-1.993,0.274,-88.318,38.33,-419.067
0.438,-1.958,0.227,-101.563,111.755,-377.869
0.826,-1.911,0.159,-116.699,188.11,-340.027
1.28,-1.791,0.036,-129.7,247.253,-304.199
1.579,-1.599,-0.003,-139.404,285.828,-262.573
1.795,-1.426,-0.041,-145.264,300.171,-215.515
1.984,-1.22,0.002,-145.813,287.109,-167.603
2.073,-0.957,0.082,-136.169,248.108,-123.23
2.037,-0.733,0.111,-113.037,190.43,-84.167
1.941,-0.649,0.123,-79.651,126.648,-51.758
1.836,-0.66,0.126,-42.908,63.354,-25.574
1.696,-0.717,0.133,-8.667,5.005,-2.991
1.531,-0.799,0.132,18.433,-43.213,17.09
1.354,-0.842,0.11,37.537,-78.064,35.034
1.166,-0.843,0.099,49.805,-96.252,53.345
0.927,-0.868,0.137,64.026,-96.497,94.421
0.863,-0.898,0.179,68.054,-89.539,114.258
0.807,-0.917,0.249,69.641,-80.566,131.775
0.753,-0.938,0.313,68.97,-74.402,145.386
0.707,-0.947,0.367,66.956,-73.547,154.541
0.7,-0.997,0.378,62.744,-77.82,161.682
0.655,-1.017,0.388,56.213,-83.13,164.917
0.572,-0.96,0.401,49.316,-88.318,167.358
0.512,-0.949,0.392,46.265,-92.346,172.241
0.453,-0.967,0.376,44.8,-93.811,175.232
0.382,-0.951,0.373,43.762,-92.529,175.903
0.325,-0.922,0.377,43.823,-88.257,177.307
0.296,-0.911,0.393,46.021,-82.031,179.687
0.279,-0.919,0.409,48.706,-74.89,181.213
0.265,-0.925,0.423,51.086,-67.749,181.824
0.249,-0.919,0.431,54.016,-61.401,182.19
0.227,-0.909,0.437,57.678,-55.908,183.167
0.203,-0.917,0.436,62.866,-50.842,184.631
0.182,-0.938,0.438,68.848,-44.922,186.157
0.167,-0.944,0.451,74.646,-38.818,186.768
0.159,-0.947,0.474,80.2,-32.898,186.951
0.165,-0.964,0.521,86.609,-29.48,186.584
0.153,-0.909,0.558,93.14,-31.738,185.669
0.087,-0.992,0.468,101.501,-36.499,188.599
0.054,-1.132,0.552,106.75,-32.532,186.89
0.043,-1.083,0.619,102.661,-34.058,176.88
0.018,-1.028,0.633,101.135,-39.551,171.021
-0.072,-1.024,0.623,100.037,-43.091,168.64
-0.057,-1.111,0.68,97.778,-40.771,167.236
-0.037,-1.139,0.714,90.698,-40.527,160.339
-0.195,-1.116,0.619,80.75,-42.603,150.513
-0.135,-1.188,0.7,71.411,-32.837,140.32
-0.196,-1.011,0.737,58.35,-29.419,126.709
-0.196,-0.988,0.668,53.101,-30.457,123.962
-0.1,-1.177,0.684,49.316,-26.489,117.737
-0.185,-1.104,0.667,38.33,-25.94,102.661
-0.182,-1.014,0.7,30.029,-25.635,93.079
-0.172,-0.992,0.628,25.146,-28.564,86.365
-0.161,-1.02,0.612,21.851,-27.466,80.994
-0.187,-0.97,0.617,17.944,-25.085,74.707
-0.213,-0.959,0.563,15.808,-25.513,70.129
-0.149,-1.008,0.588,13.062,-21.79,64.392
-0.15,-0.931,0.594,7.935,-19.714,56.824
-0.159,-0.911,0.593,3.845,-19.592,52.002
-0.113,-0.925,0.596,1.343,-18.005,46.631
-0.097,-0.882,0.594,-2.686,-17.822,39.795
-0.077,-0.864,0.593,-4.272,-18.494,33.813
-0.036,-0.86,0.576,-5.432,-20.935,27.1
-0.02,-0.829,0.568,-5.737,-23.193,20.935
-0.001,-0.815,0.565,-5.737,-25.391,15.93
0.013,-0.814,0.541,-4.883,-27.954,10.681
0.024,-0.821,0.534,-3.967,-28.381,5.92
0.041,-0.816,0.533,-3.662,-27.405,1.587
0.058,-0.804,0.533,-3.357,-25.208,-0.854
0.066,-0.794,0.538,-2.563,-22.461,-2.075
0.077,-0.789,0.543,-1.404,-18.494,-2.441
0.091,-0.787,0.55,-0.122,-13.794,-2.869
0.116,-0.796,0.559,1.16,-9.216,-3.54
0.135,-0.794,0.557,2.014,-5.371,-4.822
0.135,-0.774,0.549,3.174,-1.953,-5.554
0.139,-0.785,0.516,5.676,2.686,-4.639
0.222,-0.877,0.579,7.874,10.559,-4.822
0.269,-0.882,0.589,6.531,9.949,-10.986
0.288,-0.825,0.576,4.395,5.737,-16.357
0.376,-0.886,0.614,5.371,2.625,-18.25
0.349,-0.816,0.588,4.7,-5.981,-21.545
0.358,-0.845,0.554,6.165,-11.658,-20.081
0.372,-0.871,0.575,7.568,-13.794,-19.104
0.347,-0.859,0.553,6.775,-17.883,-18.066
0.343,-0.85,0.537,5.859,-19.348,-16.174
0.349,-0.852,0.543,4.883,-17.944,-13.367
0.337,-0.841,0.531,3.479,-16.235,-10.498
0.327,-0.834,0.506,2.075,-13.611,-6.836
0.329,-0.833,0.504,1.221,-9.094,-2.808
0.332,-0.823,0.504,0.793,-5.127,1.16
0.341,-0.819,0.501,0.854,-2.686,4.578
0.36,-0.822,0.512,1.831,-1.587,6.897
0.359,-0.813,0.509,3.479,-2.93,8.484
0.356,-0.817,0.51,4.883,-5.615,9.583
0.354,-0.813,0.514,5.798,-9.216,10.132
0.357,-0.815,0.519,6.348,-13.55,10.498
0.342,-0.808,0.515,6.531,-18.433,10.864
0.332,-0.806,0.512,6.226,-22.766,11.23
0.326,-0.799,0.505,6.653,-26.245,11.23
0.314,-0.799,0.506,6.531,-27.893,11.658
0.305,-0.798,0.505,5.798,-28.198,12.451
-0.799,-1.18,0.733,-33.936,21.484,-12.268
-0.878,-1.176,0.691,-44.617,29.419,-23.621
-0.955,-1.178,0.68,-54.26,41.809,-36.377
-1.029,-1.199,0.7,-63.232,55.725,-51.575
-1.089,-1.233,0.73,-71.96,67.993,-70.496
-1.154,-1.274,0.786,-80.811,77.637,-92.102
-1.227,-1.298,0.817,-91.614,84.351,-115.662
-1.254,-1.321,0.852,-104.248,89.355,-141.296
-1.156,-1.325,0.872,-117.859,92.59,-169.861
-0.967,-1.343,0.869,-130.493,89.05,-198.059
-0.816,-1.355,0.856,-140.869,77.209,-223.755
-0.709,-1.369,0.807,-148.682,57.495,-248.779
-0.576,-1.358,0.745,-154.785,32.959,-274.17
-0.424,-1.333,0.705,-155.273,6.531,-299.316
-0.305,-1.304,0.661,-146.973,-18.982,-322.632
-0.24,-1.298,0.601,-130.493,-39.795,-342.529
-0.185,-1.325,0.562,-109.192,-49.255,-359.619
-0.125,-1.364,0.52,-85.693,-44.8,-375.671
-0.056,-1.392,0.481,-63.843,-26.306,-390.137
0.041,-1.429,0.483,-44.373,6.775,-400.33
0.167,-1.477,0.492,-29.663,47.18,-405.273
0.3,-1.524,0.482,-21.667,87.28,-402.405
0.459,-1.558,0.453,-21.667,124.084,-391.602
0.633,-1.566,0.407,-27.161,155.518,-374.573
0.764,-1.516,0.351,-34.973,183.655,-354.919
0.899,-1.553,0.305,-40.71,209.9,-334.351
1.091,-1.502,0.222,-51.086,225.281,-311.218
1.28,-1.304,0.205,-60.181,230.225,-280.09
1.383,-1.103,0.22,-61.462,220.337,-239.868
1.416,-0.984,0.218,-53.955,196.716,-196.289
1.396,-0.901,0.204,-40.771,166.138,-152.283
1.393,-0.841,0.223,-24.658,131.958,-109.802
1.405,-0.818,0.252,-9.888,93.689,-68.42
1.364,-0.855,0.286,2.441,52.124,-29.297
1.243,-0.924,0.311,11.475,10.803,4.456
1.103,-0.973,0.316,17.334,-26.367,31.433
0.979,-0.984,0.305,19.653,-58.35,51.514
0.863,-0.989,0.322,19.775,-81.787,67.017
0.74,-0.969,0.338,17.09,-96.985,79.102
0.63,-0.96,0.358,12.939,-104.553,90.393
0.525,-0.94,0.372,7.568,-106.018,99.609
0.435,-0.915,0.362,2.014,-101.868,108.154
0.363,-0.886,0.357,-2.808,-91.858,116.516
0.322,-0.863,0.373,-5.066,-78.552,123.474
0.311,-0.856,0.408,-4.822,-65.43,128.906
0.309,-0.834,0.444,-2.747,-56.702,132.507
0.309,-0.809,0.461,0.671,-53.04,135.132
0.303,-0.819,0.48,5.188,-52.979,137.451
0.289,-0.847,0.504,9.766,-55.969,138.916
0.265,-0.87,0.532,14.038,-61.768,138.611
