aX,aY,aZ,gX,gY,gZ
0.53,1.849,-0.276,82.52,-75.684,-25.635
0.512,1.958,-0.375,95.398,-107.361,-25.146
0.46,2.082,-0.454,102.051,-140.93,-21.484
0.367,2.172,-0.469,102.173,-169.8,-16.357
0.18,2.382,-0.413,95.581,-189.026,-12.756
-0.037,2.413,-0.346,90.21,-194.397,-8.667
-0.251,2.326,-0.229,83.13,-178.833,-2.258
-0.436,2.259,0.068,66.284,-139.771,1.831
-0.501,2.017,0.379,45.41,-86.121,3.967
-0.442,1.577,0.667,19.348,-26.184,4.7
-0.269,0.971,0.981,-18.311,28.076,-0.061
0.054,0.274,1.294,-68.481,65.552,-6.592
0.414,-0.198,1.502,-129.456,66.223,-13.245
0.589,-0.492,1.569,-185.913,22.156,-16.235
0.59,-0.85,1.478,-220.886,-54.993,-10.498
0.383,-1.133,1.185,-226.868,-142.212,-3.784
-0.061,-1.404,0.923,-196.533,-206.238,-6.226
-0.453,-1.978,0.908,-135.864,-226.501,-17.334
-0.863,-2.804,1.305,-47.852,-206.177,-36.255
-1.109,-3.634,1.959,68.359,-154.907,-72.815
-0.958,-4.0,2.37,200.562,-74.768,-125.916
-0.51,-4.0,2.396,295.776,35.217,-189.636
0.335,-4.0,2.276,302.49,162.17,-239.624
1.215,-4.0,2.372,217.224,260.803,-256.104
1.99,-3.545,2.331,90.21,288.696,-239.258
2.379,-2.31,2.247,-13.123,245.544,-198.425
2.162,-1.099,2.027,-68.481,153.564,-142.578
1.751,-0.338,1.987,-72.632,50.049,-65.979
1.282,-0.252,1.812,-38.574,-46.265,20.142
0.676,-0.735,1.568,0.366,-117.432,96.741
0.029,-1.212,1.431,14.832,-149.048,142.883
-0.538,-1.481,1.329,7.08,-143.127,157.349
-0.905,-1.674,1.287,-9.338,-109.863,153.748
-1.068,-1.782,1.233,-27.222,-65.125,138.428
-1.059,-1.873,1.115,-43.457,-21.606,114.807
-0.912,-1.839,1.031,-57.983,13.855,87.952
-0.691,-1.68,1.002,-69.153,40.588,61.646
-0.457,-1.509,0.99,-71.838,59.448,39.49
-0.203,-1.385,0.98,-66.895,71.838,26.184
0.036,-1.277,0.989,-58.35,77.148,22.278
0.259,-1.201,1.024,-48.096,74.341,25.635
0.405,-1.141,1.078,-36.926,63.232,34.119
0.449,-1.096,1.125,-24.536,46.326,47.119
0.448,-1.133,1.16,-11.963,28.259,63.782
0.401,-1.2,1.129,-2.319,12.207,78.796
0.306,-1.203,1.089,2.197,2.625,87.891
0.24,-1.201,1.091,3.052,0.793,91.003
0.197,-1.232,1.091,1.099,3.601,89.294
0.154,-1.194,1.125,-8.484,9.705,82.764
0.181,-1.122,1.051,-22.888,14.893,72.388
0.094,-0.976,1.08,-38.879,21.301,57.8
0.137,-0.793,0.965,-50.415,26.978,47.852
0.175,-0.687,0.941,-56.213,33.813,42.48
0.286,-0.556,0.86,-60.791,38.513,37.231
0.239,-0.391,0.864,-60.791,40.71,32.41
0.285,-0.202,0.823,-56.885,43.152,31.006
0.31,-0.102,0.836,-47.791,43.396,31.372
0.392,-0.06,0.773,-37.598,40.71,33.508
0.338,-0.009,0.808,-29.663,37.292,31.738
0.396,0.011,0.803,-23.132,30.151,29.297
0.35,-0.001,0.781,-17.822,19.592,24.536
0.338,-0.0,0.786,-15.32,11.292,19.348
0.339,0.002,0.764,-13.611,3.296,15.564
0.35,0.02,0.758,-11.475,-1.526,11.963
0.341,-0.002,0.719,-7.935,-2.93,9.033
0.269,0.004,0.703,-4.517,3.906,6.653
0.324,0.03,0.757,-2.319,18.86,9.705
0.467,-0.066,0.715,0.977,31.86,16.602
0.508,-0.025,0.847,4.333,41.809,17.029
0.585,-0.006,0.919,9.46,43.213,16.724
0.62,-0.067,0.943,15.93,34.302,17.09
0.641,-0.1,0.981,19.47,20.569,18.494
0.55,-0.13,0.936,20.569,4.578,17.944
0.45,-0.131,0.896,18.555,-4.883,16.846
0.417,-0.146,0.889,14.648,-5.432,15.93
0.419,-0.139,0.909,9.949,-0.671,14.038
0.453,-0.134,0.942,6.409,5.127,11.108
0.498,-0.152,0.969,4.333,10.681,9.338
0.548,-0.176,0.983,2.441,13.672,9.521
0.555,-0.186,0.969,-1.221,13.916,10.193
0.537,-0.185,0.961,-4.761,14.038,10.681
0.486,-0.202,0.912,-8.057,15.747,10.376
0.452,-0.224,0.867,-11.23,20.569,9.46
0.475,-0.196,0.903,-14.221,25.757,6.653
0.536,-0.153,0.908,-16.602,23.132,4.089
0.551,-0.144,0.865,-16.846,13.489,3.601
0.513,-0.104,0.845,-16.846,4.578,3.54
0.456,-0.078,0.81,-15.503,-0.916,5.127
0.418,-0.088,0.795,-13.489,-0.793,8.423
0.435,-0.074,0.824,-12.634,2.93,10.62
0.419,-0.101,0.791,-11.047,4.822,10.62
0.436,-0.078,0.809,-9.644,6.287,8.545
0.371,-0.048,0.769,-7.629,6.714,5.188
0.42,-0.029,0.837,-6.287,9.949,2.93
0.436,-0.043,0.786,-2.93,9.583,2.075
0.422,-0.078,0.771,-1.404,12.512,-0.305
0.434,-0.045,0.841,0.122,16.724,-2.441
0.506,-0.056,0.823,-0.183,17.395,-4.089
0.489,-0.073,0.804,1.16,12.695,-5.798
0.486,-0.056,0.812,0.732,9.46,-7.141
0.467,-0.027,0.811,1.587,7.263,-8.118
0.477,-0.028,0.8,3.601,8.24,-8.301
0.501,-0.031,0.82,5.554,10.01,-8.484
0.509,-0.043,0.818,6.775,9.705,-7.996
0.506,-0.049,0.816,6.409,8.911,-6.958
0.497,-0.046,0.807,4.395,7.935,-4.761
0.463,-0.031,0.787,1.831,8.484,-2.38
0.457,-0.029,0.766,-0.732,10.193,1.221
0.452,-0.031,0.753,-2.869,11.841,3.357
0.454,-0.038,0.739,-4.272,12.207,3.845
0.45,-0.037,0.728,-5.615,10.498,2.991
0.458,-0.026,0.732,-6.531,7.141,0.671
0.445,-0.015,0.734,-5.737,3.418,-1.77
0.451,-0.006,0.746,-3.662,0.427,-2.93
0.469,-0.001,0.763,-0.916,-1.221,-2.808
0.482,-0.01,0.769,1.831,-3.54,-2.075
0.489,-0.031,0.773,3.54,-6.714,-0.671
0.454,-0.052,0.757,4.272,-9.094,0.549
0.402,-0.064,0.742,3.113,-8.545,0.854
0.399,2.333,-0.443,68.604,-65.43,-23.315
0.511,2.522,-0.515,74.646,-94.36,-28.503
0.52,2.657,-0.572,78.186,-126.526,-34.851
0.46,2.68,-0.613,79.773,-156.067,-34.973
0.286,2.628,-0.622,76.416,-178.589,-22.705
-0.067,2.653,-0.506,63.049,-187.073,2.075
-0.517,2.562,-0.266,45.532,-178.101,35.034
-0.922,2.219,-0.032,31.677,-151.489,66.04
-1.26,1.697,0.198,19.104,-108.521,80.322
-1.466,1.113,0.489,5.127,-53.772,70.984
-1.334,0.371,0.941,-9.644,7.08,42.419
-0.837,-0.423,1.424,-23.682,64.331,-1.16
-0.125,-1.073,1.813,-40.833,106.201,-56.152
0.96,-1.784,2.31,-71.472,120.667,-88.501
1.949,-2.426,2.704,-103.455,89.6,-80.444
1.822,-2.904,2.557,-119.324,9.705,-57.007
1.52,-3.339,2.321,-123.779,-66.04,-23.315
1.332,-3.045,2.316,-118.958,-98.083,7.507
0.914,-2.758,2.193,-86.548,-89.966,7.263
0.538,-2.518,1.923,-36.011,-45.288,-12.512
0.418,-2.415,1.706,6.165,23.193,-31.189
0.525,-2.257,1.633,34.79,91.125,-47.241
0.79,-2.118,1.67,49.561,137.268,-64.148
1.099,-2.07,1.758,50.842,149.353,-77.454
1.316,-1.894,1.832,39.368,125.549,-87.891
1.331,-1.65,1.857,25.024,78.43,-91.98
1.174,-1.396,1.793,16.235,25.513,-83.984
0.975,-1.284,1.602,12.207,-16.907,-64.941
0.744,-1.152,1.466,7.08,-40.466,-46.509
0.575,-1.132,1.297,1.465,-48.706,-29.236
0.521,-1.097,1.245,-4.578,-46.631,-15.442
0.472,-1.011,1.149,-9.888,-44.556,-6.409
0.384,-0.965,1.027,-10.864,-45.837,0.183
0.31,-0.936,0.919,-7.935,-46.875,6.042
0.231,-0.906,0.856,-0.61,-44.983,9.033
0.207,-0.872,0.844,8.972,-41.077,10.742
0.21,-0.845,0.854,19.165,-38.391,12.39
0.239,-0.882,0.864,26.855,-37.903,16.541
0.24,-0.919,0.863,29.114,-37.903,22.4
0.251,-0.907,0.905,25.757,-37.048,30.396
0.269,-0.891,0.921,20.813,-36.072,40.039
0.288,-0.882,0.935,15.625,-35.095,48.645
0.28,-0.85,0.955,10.254,-36.377,53.772
0.249,-0.787,0.979,5.737,-39.734,54.504
0.202,-0.743,0.966,3.601,-43.03,50.354
0.103,-0.729,0.926,3.845,-42.908,42.358
0.034,-0.724,0.899,3.723,-34.912,33.081
0.014,-0.712,0.878,2.93,-19.836,22.766
0.048,-0.708,0.867,2.93,-0.793,10.986
0.125,-0.699,0.876,3.235,18.311,-0.122
0.217,-0.687,0.892,3.784,34.79,-8.24
0.255,-0.741,0.776,4.7,48.34,-13.489
0.343,-0.568,1.036,2.625,66.833,-17.822
0.589,-0.716,0.865,4.211,68.481,-15.32
0.613,-0.678,0.983,4.15,59.265,-16.174
0.717,-0.603,1.056,-0.732,38.452,-9.094
0.658,-0.576,1.015,-3.113,10.01,0.61
0.622,-0.502,1.064,-4.7,-13.611,9.766
0.404,-0.504,0.888,-3.235,-31.677,16.663
0.341,-0.487,0.922,-1.465,-33.386,19.226
0.264,-0.493,0.854,2.563,-29.358,15.747
0.211,-0.48,0.839,4.578,-16.663,9.338
0.229,-0.44,0.854,5.554,-0.977,3.235
0.313,-0.398,0.877,7.202,11.353,-1.038
0.373,-0.389,0.854,10.498,17.151,-2.686
0.403,-0.35,0.896,13.672,17.822,-3.235
0.444,-0.331,0.932,17.029,13.794,-2.747
0.469,-0.346,0.939,19.775,6.775,-0.488
0.472,-0.356,0.949,19.104,0.0,2.991
0.424,-0.36,0.933,16.418,-4.517,6.714
0.408,-0.34,0.941,11.597,-4.272,9.033
0.429,-0.33,0.947,7.324,-2.014,10.071
0.448,-0.313,0.942,3.601,-1.16,11.414
0.447,-0.282,0.941,0.671,-1.77,13.733
0.437,-0.253,0.937,-1.343,-4.089,15.686
0.411,-0.234,0.924,-1.831,-6.592,17.334
0.383,-0.233,0.918,-1.77,-7.446,19.165
0.36,-0.241,0.911,-1.892,-6.409,20.63
0.339,-0.254,0.908,-2.441,-3.723,20.508
0.334,-0.268,0.903,-4.15,-0.305,19.043
0.344,-0.278,0.89,-6.592,3.662,16.602
0.358,-0.267,0.885,-9.277,7.263,14.587
0.379,-0.26,0.883,-11.658,9.277,13.733
0.397,-0.257,0.883,-12.756,8.728,13.611
0.397,-0.266,0.88,-12.695,5.981,13.55
0.38,-0.284,0.861,-12.512,2.441,13.184
0.362,-0.292,0.839,-12.695,-0.244,12.634
0.359,-0.286,0.852,-13.245,-0.732,11.597
0.346,-0.283,0.844,-13.733,-0.549,10.01
0.331,-0.316,0.833,-13.916,1.587,7.935
0.315,-0.278,0.845,-13.916,5.798,4.944
0.317,-0.323,0.844,-12.817,10.986,3.967
0.34,-0.33,0.843,-12.451,16.418,2.075
0.357,-0.319,0.857,-13.489,20.874,0.977
0.391,-0.312,0.869,-14.709,22.827,1.526
0.396,-0.315,0.845,-15.442,22.217,2.38
0.396,-0.304,0.848,-15.93,21.301,2.38
0.432,-0.304,0.876,-15.32,18.738,2.075
0.45,-0.31,0.869,-14.221,12.756,2.014
0.433,-0.31,0.856,-14.404,5.432,2.136
0.389,-0.304,0.847,-14.282,0.122,2.441
0.38,-0.291,0.86,-13.245,-1.282,2.625
0.39,-0.294,0.861,-12.207,-1.892,3.052
0.405,-0.297,0.864,-11.658,-2.441,3.296
0.378,-0.292,0.85,-11.536,-2.502,2.808
0.372,-0.287,0.853,-12.207,-0.488,2.563
0.367,-0.262,0.852,-12.207,2.441,1.282
0.392,-0.268,0.85,-11.475,5.676,0.305
0.401,-0.264,0.863,-10.437,7.507,-0.183
0.412,-0.27,0.87,-9.766,7.385,-0.122
0.421,-0.279,0.883,-9.399,5.188,-0.244
0.422,-0.281,0.879,-10.376,1.831,0.0
0.411,-0.269,0.878,-11.902,-1.953,0.305
0.398,-0.263,0.865,-12.878,-5.005,0.549
0.377,-0.259,0.85,-13.428,-6.47,0.61
0.361,-0.263,0.833,-13.123,-5.554,0.183
0.361,-0.27,0.829,-13.123,-2.502,-0.427
0.373,-0.262,0.832,-13.794,1.526,-0.977
0.404,-0.259,0.83,-14.16,5.31,-0.854
0.498,2.011,-0.407,81.482,-61.096,-31.555
0.64,1.978,-0.524,79.529,-70.74,-47.485
0.731,1.93,-0.572,75.134,-78.308,-60.73
0.758,1.892,-0.574,71.716,-87.158,-63.66
0.7,1.788,-0.558,73.669,-95.703,-53.528
0.565,1.611,-0.522,77.637,-99.792,-29.846
0.417,1.383,-0.385,77.393,-98.145,5.92
0.236,0.996,-0.137,68.909,-94.238,51.575
0.034,0.521,0.164,49.316,-92.163,98.999
-0.224,0.145,0.544,20.203,-96.558,130.371
-0.542,-0.149,0.842,-7.751,-108.521,133.423
-0.823,-0.388,1.036,-31.067,-116.455,112.244
-0.994,-0.58,1.192,-54.443,-109.863,75.928
-0.941,-0.847,1.305,-80.75,-87.158,39.673
-0.735,-1.01,1.442,-103.882,-50.903,15.32
-0.429,-1.092,1.638,-114.807,-6.775,-2.197
-0.057,-1.167,1.83,-115.051,36.804,-7.69
0.359,-1.19,2.005,-106.445,68.054,4.517
0.776,-1.057,2.179,-83.191,75.134,26.794
1.007,-0.997,2.237,-43.457,50.049,56.274
0.962,-1.116,2.173,3.784,0.488,83.923
0.573,-1.284,1.998,49.072,-52.612,96.924
0.119,-1.575,1.878,87.585,-84.839,90.027
-0.223,-1.79,1.796,113.831,-85.388,58.838
-0.428,-2.001,1.676,128.906,-56.824,4.211
-0.368,-2.13,1.701,131.897,-2.625,-66.65
-0.03,-2.225,1.747,119.751,59.448,-136.169
0.391,-2.223,1.71,91.187,107.422,-192.078
0.795,-2.045,1.643,50.72,133.484,-226.624
1.051,-1.728,1.473,10.254,139.282,-233.704
1.195,-1.333,1.354,-20.02,133.972,-218.506
1.284,-1.05,1.26,-34.302,119.08,-187.683
1.314,-0.886,1.174,-35.4,94.299,-146.851
1.263,-0.748,1.13,-29.785,61.279,-103.943
1.171,-0.691,1.115,-18.555,22.461,-61.829
0.997,-0.7,1.081,-4.7,-19.043,-24.109
0.779,-0.72,1.078,9.521,-59.326,6.409
0.564,-0.739,1.098,23.682,-94.849,30.273
0.3,-0.794,1.091,36.316,-124.084,47.119
-0.013,-0.943,1.049,44.434,-142.517,55.42
-0.292,-1.102,0.997,42.664,-140.686,56.641
-0.463,-1.173,0.961,28.931,-117.31,53.04
-0.488,-1.052,0.969,9.155,-80.688,42.908
-0.393,-0.859,1.01,-6.226,-43.396,26.489
-0.223,-0.773,1.045,-11.292,-16.785,7.568
-0.13,-0.774,1.028,-9.521,-3.296,-10.254
-0.051,-0.755,1.021,-7.385,6.042,-23.621
0.056,-0.754,1.042,-5.92,15.259,-30.396
0.215,-0.766,1.065,-6.409,23.621,-29.236
0.352,-0.707,1.114,-10.315,27.283,-22.827
0.421,-0.603,1.12,-15.259,21.362,-14.587
0.415,-0.504,1.13,-17.029,8.24,-5.371
0.339,-0.406,1.121,-14.771,-6.775,4.883
0.276,-0.455,1.056,-10.071,-20.447,15.381
0.077,-0.464,1.029,-5.31,-28.32,18.921
0.179,-0.342,1.126,0.732,-30.029,18.311
0.025,-0.534,0.99,8.484,-33.264,16.541
0.053,-0.457,1.081,10.315,-24.902,10.986
0.048,-0.465,1.075,14.832,-17.273,2.625
0.181,-0.472,1.144,17.273,-11.353,0.183
0.163,-0.534,1.104,18.188,-10.376,1.526
0.159,-0.505,1.142,15.015,-8.362,4.639
0.195,-0.54,1.144,11.536,-7.874,8.057
0.207,-0.585,1.123,9.033,-8.972,7.812
0.177,-0.558,1.145,4.395,-9.766,5.371
0.145,-0.571,1.114,-0.488,-11.047,4.089
0.123,-0.562,1.104,-2.808,-9.338,1.221
0.143,-0.618,1.081,-2.93,-5.371,-1.953
0.121,-0.648,1.053,-2.93,-0.122,-4.517
0.14,-0.676,1.021,-3.479,6.042,-6.165
0.183,-0.707,1.027,-3.357,12.512,-7.935
0.193,-0.726,1.017,-3.174,14.893,-9.521
0.18,-0.78,1.03,-4.15,15.381,-7.629
0.149,-0.82,1.018,-7.263,17.334,-2.563
0.163,-0.812,1.041,-12.268,22.583,2.258
0.183,-0.829,1.005,-16.052,27.222,3.784
0.198,-0.803,1.036,-19.775,31.677,1.099
0.201,-0.81,1.007,-22.827,35.278,-1.221
0.165,-0.801,0.968,-26.489,42.603,-3.601
0.182,-0.76,0.98,-31.433,54.626,-5.371
0.28,-0.731,1.023,-34.729,65.918,-4.333
0.332,-0.759,1.001,-35.889,70.435,-0.916
0.348,-0.71,1.078,-38.879,70.74,4.089
0.383,-0.724,1.085,-41.443,65.674,13.367
0.361,-0.69,1.078,-44.434,57.556,20.081
0.328,-0.65,1.086,-48.584,49.255,23.682
0.3,-0.614,1.094,-51.147,41.016,27.344
0.281,-0.575,1.102,-51.086,32.532,29.358
0.254,-0.567,1.087,-48.584,24.658,27.954
0.222,-0.592,1.07,-45.349,20.142,23.926
0.219,-0.638,1.071,-42.603,21.301,18.921
0.242,-0.698,1.061,-42.419,27.039,15.137
0.229,-0.721,1.043,-44.434,36.438,11.414
0.25,-0.687,1.009,-48.828,48.523,8.24
0.34,-0.639,1.0,-53.955,59.204,5.981
0.418,-0.558,0.989,-56.641,63.049,5.92
0.491,-0.442,0.992,-55.847,57.678,10.864
0.535,-0.33,1.023,-49.683,43.701,20.325
0.531,-0.264,1.067,-37.048,23.865,31.86
0.489,-0.264,1.097,-20.63,4.089,42.908
0.42,-0.342,1.12,-5.615,-9.705,50.476
0.35,-0.442,1.114,3.601,-14.221,53.04
0.298,-0.509,1.092,4.333,-8.484,49.194
0.29,-0.515,1.081,-2.38,4.822,39.307
0.336,-0.474,1.08,-10.986,20.508,26.367
0.379,-0.42,1.116,-18.433,34.302,14.038
0.406,-0.336,1.14,-23.621,46.265,7.935
0.466,-0.269,1.181,-26.062,54.993,10.803
0.512,-0.203,1.222,-25.513,57.8,17.822
0.508,-0.158,1.251,-21.667,53.284,23.01
0.471,-0.165,1.234,-16.724,45.349,24.902
0.408,-0.17,1.204,-13.916,39.551,23.926
0.379,-0.167,1.191,-14.587,38.635,20.081
0.332,-0.13,1.159,-16.907,43.213,11.719
0.304,-0.056,1.149,-20.813,55.786,0.916
0.323,-0.014,1.154,-24.841,73.425,-9.705
0.388,0.036,1.198,-28.87,91.98,-19.592
0.525,0.108,1.237,-33.325,107.605,-23.682
0.669,0.155,1.264,-36.804,114.075,-20.447
0.451,1.96,-0.442,54.565,-149.536,-34.668
0.46,2.041,-0.443,60.913,-162.781,-36.072
0.427,2.081,-0.406,71.655,-177.185,-35.4
0.363,2.051,-0.334,86.304,-189.88,-32.532
0.285,1.909,-0.248,101.807,-200.623,-27.1
0.166,1.671,-0.183,113.708,-210.266,-20.691
0.021,1.399,-0.128,119.446,-217.224,-18.188
-0.082,1.084,-0.029,117.126,-215.881,-20.447
-0.102,0.72,0.064,104.187,-205.078,-21.24
-0.111,0.386,0.159,76.111,-187.866,-15.198
-0.075,0.141,0.306,36.804,-165.894,-6.836
-0.119,-0.137,0.403,-7.446,-143.066,4.639
-0.138,-0.382,0.498,-51.941,-121.887,14.16
-0.042,-0.656,0.657,-87.769,-100.159,11.841
0.237,-0.938,0.952,-104.919,-78.308,-5.737
0.512,-1.109,1.206,-99.243,-61.646,-31.128
0.714,-1.258,1.42,-73.181,-55.603,-51.392
0.955,-1.522,1.604,-39.978,-65.796,-52.307
1.133,-1.869,1.761,-6.958,-95.581,-39.673
1.109,-2.205,1.831,22.827,-137.207,-26.123
0.888,-2.452,1.839,47.241,-176.208,-16.907
0.592,-2.555,1.84,64.209,-195.984,-14.465
0.275,-2.545,1.837,75.684,-187.866,-22.034
0.028,-2.446,1.883,84.656,-151.428,-39.978
-0.05,-2.294,1.94,92.834,-94.971,-65.125
-0.082,-2.205,1.889,96.802,-31.921,-93.994
-0.058,-2.142,1.696,86.487,27.466,-123.291
0.134,-2.057,1.448,56.824,82.825,-150.635
0.421,-1.814,1.246,18.311,130.493,-176.27
0.771,-1.476,1.187,-15.808,164.917,-192.139
1.138,-1.112,1.21,-34.79,178.101,-188.965
1.445,-0.855,1.223,-37.842,162.598,-164.734
1.611,-0.682,1.256,-30.884,117.615,-123.901
1.582,-0.623,1.217,-16.296,46.936,-71.35
1.379,-0.718,1.122,0.366,-34.241,-15.076
1.067,-0.886,0.982,13.489,-111.816,38.33
0.718,-1.067,0.792,20.142,-176.025,82.458
0.332,-1.158,0.627,20.02,-219.604,110.229
-0.053,-1.169,0.501,17.517,-238.464,119.507
-0.353,-1.101,0.589,14.771,-234.436,118.103
-0.322,-1.18,0.51,15.808,-225.098,117.31
-0.742,-1.244,0.308,15.869,-201.599,99.731
-0.701,-0.997,0.62,-1.282,-148.743,78.979
-0.543,-1.136,0.517,0.977,-107.544,63.049
-0.39,-0.995,0.756,-2.441,-58.838,42.175
-0.094,-1.122,0.837,1.709,-28.198,27.1
0.033,-1.08,1.013,9.949,-11.414,10.986
0.096,-1.298,1.052,18.188,-5.127,4.883
0.132,-1.369,1.101,20.142,2.991,-1.221
0.133,-1.443,1.057,17.7,11.353,-5.554
0.192,-1.445,1.023,8.85,23.437,-9.521
0.224,-1.298,1.062,-2.258,34.973,-14.954
0.305,-1.115,1.074,-11.658,40.161,-18.005
0.315,-0.988,1.057,-15.93,37.415,-19.531
0.313,-0.798,1.121,-16.296,30.884,-19.104
0.302,-0.756,1.064,-10.742,20.996,-14.038
0.233,-0.67,1.021,-3.601,14.526,-9.827
0.272,-0.643,1.177,1.892,10.193,-2.014
0.267,-0.777,1.108,6.165,2.075,7.874
0.254,-0.756,1.188,3.845,1.282,13.367
0.16,-0.697,1.176,-3.113,1.282,18.433
0.095,-0.716,1.122,-11.414,6.836,25.94
0.092,-0.729,1.138,-19.226,19.287,28.442
0.114,-0.722,1.135,-24.841,30.212,24.292
0.082,-0.738,1.106,-29.297,36.499,18.555
0.105,-0.72,1.149,-34.302,43.457,13.245
0.135,-0.761,1.103,-37.048,47.363,8.545
0.196,-0.819,1.102,-41.016,52.002,4.822
0.258,-0.877,1.116,-47.607,56.396,4.15
0.274,-0.901,1.113,-57.129,60.486,6.714
0.355,-0.888,1.086,-70.007,65.613,12.268
0.42,-0.816,1.096,-83.496,69.519,16.296
0.464,-0.742,1.11,-94.055,69.092,19.653
0.507,-0.69,1.086,-99.121,64.026,22.949
0.505,-0.633,1.056,-99.609,55.786,24.719
0.506,-0.589,1.051,-96.558,46.326,26.428
0.492,-0.612,1.017,-89.722,36.56,29.175
0.439,-0.658,1.017,-82.886,30.029,31.494
0.386,-0.739,0.98,-78.613,28.015,35.339
0.372,-0.797,0.974,-79.468,30.884,39.551
0.406,-0.807,0.969,-84.29,35.217,41.382
0.43,-0.793,0.939,-90.088,36.926,38.696
0.431,-0.704,0.945,-94.543,35.278,32.349
0.424,-0.602,0.93,-95.337,31.25,25.94
0.406,-0.565,0.906,-91.797,27.832,19.775
0.348,-0.558,0.882,-86.67,27.954,14.832
0.394,-0.583,0.95,-83.069,31.982,13.916
0.457,-0.608,0.99,-82.092,34.607,16.602
0.514,-0.683,0.995,-84.778,33.447,24.475
0.502,-0.699,0.953,-94.788,30.884,34.79
0.513,-0.612,0.898,-108.398,29.175,42.358
0.55,-0.483,0.86,-117.859,26.367,42.542
0.552,-0.32,0.799,-119.446,19.47,37.292
0.548,-0.176,0.754,-112.915,10.62,32.532
0.541,-0.074,0.728,-100.586,2.136,30.457
0.495,0.005,0.73,-85.327,-3.967,33.081
0.458,0.052,0.749,-68.726,-7.019,40.649
0.454,0.083,0.793,-52.185,-5.676,49.316
0.438,0.122,0.874,-38.147,-1.038,54.81
0.459,0.151,0.957,-27.161,6.165,55.481
0.484,0.2,1.033,-18.433,13.611,51.758
0.52,0.241,1.098,-12.329,17.822,45.166
0.539,0.255,1.143,-8.24,17.822,35.95
0.521,0.243,1.177,-7.324,18.188,24.292
0.497,0.274,1.183,-10.925,24.414,13.062
0.534,0.36,1.21,-17.151,36.377,5.188
0.608,0.452,1.24,-21.79,49.622,-0.671
0.686,0.51,1.27,-24.17,60.73,-5.005
0.729,0.524,1.288,-26.184,68.359,-7.202
0.782,0.539,1.271,-30.09,73.608,-4.761
0.809,0.552,1.238,-34.424,74.768,0.183
0.785,0.559,1.185,-37.659,71.838,4.456
0.713,0.543,1.098,-38.757,68.115,4.578
0.611,0.513,1.008,-39.246,67.993,1.343
0.51,0.511,0.927,-39.49,73.792,-2.93
0.458,0.535,0.857,-39.185,83.984,-6.897
0.454,0.546,0.817,-36.438,95.215,-11.353
0.438,0.517,0.788,-31.006,103.271,-15.747
0.394,0.474,0.746,-26.184,108.704,-18.86
1.036,-0.415,1.129,-86.121,-75.562,-20.386
0.948,-0.496,1.215,-66.895,-91.919,-33.997
0.875,-0.64,1.382,-44.128,-88.501,-35.4
0.786,-0.802,1.496,-24.475,-66.589,-30.09
0.747,-0.959,1.539,-15.137,-32.837,-25.574
0.82,-1.06,1.523,-18.433,-0.427,-31.494
0.85,-1.065,1.412,-32.104,20.874,-53.589
0.828,-1.014,1.251,-51.331,31.128,-84.045
0.817,-0.914,1.116,-69.58,34.485,-109.68
0.865,-0.761,1.025,-80.017,35.034,-125.061
0.916,-0.614,1.033,-76.416,31.006,-127.93
0.96,-0.553,1.078,-55.725,18.799,-122.742
0.939,-0.651,1.096,-24.597,0.366,-113.159
0.896,-0.894,1.058,3.113,-18.372,-101.013
0.823,-1.108,1.014,18.982,-28.687,-86.487
0.843,-1.241,1.025,21.301,-25.513,-69.763
0.896,-1.224,1.09,13.245,-15.869,-55.42
0.912,-1.135,1.171,3.418,-8.423,-45.837
0.909,-1.085,1.213,-2.075,-4.883,-39.001
0.9,-1.018,1.223,-6.165,-4.639,-34.546
0.864,-0.953,1.191,-7.629,-8.606,-31.189
0.78,-0.891,1.148,-5.066,-15.015,-28.015
0.699,-0.892,1.137,1.831,-19.165,-25.024
0.627,-0.96,1.149,10.925,-19.592,-21.606
0.606,-1.026,1.198,19.104,-17.212,-16.235
0.608,-1.101,1.258,25.146,-15.747,-12.146
0.571,-1.194,1.289,28.076,-15.93,-12.39
0.521,-1.255,1.312,25.879,-12.939,-16.418
0.455,-1.323,1.247,18.188,-3.418,-22.278
0.504,-1.31,1.224,5.859,12.573,-27.832
0.592,-1.164,1.232,-7.874,30.823,-33.142
0.662,-1.099,1.248,-21.057,47.913,-37.109
0.91,-0.943,1.216,-30.273,55.847,-40.71
0.904,-0.852,1.132,-33.508,47.852,-38.452
0.9,-0.73,1.039,-35.278,36.926,-28.625
0.853,-0.631,0.968,-31.067,27.1,-13.672
0.907,-0.56,0.982,-23.193,19.409,1.831
0.904,-0.505,0.944,-14.221,7.446,16.785
0.877,-0.456,0.96,-7.202,-5.493,30.029
0.772,-0.429,0.953,0.122,-18.25,39.551
0.594,-0.412,0.919,6.165,-24.231,45.654
0.549,-0.447,0.916,10.559,-18.188,49.561
0.558,-0.535,0.897,14.221,-6.47,46.326
0.534,-0.502,0.93,14.282,5.737,36.072
0.62,-0.573,0.896,11.902,13.0,29.907
0.612,-0.551,0.9,7.629,16.785,20.081
0.67,-0.581,0.877,2.747,18.616,14.404
0.747,-0.59,0.878,-3.601,18.86,14.771
0.818,-0.551,0.844,-10.864,17.273,20.081
0.845,-0.447,0.83,-16.479,12.756,28.259
0.864,-0.357,0.818,-17.761,4.822,37.048
0.832,-0.301,0.812,-13.123,-4.517,43.457
0.761,-0.279,0.794,-4.089,-13.0,47.852
0.675,-0.315,0.774,6.592,-17.334,50.232
0.614,-0.392,0.775,15.869,-15.198,50.903
0.593,-0.472,0.779,21.118,-8.057,51.086
0.607,-0.51,0.808,21.057,1.038,50.659
0.662,-0.531,0.84,16.907,7.568,49.255
0.725,-0.542,0.866,10.193,8.118,46.875
0.771,-0.537,0.87,2.502,3.235,44.983
0.78,-0.486,0.853,-6.409,-4.517,45.532
0.765,-0.417,0.827,-14.343,-12.451,48.401
0.733,-0.348,0.797,-17.639,-19.165,50.72
0.708,-0.308,0.772,-16.235,-23.193,51.758
0.663,-0.296,0.734,-12.39,-25.146,52.551
0.611,-0.289,0.71,-7.751,-23.193,51.208
0.598,-0.311,0.703,-3.113,-16.296,49.377
0.582,-0.317,0.69,-0.427,-7.935,47.363
0.584,-0.32,0.682,2.014,0.0,43.701
0.602,-0.313,0.692,3.113,5.92,38.635
0.579,-0.27,0.695,3.967,8.484,34.119
0.59,-0.253,0.721,5.737,8.728,31.006
0.609,-0.242,0.746,6.592,7.446,29.175
0.643,-0.239,0.769,5.493,4.7,29.175
0.673,-0.218,0.771,2.136,0.183,30.945
0.685,-0.187,0.764,-1.648,-5.432,32.776
0.695,-0.129,0.757,-4.211,-10.437,33.691
0.729,-0.072,0.758,-4.639,-13.733,34.607
0.737,-0.031,0.754,-2.808,-15.991,35.583
0.702,0.008,0.761,0.854,-15.869,36.194
0.667,0.019,0.76,5.554,-12.939,37.781
0.64,0.026,0.805,9.033,-7.263,39.917
0.674,-0.019,0.86,11.108,-1.343,42.48
0.707,-0.073,0.909,8.484,0.793,45.166
0.696,-0.079,0.932,-0.305,0.488,46.936
0.691,-0.047,0.919,-12.207,-0.854,46.387
0.695,0.001,0.913,-22.827,-1.892,42.236
0.709,0.063,0.918,-30.579,-2.197,35.278
0.703,0.13,0.9,-36.133,-1.343,29.114
0.721,0.178,0.858,-38.208,-0.305,26.062
0.686,0.222,0.822,-38.025,0.183,25.818
0.662,0.271,0.8,-34.729,1.648,25.818
0.653,0.291,0.801,-28.625,4.761,25.879
0.625,0.282,0.8,-20.569,9.399,26.367
0.61,0.246,0.801,-11.902,15.564,26.855
0.607,0.209,0.798,-4.456,22.827,26.489
0.611,0.177,0.804,1.16,28.687,25.452
0.607,0.153,0.816,4.395,31.494,23.132
0.614,0.137,0.818,5.249,32.166,20.63
0.608,0.153,0.814,4.333,31.25,18.127
0.607,0.175,0.799,3.723,29.602,15.198
0.61,0.186,0.782,4.822,28.503,11.78
0.615,0.154,0.772,6.714,28.748,8.118
0.627,0.108,0.772,7.263,30.945,6.226
0.662,0.077,0.775,4.089,34.851,6.592
0.693,0.08,0.776,-1.465,36.987,8.301
0.724,0.097,0.773,-7.69,35.767,9.888
0.744,0.121,0.767,-12.939,31.311,10.498
0.739,0.151,0.759,-17.029,24.292,10.315
0.711,0.172,0.746,-20.142,16.907,9.583
0.701,0.196,0.681,-21.667,12.268,9.949
0.678,0.222,0.643,-19.714,8.85,11.353
0.662,0.263,0.624,-15.015,6.226,11.719
0.629,0.281,0.606,-8.301,4.089,10.681
0.601,0.281,0.59,-0.732,2.38,8.118
0.578,0.259,0.577,7.324,0.916,4.333
0.55,0.244,0.565,14.099,-0.366,-0.427
0.511,0.234,0.55,19.958,-1.038,-5.981
0.474,0.2,0.527,24.719,0.0,-11.414
0.27,-1.587,1.735,25.391,-146.973,10.376
0.379,-1.741,1.941,60.669,-128.845,-13.062
0.377,-1.907,1.964,98.511,-104.736,-43.518
0.42,-2.118,2.099,134.277,-66.04,-74.341
0.498,-2.432,2.054,154.297,-19.653,-104.431
0.678,-2.667,2.026,142.578,32.776,-129.15
0.951,-2.601,1.962,92.224,76.233,-148.621
1.126,-2.215,1.792,22.827,92.59,-166.443
1.179,-1.631,1.589,-39.978,86.67,-175.598
1.159,-1.196,1.484,-80.75,69.092,-169.495
1.109,-0.816,1.4,-99.121,47.302,-149.048
1.047,-0.59,1.337,-94.482,22.4,-119.019
0.947,-0.54,1.245,-74.219,-5.981,-83.984
0.771,-0.586,1.159,-48.523,-32.715,-48.523
0.557,-0.677,1.117,-24.475,-51.453,-18.433
0.359,-0.763,1.077,-4.822,-59.814,4.7
0.247,-0.828,1.09,8.545,-58.777,21.179
0.221,-0.923,1.164,17.395,-54.321,30.64
0.259,-0.995,1.243,19.653,-51.514,38.452
0.295,-1.023,1.319,15.564,-55.664,49.316
0.273,-1.033,1.35,10.315,-66.528,58.838
0.198,-1.037,1.361,8.606,-76.721,61.218
0.115,-1.086,1.346,12.756,-79.712,55.542
0.041,-1.154,1.303,20.752,-72.449,43.884
-0.015,-1.179,1.267,27.466,-53.284,28.931
-0.035,-1.132,1.221,30.151,-24.597,14.893
0.03,-1.035,1.189,26.733,8.24,4.7
0.186,-0.9,1.195,17.273,37.598,-2.258
0.356,-0.668,1.221,5.981,54.26,-8.606
0.366,-0.424,1.209,-2.686,56.824,-14.709
0.451,-0.412,1.101,-8.972,51.392,-14.221
0.391,-0.268,1.182,-11.902,41.504,-13.611
0.506,-0.293,1.162,-13.611,27.039,-8.667
0.371,-0.309,1.009,-14.038,7.385,-10.193
0.28,-0.279,0.995,-16.907,-2.502,-9.46
0.15,-0.261,0.833,-17.883,-5.676,-11.902
0.004,-0.261,0.678,-18.616,9.766,-15.015
0.25,-0.163,0.889,-17.212,36.56,-24.17
0.334,-0.166,0.792,-8.728,43.64,-35.217
0.457,-0.13,0.906,-6.287,47.974,-37.72
0.495,-0.084,0.938,-4.15,40.71,-35.767
0.509,-0.055,0.994,-1.282,27.527,-28.748
0.548,-0.058,1.018,0.793,11.78,-19.104
0.551,-0.093,1.03,2.38,-4.211,-9.766
0.533,-0.143,1.02,1.404,-19.531,-1.587
0.476,-0.17,0.996,-2.38,-31.128,5.371
0.393,-0.157,0.994,-7.019,-35.706,11.902
0.335,-0.147,0.948,-10.925,-33.325,18.188
0.306,-0.137,0.929,-14.343,-25.513,23.071
0.311,-0.12,0.947,-15.869,-15.503,25.513
0.345,-0.12,0.983,-15.564,-8.301,25.513
0.398,-0.119,0.998,-14.099,-5.981,23.499
0.413,-0.125,1.004,-12.634,-7.935,22.339
0.387,-0.151,1.001,-11.292,-9.644,22.705
0.356,-0.187,1.026,-9.827,-7.141,23.376
0.349,-0.24,1.045,-8.728,-1.404,22.888
0.371,-0.272,1.083,-8.911,6.042,21.24
0.394,-0.338,1.101,-10.925,11.841,20.203
0.417,-0.349,1.125,-14.893,15.686,19.348
0.437,-0.348,1.116,-21.179,16.052,19.836
0.466,-0.316,1.115,-27.466,13.733,21.179
0.459,-0.292,1.101,-31.982,8.362,22.888
0.436,-0.256,1.078,-34.485,2.075,23.804
0.413,-0.232,1.063,-34.546,-2.808,24.963
0.38,-0.221,1.041,-32.227,-5.737,25.696
0.33,-0.218,1.016,-29.053,-6.775,26.306
0.29,-0.212,1.0,-26.123,-5.31,25.574
0.275,-0.221,0.983,-23.499,-1.953,23.621
0.268,-0.23,0.973,-21.362,2.93,19.104
0.265,-0.241,0.953,-20.935,8.972,13.733
0.281,-0.227,0.917,-23.499,16.296,9.949
0.32,-0.194,0.891,-28.992,23.804,9.155
0.361,-0.149,0.886,-33.936,30.273,9.888
0.416,-0.102,0.91,-36.011,34.973,12.024
0.489,-0.084,0.946,-35.034,35.889,15.747
0.536,-0.091,0.989,-31.921,31.616,21.057
0.552,-0.116,1.022,-27.771,23.254,27.222
0.546,-0.139,1.042,-24.597,13.245,33.691
0.52,-0.171,1.051,-21.24,3.601,38.757
0.465,-0.224,1.046,-18.616,-3.357,42.175
0.4,-0.282,1.017,-17.883,-5.859,42.786
0.343,-0.333,0.992,-19.226,-3.784,40.1
0.318,-0.36,0.968,-21.851,2.686,34.79
0.318,-0.354,0.952,-25.269,12.146,28.809
0.321,-0.326,0.938,-28.442,21.118,23.01
0.347,-0.276,0.918,-31.433,28.87,19.531
0.399,-0.223,0.906,-32.41,33.875,19.104
0.417,-0.215,0.915,-30.823,35.339,20.081
0.415,-0.238,0.905,-29.907,34.607,24.719
0.466,-0.236,0.913,-31.921,32.227,32.043
0.492,-0.209,0.928,-33.447,25.818,37.048
0.485,-0.203,0.919,-33.447,15.747,37.537
0.485,-0.19,0.886,-33.264,4.944,36.621
0.446,-0.133,0.839,-31.372,-2.808,33.63
0.395,-0.083,0.813,-25.757,-4.883,26.55
0.323,-0.054,0.79,-18.066,0.122,16.968
0.277,-0.009,0.787,-9.277,13.367,7.935
0.293,0.023,0.835,0.977,31.433,1.526
0.338,0.016,0.906,12.024,48.462,-2.136
0.436,-0.026,0.968,21.973,59.509,-3.174
0.512,-0.043,1.032,27.466,61.584,-4.272
0.551,-0.033,1.089,28.809,55.115,-6.226
0.582,-0.022,1.109,28.076,41.931,-6.287
0.583,-0.02,1.097,26.733,25.574,-4.822
0.529,-0.021,1.054,25.818,9.583,-4.944
0.434,0.025,1.009,25.574,-0.549,-6.836
0.369,0.069,1.0,26.428,-2.686,-8.057
0.354,0.058,1.016,28.259,0.488,-7.568
0.371,0.032,1.031,29.724,6.775,-5.981
0.395,0.017,1.051,30.396,13.062,-5.188
0.412,-0.001,1.077,30.64,17.334,-6.165
0.45,-0.033,1.083,30.09,18.433,-8.545
0.479,-0.043,1.068,26.855,16.968,-11.414
0.486,-0.023,1.045,22.522,14.404,-14.404
0.488,0.012,1.024,19.287,12.756,-17.456
0.48,0.043,1.024,18.005,13.428,-20.325
0.497,0.076,1.054,18.066,16.113,-21.545
0.524,0.083,1.096,19.775,19.287,-20.935
0.53,0.061,1.117,20.996,21.24,-18.86
0.448,1.685,-0.531,55.725,-78.491,-41.382
0.433,1.739,-0.505,71.594,-95.398,-30.823
0.396,1.769,-0.459,86.487,-110.229,-17.395
0.379,1.735,-0.393,100.647,-122.437,-4.333
0.382,1.613,-0.303,112.122,-132.202,6.897
0.327,1.505,-0.21,117.432,-142.578,14.893
0.246,1.412,-0.082,116.638,-152.405,17.822
0.176,1.249,0.046,111.206,-161.011,16.968
0.089,1.092,0.182,100.83,-165.222,11.292
-0.064,0.952,0.341,83.313,-158.142,3.479
-0.142,0.759,0.521,56.763,-137.695,3.052
-0.098,0.558,0.736,22.4,-108.337,9.766
-0.005,0.328,1.026,-13.916,-79.224,16.235
0.131,0.06,1.271,-49.5,-59.753,21.851
0.314,-0.247,1.456,-81.665,-56.03,27.588
0.423,-0.49,1.542,-108.276,-70.984,29.175
0.45,-0.7,1.568,-123.23,-101.501,28.992
0.435,-0.901,1.585,-121.46,-141.357,27.588
0.303,-1.056,1.606,-101.257,-181.641,22.095
0.109,-1.268,1.615,-64.392,-209.839,10.925
-0.072,-1.452,1.745,-15.625,-216.248,-4.333
-0.319,-1.763,1.775,39.612,-199.646,-19.531
-0.399,-1.913,1.908,92.896,-155.701,-39.246
-0.371,-2.122,2.029,134.521,-97.839,-59.937
-0.289,-2.315,2.146,156.799,-37.109,-87.097
-0.107,-2.418,2.133,155.273,15.32,-119.629
-0.01,-2.355,1.918,131.409,55.603,-158.325
0.093,-2.04,1.693,92.346,93.14,-197.754
0.319,-1.654,1.472,51.514,127.747,-225.464
0.559,-1.281,1.372,21.057,156.25,-240.417
0.812,-0.908,1.3,0.671,173.523,-237.244
1.056,-0.58,1.28,-8.789,172.302,-214.844
1.254,-0.378,1.305,-11.536,148.621,-173.889
1.307,-0.304,1.355,-10.62,102.173,-118.591
1.187,-0.382,1.38,-10.681,39.734,-55.42
0.985,-0.517,1.323,-14.343,-26.184,6.287
0.685,-0.619,1.229,-22.339,-85.266,59.57
0.377,-0.693,1.175,-32.227,-129.7,101.563
0.099,-0.797,1.123,-39.917,-159.607,129.883
-0.177,-0.967,1.109,-41.565,-174.377,141.296
-0.395,-1.228,1.188,-33.813,-171.814,137.268
-0.497,-1.604,1.32,-14.954,-154.724,119.995
-0.605,-1.949,1.448,8.667,-124.756,90.698
-0.641,-2.187,1.521,25.208,-81.909,59.509
-0.531,-2.232,1.439,22.278,-31.677,35.889
-0.301,-2.001,1.302,-0.427,18.372,19.47
-0.086,-1.577,1.125,-33.997,60.303,7.874
0.103,-1.101,0.983,-62.683,86.426,2.686
0.26,-0.702,0.945,-78.308,93.201,5.981
0.358,-0.372,0.935,-80.017,80.688,16.113
0.386,-0.13,0.936,-67.749,52.368,29.236
0.336,-0.002,0.917,-45.654,15.625,41.687
0.189,-0.012,0.81,-20.203,-18.921,48.523
0.026,-0.016,0.807,3.296,-40.527,45.959
-0.076,-0.029,0.8,22.644,-49.805,35.461
-0.149,-0.107,0.773,38.33,-47.791,17.883
-0.231,-0.151,0.792,45.959,-30.823,-2.502
-0.232,-0.216,0.829,45.593,-4.272,-19.043
-0.179,-0.204,0.879,38.086,28.687,-28.687
0.028,-0.203,0.954,28.198,57.434,-30.029
0.19,-0.133,1.039,17.273,71.716,-28.381
0.359,-0.103,1.06,9.338,68.97,-21.118
0.4,-0.091,1.099,5.859,52.002,-14.404
0.399,-0.083,1.103,5.005,29.114,-7.263
0.365,-0.125,1.069,6.042,5.92,1.099
0.292,-0.169,1.038,6.348,-10.437,9.827
0.216,-0.211,1.03,5.676,-18.311,18.005
0.18,-0.233,1.053,3.601,-17.883,24.109
0.167,-0.25,1.078,2.075,-12.451,28.32
0.142,-0.271,1.117,0.671,-5.432,30.64
0.155,-0.318,1.151,-0.488,1.648,31.189
0.179,-0.365,1.177,-2.869,6.47,29.541
0.179,-0.39,1.185,-6.958,8.24,25.208
0.145,-0.396,1.161,-11.597,9.216,19.653
0.122,-0.389,1.13,-15.808,12.695,14.038
0.124,-0.375,1.115,-19.714,19.226,9.094
0.142,-0.354,1.121,-21.423,26.917,3.967
0.173,-0.329,1.119,-21.24,33.569,-0.122
0.196,-0.314,1.109,-19.592,38.452,-2.808
0.219,-0.291,1.109,-16.968,42.725,-3.601
0.249,-0.268,1.097,-14.343,45.715,-2.014
0.281,-0.248,1.091,-12.695,47.852,2.991
0.303,-0.234,1.068,-11.414,49.316,9.277
0.313,-0.25,1.077,-10.803,51.758,15.625
0.339,-0.259,1.096,-11.597,54.932,20.813
0.378,-0.295,1.087,-12.939,56.091,25.391
0.416,-0.356,1.088,-16.785,55.664,29.114
0.398,-0.367,1.077,-22.827,52.979,30.457
0.396,-0.384,1.073,-27.527,48.401,31.006
0.412,-0.389,1.06,-30.884,42.969,29.663
0.407,-0.4,1.028,-31.677,38.025,28.015
0.362,-0.405,0.989,-31.372,36.194,27.1
0.333,-0.435,0.988,-30.273,38.147,27.466
0.336,-0.481,0.974,-30.823,43.213,30.273
0.367,-0.504,0.975,-33.142,48.706,35.156
0.4,-0.515,0.984,-36.743,51.453,39.246
0.432,-0.532,0.994,-41.077,50.598,42.114
0.456,-0.553,1.006,-46.509,44.556,44.556
0.428,-0.58,1.022,-53.772,34.607,47.058
0.379,-0.58,1.002,-63.538,26.306,51.758
0.374,-0.531,0.976,-74.829,22.461,56.885
0.38,-0.492,0.954,-85.022,20.996,58.167
0.368,-0.464,0.957,-93.811,21.24,54.443
0.362,-0.442,0.926,-101.135,21.912,50.11
0.361,-0.443,0.87,-106.445,24.17,47.058
0.305,-0.391,0.799,-111.694,30.457,42.847
0.312,-0.326,0.812,-115.967,41.992,41.016
0.351,-0.242,0.777,-118.958,53.406,42.419
0.425,-0.092,0.758,-118.408,60.73,45.776
0.497,0.072,0.768,-112.0,58.411,46.997
0.536,0.127,0.789,-98.877,46.814,44.373
0.537,0.102,0.773,-82.886,29.907,38.513
0.451,0.085,0.748,-68.726,14.526,30.823
0.388,0.106,0.76,-58.655,6.775,21.545
0.358,0.113,0.8,-50.659,7.568,12.451
0.36,0.162,0.856,-44.8,15.93,5.005
0.454,0.24,0.922,-40.894,27.222,1.038
0.567,0.294,0.958,-36.011,33.203,-1.709
0.596,0.331,0.986,-30.701,31.677,-6.714
-0.136,2.335,-0.254,52.856,-58.777,40.466
-0.107,2.34,-0.255,56.396,-77.393,46.875
-0.069,2.253,-0.305,57.007,-99.915,45.41
-0.089,2.12,-0.394,53.528,-121.399,33.02
-0.138,1.997,-0.49,46.204,-136.536,15.991
-0.18,1.896,-0.521,36.133,-142.395,0.977
-0.177,1.727,-0.51,29.907,-139.343,-11.047
-0.187,1.492,-0.434,31.494,-129.639,-23.865
-0.195,1.196,-0.243,42.603,-116.272,-36.316
-0.183,0.819,0.049,61.218,-100.22,-45.654
-0.011,0.349,0.499,82.642,-86.548,-49.072
0.309,-0.193,1.038,97.656,-79.102,-42.603
0.542,-0.785,1.488,98.633,-84.351,-25.757
0.587,-1.342,1.802,74.89,-102.966,-6.287
0.582,-1.826,2.092,25.818,-124.756,15.686
0.65,-2.274,2.408,-23.193,-144.043,33.63
0.439,-2.584,2.532,-52.49,-159.607,24.475
0.142,-2.506,2.543,-61.584,-160.767,-10.864
-0.049,-2.241,2.512,-50.781,-138.977,-49.011
-0.15,-2.049,2.411,-26.367,-95.886,-89.111
-0.122,-1.986,2.254,-1.282,-38.33,-127.014
0.027,-1.913,2.105,19.287,21.606,-158.508
0.186,-1.937,1.89,27.893,74.646,-181.458
0.36,-1.938,1.713,22.095,117.615,-199.89
0.548,-1.881,1.553,5.432,145.691,-208.801
0.771,-1.758,1.439,-17.822,158.508,-207.947
0.996,-1.517,1.418,-39.368,155.64,-200.684
1.129,-1.245,1.346,-50.781,134.399,-185.669
1.18,-0.949,1.312,-51.758,101.746,-158.936
1.137,-0.735,1.256,-43.396,58.594,-117.188
1.016,-0.666,1.173,-28.198,9.216,-65.063
0.865,-0.712,1.114,-12.085,-41.077,-8.85
0.675,-0.837,1.055,0.977,-92.773,45.776
0.457,-0.981,1.015,7.751,-142.822,92.529
0.198,-1.072,0.968,8.301,-188.11,125.244
-0.09,-1.109,0.917,6.165,-224.548,141.052
-0.321,-1.165,0.817,3.967,-247.864,142.578
-0.543,-1.16,0.695,1.16,-253.296,130.005
-0.732,-1.088,0.645,-2.502,-237.305,108.093
-0.852,-1.007,0.635,-3.723,-203.003,82.581
-0.901,-0.935,0.675,-2.991,-153.687,56.213
-0.822,-0.853,0.745,-1.465,-96.069,33.081
-0.647,-0.799,0.823,0.0,-39.429,13.245
-0.493,-0.792,0.903,2.136,8.24,-4.517
-0.305,-0.827,0.981,3.235,45.349,-17.456
-0.118,-0.91,1.085,3.418,70.374,-24.902
0.029,-1.04,1.199,1.709,80.566,-27.405
0.105,-1.178,1.281,0.061,76.599,-28.137
0.112,-1.301,1.327,-1.77,64.27,-28.259
0.088,-1.388,1.322,-3.906,50.659,-27.893
0.039,-1.406,1.274,-7.996,39.978,-27.771
0.01,-1.29,1.222,-16.541,35.217,-27.893
0.048,-1.102,1.163,-29.297,33.203,-26.306
0.109,-0.886,1.125,-41.321,31.555,-22.095
0.149,-0.636,1.013,-50.232,29.053,-15.808
0.265,-0.431,1.072,-54.749,25.208,-7.202
0.282,-0.229,0.996,-52.429,11.169,1.892
0.326,-0.114,1.053,-46.875,-3.052,15.137
0.342,-0.116,1.001,-35.706,-24.17,25.757
0.256,-0.086,0.987,-24.78,-42.969,30.945
0.138,-0.098,0.917,-15.442,-56.091,35.889
0.021,-0.09,0.898,-7.812,-57.373,37.476
-0.049,-0.09,0.86,-0.183,-48.096,35.828
-0.113,-0.086,0.865,7.202,-29.846,30.273
-0.091,-0.121,0.886,13.428,-7.446,22.888
-0.034,-0.15,0.92,16.541,13.611,14.343
0.039,-0.137,0.967,15.625,29.602,7.08
0.117,-0.102,1.007,11.841,38.147,2.991
0.186,-0.078,1.04,8.24,39.307,1.282
0.221,-0.056,1.06,5.31,34.607,1.343
0.239,-0.053,1.079,3.54,26.672,3.845
0.236,-0.077,1.085,2.258,16.968,8.362
0.219,-0.111,1.08,0.305,7.996,13.855
0.195,-0.154,1.07,-2.991,1.526,19.775
0.18,-0.187,1.06,-8.118,-2.014,25.269
0.166,-0.201,1.044,-14.16,-3.174,28.931
0.156,-0.204,1.025,-19.226,-2.441,30.518
0.145,-0.202,1.012,-22.217,-0.244,30.701
0.118,-0.205,1.003,-22.705,3.113,29.602
0.103,-0.218,1.011,-20.752,7.812,27.405
0.098,-0.242,1.028,-16.724,12.939,23.926
0.091,-0.269,1.041,-12.756,18.066,19.653
0.112,-0.296,1.06,-9.338,22.644,15.381
0.144,-0.338,1.057,-7.935,25.513,12.207
0.143,-0.362,1.039,-9.094,27.405,8.972
0.146,-0.327,1.054,-11.963,29.48,5.554
0.163,-0.318,1.037,-13.733,30.457,3.174
0.174,-0.281,1.043,-15.503,31.494,0.793
0.187,-0.256,1.03,-16.846,31.677,-0.427
0.212,-0.188,1.049,-17.151,31.677,-1.282
0.206,-0.233,0.986,-16.907,31.189,-0.793
0.212,-0.182,1.04,-18.005,34.241,-2.38
0.225,-0.213,0.995,-18.86,35.706,-1.77
0.245,-0.203,1.023,-21.362,39.673,-2.258
0.25,-0.225,0.99,-23.499,41.687,-2.502
0.251,-0.185,1.016,-25.94,44.312,-2.502
0.282,-0.199,1.014,-27.283,45.349,-0.183
0.331,-0.2,1.055,-27.466,45.044,1.892
0.37,-0.228,1.085,-27.1,39.917,5.249
0.377,-0.267,1.071,-27.588,31.494,9.033
0.35,-0.295,1.05,-29.297,23.987,13.184
0.299,-0.319,1.027,-31.372,19.592,16.663
0.255,-0.325,1.0,-32.288,18.921,18.494
0.22,-0.315,0.981,-32.654,21.606,18.982
0.207,-0.318,0.969,-32.166,26.428,18.799
0.217,-0.323,0.974,-30.823,31.128,17.578
0.236,-0.325,0.991,-28.32,33.508,17.273
0.241,-0.324,1.007,-24.475,32.959,17.578
0.251,-0.318,1.038,-20.081,30.701,18.127
0.295,-0.33,1.072,-15.442,26.245,19.409
0.316,-0.337,1.104,-12.085,19.226,20.935
0.321,-0.345,1.127,-9.216,10.742,21.24
0.302,-0.372,1.126,-7.019,2.563,20.508
0.27,-0.392,1.106,-7.08,-2.808,18.311
0.247,-0.384,1.077,-10.071,-3.418,14.832
0.218,-0.337,1.038,-13.367,0.244,9.705
0.181,-0.264,1.013,-16.479,8.423,4.639
0.189,-0.204,1.003,-18.677,18.066,1.526
0.208,-0.155,0.996,-19.531,25.452,0.244
-0.662,-1.55,0.943,53.772,-137.695,6.409
-0.556,-1.854,1.213,6.958,-111.877,4.395
-0.348,-2.051,1.555,-26.794,-97.717,-8.85
-0.17,-2.073,1.948,-35.645,-101.868,-24.353
-0.256,-2.011,2.176,-18.433,-122.925,-37.842
-0.45,-1.94,2.193,9.521,-144.592,-45.776
-0.575,-1.835,2.056,33.325,-145.508,-48.767
-0.687,-1.852,1.906,47.18,-118.774,-58.167
-0.704,-1.911,1.787,46.326,-67.261,-78.064
-0.615,-1.915,1.688,28.992,-1.465,-102.173
-0.449,-1.886,1.606,1.648,65.735,-123.352
-0.231,-1.817,1.516,-27.649,120.483,-137.634
0.031,-1.759,1.424,-52.49,154.236,-145.02
0.238,-1.58,1.39,-68.481,165.039,-152.039
0.419,-1.38,1.328,-75.256,153.809,-154.114
0.511,-1.278,1.153,-72.876,128.296,-149.719
0.506,-1.035,1.097,-69.031,103.882,-141.785
0.541,-0.935,0.982,-62.866,80.139,-121.643
0.561,-0.795,0.902,-56.458,60.425,-98.328
0.543,-0.73,0.818,-49.255,40.527,-70.923
0.489,-0.711,0.763,-43.213,19.47,-40.405
0.368,-0.684,0.738,-37.598,-1.221,-7.446
0.272,-0.654,0.792,-31.616,-20.63,25.513
0.255,-0.594,0.954,-23.926,-44.434,57.068
0.242,-0.668,0.865,-14.16,-81.116,81.543
-0.067,-0.726,0.773,-8.789,-114.136,91.736
-0.401,-0.603,0.8,-9.155,-126.526,93.933
-0.578,-0.683,0.814,-9.033,-116.943,96.191
-0.658,-0.717,0.84,-13.0,-88.806,91.064
-0.61,-0.63,0.937,-23.682,-51.941,82.581
-0.54,-0.55,1.003,-35.095,-19.775,73.73
-0.467,-0.475,1.07,-41.199,3.052,61.707
-0.437,-0.518,1.163,-38.818,16.479,48.706
-0.406,-0.753,1.308,-27.527,22.522,37.231
-0.323,-1.181,1.481,-6.287,22.583,22.705
-0.309,-1.68,1.621,21.729,21.973,1.16
-0.36,-1.975,1.66,46.509,30.884,-23.987
-0.282,-2.028,1.615,58.289,52.063,-45.349
-0.12,-1.849,1.464,49.377,79.834,-59.021
0.054,-1.51,1.288,21.301,108.276,-62.561
0.238,-1.025,1.09,-15.015,128.113,-52.917
0.436,-0.568,0.998,-43.457,130.676,-34.485
0.569,-0.219,1.057,-55.969,109.619,-12.024
0.595,0.021,0.97,-52.429,64.087,13.489
0.397,0.105,0.847,-38.025,11.292,40.405
0.265,0.044,0.842,-20.63,-31.067,64.209
0.052,0.02,0.742,-0.61,-63.721,73.547
-0.127,-0.014,0.766,15.381,-78.064,75.745
-0.216,-0.069,0.687,28.503,-78.369,70.251
-0.375,-0.089,0.681,40.588,-62.378,52.917
-0.465,-0.104,0.761,49.805,-32.349,31.372
-0.432,-0.221,0.792,57.312,2.258,12.329
-0.346,-0.31,0.854,58.105,38.635,-4.517
-0.197,-0.302,0.963,49.927,68.542,-15.137
-0.014,-0.279,1.031,38.208,83.313,-16.052
0.132,-0.24,1.081,25.513,82.336,-11.169
0.207,-0.186,1.099,15.137,68.054,-4.761
0.215,-0.167,1.067,9.277,45.959,2.808
0.168,-0.181,1.039,7.08,25.208,11.719
0.116,-0.216,1.028,6.47,10.376,20.203
0.056,-0.255,1.025,6.531,2.93,25.94
0.019,-0.307,1.02,6.958,1.404,28.564
-0.01,-0.346,1.053,7.263,4.333,28.931
-0.014,-0.431,1.046,7.446,8.789,28.015
-0.041,-0.476,1.071,6.653,15.686,22.949
-0.029,-0.52,1.057,4.944,22.766,16.663
0.001,-0.55,1.081,2.93,30.701,10.132
0.064,-0.564,1.106,0.183,36.926,4.944
0.101,-0.572,1.12,-2.136,38.879,0.366
0.105,-0.556,1.113,-4.089,37.72,-3.296
0.081,-0.526,1.1,-5.432,35.828,-5.737
0.082,-0.496,1.09,-6.042,35.583,-6.897
0.084,-0.458,1.079,-5.066,36.804,-7.69
0.082,-0.434,1.074,-3.235,38.94,-8.545
0.086,-0.424,1.067,-1.587,41.687,-9.766
0.101,-0.426,1.056,-1.221,44.495,-10.925
0.124,-0.416,1.051,-3.967,47.302,-11.169
0.167,-0.413,1.045,-10.132,48.584,-8.118
0.215,-0.396,1.032,-19.653,47.363,-2.808
0.222,-0.341,1.01,-30.945,42.908,2.686
0.199,-0.271,0.99,-40.405,37.292,7.629
0.188,-0.248,0.962,-45.41,32.166,11.78
0.167,-0.254,0.943,-46.875,28.198,13.916
0.153,-0.266,0.927,-46.082,25.33,13.855
0.139,-0.283,0.905,-44.739,24.17,12.39
0.142,-0.298,0.89,-43.396,25.635,10.376
0.162,-0.318,0.885,-42.664,28.198,9.094
0.183,-0.336,0.897,-42.358,31.128,8.606
0.227,-0.356,0.926,-43.213,33.569,11.108
0.27,-0.376,0.971,-44.861,34.058,16.296
0.295,-0.411,1.014,-46.448,31.738,22.949
0.298,-0.453,1.065,-48.34,27.161,29.48
0.292,-0.511,1.093,-51.758,22.217,35.461
0.283,-0.521,1.121,-56.396,19.043,37.781
0.271,-0.562,1.13,-60.303,17.151,36.011
0.242,-0.597,1.112,-63.538,17.151,30.945
0.271,-0.649,1.109,-68.054,20.508,27.527
0.288,-0.675,1.112,-73.059,24.841,25.085
0.276,-0.684,1.068,-79.102,30.823,25.696
0.296,-0.593,1.038,-84.351,38.33,29.602
0.343,-0.485,1.047,-84.229,43.396,34.607
0.394,-0.405,1.075,-77.026,39.429,37.17
0.375,-0.371,1.055,-65.186,27.344,35.95
0.347,-0.364,1.037,-52.002,13.916,32.593
0.327,-0.407,1.036,-39.368,3.235,28.076
0.264,-0.454,1.022,-29.785,-2.197,22.461
0.259,-0.475,1.022,-25.146,0.488,18.921
0.292,-0.443,1.053,-24.536,10.742,16.724
0.351,-0.388,1.067,-25.452,23.926,14.526
0.404,-0.325,1.084,-26.611,37.17,11.353
0.435,-0.24,1.087,-27.466,48.279,9.155
0.493,-0.156,1.104,-27.649,56.091,8.85
0.531,-0.074,1.108,-26.917,58.044,8.911
0.553,-0.074,1.088,-24.658,53.162,8.301
0.551,-0.028,1.101,-22.217,45.837,6.409
0.543,-0.042,1.086,-21.484,37.354,7.019
0.539,-0.036,1.064,-22.4,29.236,8.179
0.509,0.007,1.031,-25.391,24.109,9.216
0.484,0.035,0.971,-27.283,21.423,9.766
-0.292,-1.661,1.331,-74.097,-220.032,36.133
-0.491,-1.889,1.608,-11.169,-211.304,24.658
-0.559,-2.179,1.946,62.012,-185.486,7.812
-0.47,-2.622,2.162,130.005,-146.24,-19.226
-0.428,-3.033,2.191,170.41,-99.426,-66.772
-0.415,-3.189,2.083,168.579,-44.434,-130.249
-0.318,-3.095,1.805,132.996,14.526,-195.435
-0.141,-2.739,1.542,81.482,80.75,-250.732
0.156,-2.246,1.369,29.419,147.888,-284.607
0.52,-1.722,1.327,-10.864,201.66,-292.908
0.861,-1.256,1.308,-34.912,227.112,-280.823
1.128,-0.908,1.304,-43.213,217.773,-253.418
1.278,-0.689,1.304,-40.71,176.331,-215.759
1.259,-0.548,1.28,-30.579,112.244,-172.302
1.085,-0.483,1.236,-15.625,42.236,-126.099
0.835,-0.546,1.178,-2.258,-18.372,-73.242
0.572,-0.723,1.108,3.662,-64.392,-16.968
0.339,-0.891,1.03,-0.488,-95.825,31.555
0.089,-1.015,0.977,-13.489,-113.037,66.956
-0.132,-1.1,0.926,-30.579,-120.422,86.792
-0.323,-1.072,0.86,-48.34,-119.629,91.675
-0.492,-0.97,0.79,-60.059,-110.229,84.167
-0.599,-0.868,0.755,-60.852,-91.858,69.092
-0.622,-0.846,0.764,-50.659,-65.857,50.72
-0.622,-0.92,0.839,-33.02,-35.217,30.518
-0.589,-1.058,1.003,-10.437,-2.93,9.094
-0.467,-1.234,1.203,12.207,30.334,-9.705
-0.33,-1.384,1.356,29.968,60.974,-22.827
-0.15,-1.441,1.479,36.316,85.815,-27.466
0.056,-1.423,1.607,27.71,98.511,-23.315
0.218,-1.299,1.655,5.432,92.529,-11.78
0.297,-1.077,1.632,-22.278,66.589,1.831
0.304,-0.83,1.542,-48.279,28.076,14.893
0.221,-0.614,1.366,-66.345,-13.611,25.452
0.035,-0.418,1.134,-73.364,-45.898,31.799
-0.073,-0.26,0.942,-70.496,-59.57,34.79
-0.08,-0.232,0.928,-58.838,-56.885,35.461
-0.044,-0.182,0.79,-41.687,-47.729,29.724
-0.113,-0.173,0.763,-24.597,-30.579,20.752
-0.064,-0.13,0.827,-12.878,-7.324,14.282
0.032,-0.188,0.878,-2.014,12.329,10.193
0.043,-0.204,0.876,4.517,27.527,5.005
0.089,-0.182,0.981,4.883,41.321,4.944
0.218,-0.214,1.079,3.418,47.302,9.888
0.312,-0.198,1.111,-0.549,40.466,14.465
0.328,-0.168,1.153,-6.714,23.743,18.372
0.254,-0.12,1.114,-13.0,2.869,21.362
0.166,-0.14,1.072,-18.066,-12.634,25.269
0.105,-0.153,1.035,-22.766,-19.226,26.917
0.059,-0.165,1.004,-26.367,-16.602,25.818
0.038,-0.163,0.975,-29.785,-7.874,23.315
0.041,-0.157,0.967,-32.593,4.272,21.301
0.074,-0.145,0.972,-34.546,16.296,21.057
0.117,-0.135,0.984,-35.583,25.208,22.461
0.16,-0.133,1.001,-34.058,29.053,24.353
0.192,-0.161,1.031,-30.273,27.71,26.123
0.187,-0.19,1.06,-25.757,22.827,26.184
0.166,-0.225,1.089,-21.79,16.541,25.33
0.156,-0.269,1.12,-19.226,11.475,24.536
0.137,-0.296,1.133,-19.348,8.789,23.254
0.109,-0.315,1.139,-20.752,9.094,20.813
0.096,-0.313,1.135,-24.109,13.489,17.456
0.11,-0.282,1.134,-28.137,20.813,13.428
0.137,-0.231,1.141,-31.25,28.076,9.583
0.187,-0.193,1.153,-32.471,33.63,7.996
0.227,-0.125,1.148,-32.898,35.95,9.033
0.28,-0.127,1.136,-32.349,34.485,13.245
0.277,-0.135,1.11,-31.555,30.029,17.151
0.218,-0.137,1.058,-32.227,27.222,19.592
0.185,-0.107,1.047,-33.081,27.1,20.874
0.191,-0.078,1.028,-34.241,29.175,20.142
0.235,-0.081,1.035,-35.156,30.457,19.592
0.175,-0.175,0.954,-36.865,30.64,16.541
0.21,-0.038,1.07,-41.931,34.241,10.437
0.275,-0.086,0.996,-43.091,28.625,11.292
0.288,-0.076,1.005,-44.617,22.095,12.085
0.257,-0.074,0.982,-45.349,16.357,14.038
0.227,-0.075,0.958,-44.617,13.062,16.785
0.222,-0.061,0.948,-43.335,13.611,18.433
0.224,-0.076,0.958,-41.26,16.052,19.104
0.233,-0.088,0.972,-38.086,19.043,18.616
0.244,-0.083,0.994,-33.569,20.935,16.907
0.265,-0.103,1.031,-28.442,22.095,15.381
0.279,-0.157,1.078,-21.912,22.583,15.015
0.3,-0.207,1.119,-15.991,23.071,16.541
0.33,-0.268,1.163,-11.475,22.644,19.775
0.341,-0.34,1.201,-8.545,21.179,24.292
0.341,-0.416,1.201,-7.141,18.616,28.687
0.341,-0.46,1.181,-8.362,15.564,31.982
0.33,-0.465,1.151,-11.353,12.085,33.875
0.316,-0.434,1.116,-14.038,7.874,35.156
0.299,-0.367,1.094,-15.259,3.723,36.377
0.283,-0.312,1.068,-14.343,0.244,38.513
0.25,-0.261,1.032,-10.803,-2.686,40.588
0.21,-0.235,0.999,-6.287,-5.005,42.053
0.183,-0.217,0.964,-1.77,-6.042,41.87
0.161,-0.202,0.933,1.77,-6.409,39.063
0.13,-0.18,0.909,4.7,-6.104,33.691
0.097,-0.158,0.888,6.592,-4.578,26.978
0.077,-0.142,0.869,7.751,-0.732,20.264
0.078,-0.129,0.856,7.935,4.7,13.916
0.113,-0.089,0.862,8.545,10.132,7.69
0.196,-0.038,0.878,9.766,13.123,3.54
0.275,-0.015,0.891,11.78,10.315,2.258
0.289,0.004,0.896,13.367,2.991,4.211
0.294,0.019,0.904,13.611,-4.517,10.864
0.305,0.018,0.914,12.085,-11.902,21.851
0.296,-0.003,0.915,9.216,-19.714,31.738
0.274,-0.028,0.906,5.31,-27.588,37.231
0.239,-0.053,0.862,-0.61,-34.241,36.621
0.162,-0.028,0.814,-7.507,-36.865,29.968
0.093,0.035,0.77,-12.817,-32.898,21.301
0.069,0.103,0.759,-14.832,-23.315,14.099
0.077,0.156,0.766,-12.939,-11.963,9.705
0.12,0.169,0.815,-7.202,-3.235,8.362
0.167,0.157,0.883,0.0,1.587,9.583
0.201,0.119,0.965,5.127,2.808,13.367
0.25,0.062,1.048,6.714,1.648,19.47
0.255,0.023,1.092,3.784,-2.686,23.926
-0.521,-1.165,1.57,-25.208,-237.732,44.006
-0.696,-1.313,1.602,3.235,-218.75,21.973
-0.835,-1.428,1.717,39.734,-179.871,-8.911
-0.952,-1.532,1.833,79.712,-127.869,-45.166
-0.932,-1.744,1.904,117.798,-70.068,-79.102
-0.781,-2.02,1.972,144.531,-13.0,-111.206
-0.521,-2.249,2.007,151.978,34.851,-148.56
-0.309,-2.303,1.951,137.085,72.51,-191.772
-0.073,-2.182,1.843,104.126,103.943,-229.919
0.217,-2.004,1.661,62.134,129.639,-251.465
0.488,-1.721,1.504,21.118,147.583,-255.005
0.745,-1.384,1.387,-9.033,149.353,-238.281
0.92,-1.018,1.288,-25.208,127.625,-199.951
0.942,-0.614,1.248,-29.846,83.618,-143.982
0.833,-0.309,1.248,-22.766,21.912,-75.5
0.619,-0.285,1.24,-7.996,-48.889,-1.953
0.389,-0.548,1.179,6.287,-118.103,67.139
0.076,-0.901,1.149,10.498,-176.147,123.779
-0.253,-1.044,1.106,1.404,-215.576,164.551
-0.536,-1.034,1.074,-16.235,-233.215,188.293
-0.815,-0.891,1.019,-34.668,-229.126,187.195
-1.013,-0.698,0.927,-45.166,-205.139,161.133
-1.072,-0.523,0.848,-46.326,-163.025,115.967
-1.057,-0.386,0.82,-39.734,-108.276,60.303
-0.952,-0.304,0.883,-27.832,-44.067,3.052
-0.724,-0.416,1.032,-10.498,18.311,-45.776
-0.468,-0.654,1.275,10.193,66.101,-83.74
-0.282,-0.923,1.546,29.541,93.628,-108.215
-0.164,-1.13,1.722,42.48,106.995,-116.882
-0.056,-1.224,1.801,44.739,111.206,-106.323
0.089,-1.177,1.797,32.104,105.103,-77.82
0.213,-1.059,1.743,9.583,85.388,-39.185
0.21,-0.816,1.613,-16.724,51.514,-1.526
0.118,-0.554,1.432,-36.743,10.193,29.846
-0.044,-0.378,1.201,-45.227,-28.931,55.176
-0.195,-0.242,1.101,-42.48,-57.861,73.792
-0.417,-0.065,0.945,-30.518,-72.388,81.482
-0.458,-0.031,0.886,-14.526,-70.313,80.75
-0.583,0.017,0.709,4.211,-58.838,68.176
-0.576,0.011,0.833,20.325,-25.452,50.781
-0.489,-0.098,0.835,35.706,7.202,27.71
-0.325,-0.112,1.026,42.603,38.879,6.348
-0.164,-0.141,1.101,41.26,54.871,-5.127
-0.098,-0.157,1.17,34.302,58.411,-9.399
-0.041,-0.121,1.241,23.193,53.955,-7.996
-0.022,-0.16,1.195,13.428,40.771,-1.709
-0.072,-0.137,1.146,1.77,28.015,4.272
-0.14,-0.062,1.09,-7.324,18.86,7.385
-0.167,-0.021,1.028,-10.559,14.16,9.033
-0.156,-0.023,0.978,-9.949,13.489,9.583
-0.143,-0.029,0.936,-7.69,14.771,8.24
-0.137,-0.007,0.906,-5.31,15.808,5.859
-0.135,-0.007,0.889,-2.319,16.541,4.15
-0.143,-0.043,0.877,1.343,18.677,2.808
-0.126,-0.069,0.888,3.784,21.912,2.502
-0.077,-0.097,0.946,4.456,24.841,3.906
-0.048,-0.155,0.999,3.723,24.353,5.92
-0.019,-0.207,1.034,0.305,20.813,8.24
-0.03,-0.233,1.04,-5.432,15.259,8.911
-0.076,-0.221,1.029,-11.169,10.376,7.08
-0.122,-0.202,1.001,-14.832,9.216,3.784
-0.136,-0.195,0.976,-16.235,13.123,-1.099
-0.129,-0.181,0.971,-15.991,20.691,-6.592
-0.079,-0.168,0.99,-14.099,28.32,-11.353
-0.032,-0.171,1.0,-11.047,32.898,-15.32
-0.027,-0.175,1.009,-7.568,34.546,-18.677
-0.061,-0.195,1.008,-4.333,36.133,-21.057
-0.055,-0.226,1.049,-2.38,38.757,-20.935
-0.106,-0.33,1.008,-1.77,41.87,-20.142
-0.093,-0.352,1.025,-7.69,50.232,-19.714
-0.068,-0.331,1.034,-15.381,56.274,-18.127
-0.01,-0.297,1.029,-24.414,59.143,-16.541
0.029,-0.229,1.026,-30.396,54.565,-14.099
0.017,-0.17,0.99,-33.569,45.776,-12.268
-0.011,-0.104,0.964,-33.203,37.109,-10.315
-0.045,-0.064,0.948,-29.602,31.494,-9.521
-0.057,-0.057,0.963,-23.499,29.724,-9.888
-0.045,-0.096,0.984,-17.761,30.151,-10.315
-0.03,-0.123,0.996,-14.709,32.776,-12.39
-0.014,-0.119,1.024,-15.32,36.987,-15.869
0.004,-0.093,1.067,-17.761,40.344,-19.165
0.024,-0.086,1.096,-19.226,42.053,-20.752
0.032,-0.122,1.094,-21.057,42.664,-20.386
0.035,-0.134,1.093,-25.391,42.969,-18.921
0.042,-0.122,1.085,-30.884,42.725,-17.151
0.042,-0.113,1.068,-36.133,42.236,-14.465
0.064,-0.105,1.042,-39.551,40.71,-11.047
0.07,-0.059,1.012,-40.466,38.025,-9.155
0.062,-0.033,0.99,-39.124,34.363,-7.507
0.03,-0.011,0.978,-34.912,32.104,-7.141
0.048,0.005,1.0,-29.236,32.837,-6.958
0.087,-0.001,1.033,-24.048,34.18,-5.737
0.103,-0.026,1.064,-20.508,32.776,-4.211
0.115,-0.054,1.095,-19.958,29.419,-1.16
0.126,-0.063,1.109,-21.912,23.437,4.089
0.109,-0.049,1.098,-24.109,14.282,8.972
0.072,-0.017,1.064,-25.146,4.944,11.292
0.031,0.016,1.024,-24.536,-2.258,11.353
-0.007,0.038,0.995,-21.484,-5.493,8.972
-0.024,0.043,0.969,-17.029,-4.15,4.639
-0.027,0.05,0.948,-12.939,0.366,-0.549
-0.02,0.048,0.932,-9.766,6.592,-5.615
-0.014,0.017,0.918,-8.057,12.817,-11.292
-0.015,-0.008,0.898,-8.85,19.348,-16.846
0.017,0.014,0.878,-11.536,26.55,-20.752
0.082,0.093,0.887,-14.893,31.677,-21.729
0.148,0.181,0.905,-16.174,30.762,-19.775
0.198,0.24,0.898,-13.794,23.437,-15.015
0.224,0.276,0.897,-10.071,11.658,-7.568
0.204,0.285,0.9,-4.761,-2.197,0.916
0.147,0.244,0.878,0.732,-13.916,10.559
0.091,0.204,0.873,4.395,-20.996,18.982
0.048,0.151,0.88,7.141,-22.766,24.048
0.013,0.088,0.903,9.033,-21.179,24.292
-0.044,0.004,0.932,8.972,-17.029,20.996
-0.035,-0.062,0.972,5.981,-9.583,16.846
0.009,-0.086,1.002,0.854,-3.113,12.146
0.051,-0.082,1.015,-3.723,-0.183,5.859
0.079,-0.094,1.012,-5.676,-0.427,-0.305
-0.654,-1.157,1.552,-9.155,-151.611,42.603
-0.555,-1.298,1.76,-19.775,-128.845,26.917
-0.449,-1.461,1.986,-16.479,-119.385,12.024
-0.46,-1.658,2.155,5.859,-121.521,-4.089
-0.47,-1.747,2.314,41.26,-125.305,-23.56
-0.454,-1.749,2.397,79.712,-120.728,-46.631
-0.508,-1.787,2.354,109.924,-102.478,-75.928
-0.525,-1.932,2.25,121.46,-67.2,-108.215
-0.552,-2.123,2.071,113.525,-16.602,-139.16
-0.515,-2.208,1.889,88.989,44.556,-169.922
-0.367,-2.268,1.671,54.321,108.276,-199.402
-0.147,-2.256,1.422,15.991,162.354,-227.478
0.111,-2.033,1.179,-18.982,202.698,-254.639
0.381,-1.702,1.012,-42.358,229.126,-278.137
0.672,-1.37,0.889,-51.88,243.469,-289.734
0.97,-1.1,0.82,-49.011,244.751,-282.898
1.172,-0.806,0.849,-38.818,228.271,-257.996
1.231,-0.445,0.972,-23.621,191.895,-213.989
1.138,-0.214,1.071,-3.052,135.681,-147.583
0.91,-0.203,1.091,18.738,68.176,-65.857
0.7,-0.413,1.032,35.217,1.099,19.714
0.467,-0.649,1.037,41.809,-58.96,92.346
0.289,-0.858,1.035,40.283,-112.366,140.808
-0.005,-1.024,0.938,33.203,-155.396,162.476
-0.334,-1.037,0.893,19.47,-179.504,161.743
-0.569,-0.984,0.79,6.226,-188.477,147.705
-0.75,-0.929,0.688,-5.249,-177.612,125.61
-0.866,-0.838,0.634,-12.573,-147.949,96.558
-0.875,-0.737,0.629,-14.954,-103.943,63.66
-0.813,-0.663,0.663,-13.55,-50.415,31.982
-0.63,-0.647,0.769,-10.559,5.066,7.446
-0.415,-0.646,0.923,-7.568,53.101,-7.69
-0.165,-0.703,1.144,-3.052,86.548,-16.174
0.077,-0.884,1.396,2.93,100.769,-19.409
0.241,-1.137,1.576,10.193,96.069,-21.545
0.294,-1.411,1.639,18.982,80.322,-25.146
0.26,-1.54,1.623,21.606,63.354,-27.649
0.198,-1.453,1.515,13.489,51.025,-23.56
0.153,-1.219,1.358,-1.465,44.495,-10.925
0.145,-1.007,1.135,-16.113,41.382,6.348
0.189,-0.705,1.211,-25.391,38.757,23.926
0.183,-0.524,1.023,-25.513,23.071,38.208
0.186,-0.343,1.144,-21.973,5.005,46.143
0.115,-0.215,0.971,-12.207,-25.635,53.589
-0.063,-0.172,0.939,-2.136,-43.152,59.021
-0.125,-0.236,0.968,7.507,-50.659,59.326
-0.174,-0.266,0.953,14.343,-50.415,50.72
-0.177,-0.258,0.953,14.465,-40.955,39.246
-0.217,-0.247,0.922,9.888,-23.621,26.123
-0.175,-0.211,1.006,2.197,0.793,13.855
-0.068,-0.212,1.0,-4.883,20.813,4.211
0.011,-0.154,1.047,-11.902,38.391,-5.981
0.112,-0.084,1.064,-15.503,47.363,-14.954
0.165,-0.062,1.022,-14.526,46.997,-20.935
0.191,-0.033,1.021,-12.146,44.189,-24.719
0.236,-0.024,1.008,-7.568,38.696,-25.94
0.25,-0.034,0.995,-0.916,31.494,-25.513
0.261,-0.053,1.016,5.127,23.987,-22.766
0.27,-0.096,1.035,9.949,16.479,-16.846
0.271,-0.134,1.05,12.939,9.033,-7.996
0.263,-0.17,1.066,14.038,2.258,1.404
0.214,-0.212,1.048,14.526,-3.479,9.399
0.174,-0.239,1.066,13.733,-6.897,13.916
0.125,-0.294,1.043,11.902,-8.179,15.564
0.08,-0.329,1.048,8.545,-5.676,14.099
0.073,-0.342,1.03,5.127,-1.77,10.559
0.068,-0.372,1.018,2.258,3.174,5.798
0.064,-0.392,1.001,-0.061,9.155,-0.732
0.077,-0.371,1.012,-2.014,16.296,-7.141
0.094,-0.383,0.997,-3.418,22.522,-12.085
0.113,-0.383,1.003,-4.822,29.053,-15.442
0.173,-0.383,1.009,-7.019,34.363,-16.052
0.237,-0.35,1.013,-10.132,35.4,-14.709
0.274,-0.299,1.016,-12.878,30.945,-11.78
0.278,-0.245,1.002,-14.526,22.644,-7.202
0.249,-0.203,0.97,-14.465,12.268,-2.136
0.199,-0.176,0.93,-12.878,3.174,3.601
0.142,-0.166,0.896,-10.132,-2.075,8.24
0.095,-0.162,0.869,-7.69,-3.235,10.864
0.078,-0.16,0.861,-5.615,-1.892,11.169
0.085,-0.157,0.874,-4.15,0.061,10.193
0.083,-0.167,0.882,-2.686,0.854,8.545
0.078,-0.176,0.884,-2.136,1.099,6.47
0.068,-0.194,0.886,-2.563,2.38,5.005
0.081,-0.191,0.884,-4.272,5.005,3.113
0.089,-0.192,0.883,-6.226,8.301,0.244
0.109,-0.195,0.887,-7.874,12.329,-2.747
0.139,-0.205,0.898,-9.521,14.954,-4.7
0.185,-0.195,0.912,-11.719,15.198,-5.005
0.216,-0.173,0.92,-12.878,12.634,-3.601
0.232,-0.166,0.926,-12.756,7.812,-1.587
0.232,-0.18,0.933,-11.78,2.258,1.343
0.222,-0.216,0.929,-9.827,-2.808,4.211
0.194,-0.243,0.926,-7.874,-5.859,5.249
0.172,-0.291,0.926,-6.592,-6.714,5.859
0.152,-0.339,0.945,-7.019,-4.211,5.737
0.145,-0.378,0.96,-8.972,-0.305,5.371
0.149,-0.394,0.988,-12.024,4.028,4.761
0.154,-0.414,1.0,-15.137,7.629,3.479
0.172,-0.427,0.999,-18.433,9.521,2.014
0.18,-0.402,1.005,-22.095,9.766,0.549
0.187,-0.382,1.017,-24.841,8.667,-0.366
0.201,-0.391,1.014,-24.78,7.08,-1.038
0.209,-0.401,1.016,-23.926,5.371,-0.854
0.214,-0.407,1.027,-23.071,4.395,-0.671
0.23,-0.454,1.031,-20.203,4.028,-0.061
0.258,-0.538,1.029,-18.127,3.54,2.869
0.269,-0.556,1.047,-21.24,3.052,7.507
0.251,-0.548,1.078,-24.353,2.197,12.085
0.23,-0.567,1.092,-25.879,0.854,16.724
0.203,-0.608,1.086,-26.978,0.671,20.325
0.187,-0.632,1.066,-28.076,2.014,21.667
0.187,-0.631,1.052,-28.625,5.371,21.667
0.196,-0.641,1.037,-28.625,8.972,21.79
0.197,-0.64,1.017,-27.466,11.841,21.545
0.201,-0.59,1.017,-26.917,13.977,22.095
0.218,-0.564,1.014,-26.855,14.282,23.743
0.223,-0.529,1.009,-27.222,12.817,25.757
0.214,-0.458,1.005,-26.978,10.437,27.893
0.057,-0.874,1.695,33.081,-105.286,-21.118
-0.069,-1.0,1.622,17.883,-115.356,-31.677
-0.18,-1.089,1.524,9.155,-119.507,-45.898
-0.275,-1.106,1.511,8.606,-113.708,-63.66
-0.266,-1.339,1.491,14.771,-100.342,-74.829
-0.258,-1.583,1.568,21.606,-75.806,-81.482
-0.175,-1.678,1.66,26.184,-46.448,-82.703
-0.044,-1.728,1.681,30.273,-22.705,-78.308
0.105,-1.705,1.709,34.668,-4.7,-80.75
0.188,-1.739,1.629,41.138,4.028,-93.262
0.179,-1.741,1.587,45.288,12.268,-114.258
0.209,-1.671,1.541,46.326,21.057,-134.155
0.286,-1.617,1.475,45.715,29.663,-144.958
0.425,-1.498,1.44,41.321,37.659,-147.522
0.589,-1.422,1.381,35.339,39.124,-140.991
0.703,-1.352,1.319,25.452,31.006,-126.099
0.76,-1.271,1.242,12.756,12.573,-101.257
0.759,-1.171,1.17,2.441,-17.09,-65.857
0.66,-0.954,1.19,-1.16,-54.81,-26.001
0.493,-0.769,1.229,7.874,-100.525,15.503
0.255,-0.684,1.25,25.94,-147.583,56.763
-0.013,-0.691,1.231,45.532,-189.575,88.623
-0.296,-0.762,1.182,60.425,-216.919,102.539
-0.613,-0.891,1.136,66.711,-220.886,94.543
-0.866,-0.986,1.103,62.134,-198.059,67.993
-1.034,-1.073,1.136,50.842,-150.391,29.419
-1.041,-1.25,1.233,37.72,-86.548,-13.794
-0.899,-1.37,1.294,24.658,-14.954,-61.523
-0.637,-1.452,1.284,11.169,54.321,-103.333
-0.327,-1.472,1.228,-3.296,109.802,-127.014
-0.006,-1.346,1.191,-19.409,142.09,-127.38
0.24,-1.119,1.16,-35.217,147.156,-107.361
0.419,-0.874,1.148,-47.424,125.977,-71.106
0.48,-0.717,1.081,-53.223,81.848,-23.071
0.468,-0.644,1.019,-52.979,21.118,27.283
0.357,-0.385,1.172,-49.255,-40.894,68.848
0.107,-0.435,0.647,-39.063,-104.675,101.868
-0.222,-0.269,0.973,-27.039,-134.583,110.229
-0.374,-0.091,0.666,-13.611,-163.208,110.352
-0.618,-0.3,0.606,6.104,-163.269,107.544
-0.727,-0.228,0.757,17.334,-127.075,83.557
-0.775,-0.251,0.798,29.419,-89.417,58.167
-0.642,-0.341,0.832,31.921,-39.917,41.504
-0.591,-0.375,0.869,28.564,8.911,21.973
-0.469,-0.311,0.985,21.423,54.932,5.188
-0.208,-0.35,1.011,15.747,83.191,-2.93
-0.015,-0.358,1.074,9.521,95.215,-9.155
0.079,-0.333,1.139,2.197,90.515,-14.343
0.137,-0.334,1.124,-4.211,70.923,-14.893
0.119,-0.333,1.063,-9.521,46.143,-11.658
0.04,-0.276,1.0,-13.428,24.292,-6.592
-0.071,-0.24,0.937,-13.672,10.254,-1.343
-0.114,-0.245,0.925,-10.01,5.432,3.662
-0.093,-0.264,0.969,-3.784,6.47,5.798
-0.045,-0.329,0.974,2.38,6.409,6.409
-0.065,-0.344,1.019,5.005,5.005,7.385
-0.109,-0.389,0.992,5.798,3.54,9.949
-0.162,-0.419,1.003,4.517,6.958,11.108
-0.165,-0.46,1.002,2.014,14.282,10.925
-0.152,-0.492,1.014,-3.418,22.034,9.521
-0.144,-0.498,1.017,-10.193,27.283,7.629
-0.104,-0.493,1.008,-16.602,28.931,6.836
-0.06,-0.484,0.97,-21.912,25.452,7.263
-0.126,-0.45,0.888,-26.001,20.447,7.019
-0.184,-0.366,0.853,-27.222,20.63,7.751
-0.183,-0.315,0.838,-25.146,23.071,10.376
-0.147,-0.283,0.842,-20.508,24.353,13.489
-0.164,-0.277,0.823,-15.015,23.132,15.137
-0.182,-0.277,0.847,-9.399,22.156,15.869
-0.162,-0.305,0.847,-5.188,19.653,16.968
-0.16,-0.314,0.866,-2.93,16.663,16.785
-0.157,-0.318,0.885,-2.441,13.977,15.198
-0.172,-0.314,0.873,-3.723,12.024,13.306
-0.183,-0.295,0.881,-6.165,12.268,12.573
-0.187,-0.275,0.883,-8.24,13.489,13.245
-0.179,-0.258,0.891,-9.46,15.564,13.245
-0.158,-0.256,0.9,-9.766,17.273,12.268
-0.154,-0.26,0.91,-9.399,18.677,9.644
-0.134,-0.278,0.903,-9.033,20.386,6.409
-0.111,-0.297,0.901,-9.277,22.217,3.113
-0.094,-0.303,0.907,-10.437,24.414,0.488
-0.073,-0.311,0.902,-11.902,26.001,0.427
-0.052,-0.307,0.912,-13.611,28.381,1.221
-0.019,-0.305,0.916,-14.832,28.87,2.686
0.01,-0.307,0.927,-14.648,26.367,4.15
0.01,-0.333,0.913,-13.916,21.667,5.615
-0.002,-0.346,0.9,-13.794,16.785,7.69
-0.03,-0.335,0.893,-15.015,13.733,9.705
-0.05,-0.322,0.878,-16.113,13.306,12.329
-0.053,-0.314,0.862,-16.052,14.343,14.465
-0.046,-0.301,0.855,-14.771,15.076,15.198
-0.023,-0.292,0.858,-12.39,13.733,15.137
-0.003,-0.286,0.867,-9.277,9.827,15.137
-0.007,-0.277,0.869,-6.409,4.883,15.686
-0.025,-0.283,0.882,-5.005,0.977,17.822
-0.047,-0.255,0.91,-5.005,-0.854,21.545
-0.047,-0.243,0.926,-5.615,-1.221,25.757
-0.07,-0.256,0.924,-6.287,-1.221,27.222
-0.081,-0.25,0.949,-7.385,-0.549,25.513
-0.094,-0.232,0.955,-8.118,-0.549,22.4
-0.087,-0.23,0.95,-9.521,-0.488,20.508
-0.099,-0.221,0.943,-9.46,0.0,17.151
-0.104,-0.196,0.96,-8.423,1.77,13.0
-0.095,-0.202,0.959,-6.409,3.235,8.85
-0.102,-0.209,0.962,-4.272,5.798,4.089
-0.097,-0.206,0.972,-2.625,9.216,-0.732
-0.079,-0.231,0.994,-1.526,12.695,-3.845
-0.064,-0.27,1.017,-1.831,15.076,-5.676
-0.032,-0.29,1.031,-4.15,16.296,-5.249
-0.012,-0.275,1.038,-7.935,16.174,-3.662
-0.001,-0.244,1.048,-11.292,14.709,-3.357
-0.012,-0.226,1.044,-12.085,12.512,-4.883
-0.031,-0.211,1.022,-12.024,12.207,-8.057
-0.042,-0.229,0.996,-10.803,14.771,-11.23
-0.021,-0.264,0.987,-9.46,19.165,-13.184
0.017,-0.291,1.001,-9.216,22.827,-13.855
0.033,-0.296,1.019,-10.742,24.536,-14.221
0.043,-0.296,1.025,-13.062,25.391,-14.771
0.041,-0.283,1.029,-16.113,26.733,-15.076
0.082,-1.386,1.783,-9.338,-142.944,64.941
0.05,-1.507,2.147,34.302,-143.311,78.613
0.095,-1.664,2.437,96.13,-137.39,78.796
0.017,-1.818,2.567,159.973,-135.559,57.861
-0.161,-2.05,2.63,207.703,-130.005,19.287
-0.272,-2.363,2.598,223.816,-111.633,-18.25
-0.276,-2.57,2.582,208.008,-76.904,-47.729
-0.204,-2.536,2.557,173.035,-35.278,-70.19
-0.092,-2.555,2.352,131.165,1.221,-90.515
-0.037,-2.499,2.079,85.327,34.302,-119.202
0.088,-2.26,1.789,39.856,64.575,-154.297
0.251,-1.912,1.541,3.052,94.666,-193.848
0.509,-1.624,1.372,-23.071,126.343,-225.464
0.775,-1.41,1.23,-39.551,151.367,-239.502
0.983,-1.198,1.184,-52.795,165.344,-231.506
1.133,-0.958,1.189,-63.599,160.217,-197.266
1.183,-0.742,1.163,-69.58,131.47,-140.869
1.151,-0.553,1.164,-68.542,80.322,-73.547
0.977,-0.504,1.063,-59.326,10.132,-5.371
0.703,-0.593,0.945,-45.166,-64.697,54.382
0.354,-0.783,0.732,-30.945,-131.592,102.173
-0.035,-0.876,0.548,-20.447,-177.795,132.141
-0.376,-0.872,0.406,-13.184,-197.571,145.386
-0.542,-0.832,0.362,-5.066,-193.298,145.081
-0.777,-0.821,0.254,5.554,-172.119,129.517
-0.903,-0.676,0.401,13.123,-132.141,102.539
-0.794,-0.689,0.515,24.902,-87.646,76.843
-0.66,-0.733,0.649,34.546,-46.326,51.636
-0.486,-0.69,0.861,34.973,-14.404,28.015
-0.296,-0.694,0.997,32.959,3.54,10.864
-0.155,-0.675,1.107,26.55,10.437,-0.916
-0.108,-0.616,1.155,18.738,8.118,-8.728
-0.086,-0.567,1.167,13.367,1.77,-11.902
-0.055,-0.551,1.152,11.475,-4.028,-10.864
-0.029,-0.564,1.128,11.23,-8.606,-7.324
-0.025,-0.548,1.11,10.498,-11.597,-1.892
-0.03,-0.49,1.134,9.705,-12.085,4.333
-0.072,-0.557,0.993,11.597,-12.024,9.583
-0.054,-0.443,1.128,12.573,-7.874,10.315
-0.097,-0.541,1.02,16.479,-7.812,12.695
-0.068,-0.5,1.071,16.479,-4.578,11.047
-0.195,-0.501,1.028,16.724,-2.93,12.268
-0.138,-0.586,1.103,14.404,4.761,17.7
-0.13,-0.608,1.138,13.855,10.925,15.991
-0.106,-0.571,1.242,8.545,10.559,14.343
-0.117,-0.551,1.234,3.296,2.563,12.085
-0.163,-0.524,1.172,0.305,-5.249,7.874
-0.237,-0.484,1.128,-0.671,-5.859,1.77
-0.189,-0.468,1.105,1.587,1.953,-4.272
-0.123,-0.503,1.049,6.531,12.024,-10.132
-0.104,-0.466,1.111,10.559,23.071,-16.296
-0.032,-0.52,1.078,15.32,31.128,-18.555
-0.014,-0.512,1.136,18.433,37.292,-18.25
0.011,-0.534,1.126,19.104,39.673,-14.709
0.009,-0.534,1.148,18.738,40.222,-9.827
0.031,-0.549,1.153,17.334,39.307,-4.883
0.045,-0.556,1.174,15.259,35.828,-1.831
0.038,-0.55,1.157,10.986,29.602,1.099
0.006,-0.478,1.143,5.371,21.912,3.235
-0.054,-0.422,1.077,1.587,14.038,5.371
-0.084,-0.361,1.039,-0.183,9.705,6.226
-0.082,-0.336,1.003,0.977,6.714,6.47
-0.07,-0.314,0.999,2.991,3.601,6.531
-0.067,-0.314,0.973,5.066,-0.061,7.263
-0.08,-0.304,0.948,6.348,-2.625,7.996
-0.085,-0.294,0.924,7.263,-3.052,9.521
-0.076,-0.307,0.921,7.935,-1.953,10.376
-0.068,-0.342,0.925,8.118,-0.488,11.23
-0.047,-0.352,0.943,6.653,0.793,12.39
-0.041,-0.358,0.945,4.028,0.305,12.878
-0.049,-0.352,0.934,1.77,-0.916,12.329
-0.068,-0.346,0.91,-0.183,-0.916,11.353
-0.089,-0.32,0.884,-1.648,1.465,9.399
-0.091,-0.293,0.875,-1.648,6.287,6.958
-0.064,-0.283,0.882,0.122,11.23,4.7
-0.031,-0.271,0.906,2.502,13.55,2.38
-0.019,-0.272,0.92,5.249,11.658,0.854
-0.024,-0.282,0.929,8.423,7.446,0.854
-0.039,-0.31,0.939,10.864,3.052,1.831
-0.047,-0.354,0.952,11.597,0.366,3.235
-0.061,-0.403,0.959,9.399,-0.122,4.517
-0.074,-0.433,0.978,4.822,1.648,4.639
-0.077,-0.45,0.981,-1.221,5.31,3.845
-0.063,-0.434,0.981,-7.385,9.46,2.075
-0.04,-0.398,0.978,-12.39,11.841,0.244
-0.019,-0.371,0.971,-14.404,11.597,-1.343
-0.004,-0.364,0.96,-14.648,9.583,-2.441
0.005,-0.374,0.938,-13.306,7.019,-2.625
0.006,-0.387,0.922,-12.512,5.798,-1.709
0.004,-0.396,0.907,-12.39,5.859,-0.305
0.0,-0.392,0.898,-12.573,6.409,0.793
-0.002,-0.383,0.885,-12.573,6.531,2.014
-0.011,-0.373,0.876,-12.329,5.676,3.296
-0.021,-0.37,0.866,-11.841,4.089,5.066
-0.042,-0.371,0.85,-11.292,2.197,7.202
-0.055,-0.364,0.835,-11.047,0.549,8.606
-0.066,-0.358,0.819,-10.193,-0.916,9.033
-0.075,-0.35,0.812,-8.606,-1.709,8.179
-0.07,-0.345,0.812,-7.141,-1.16,6.958
-0.061,-0.346,0.816,-5.188,-0.854,5.31
-0.041,-0.345,0.828,-3.662,-0.427,3.784
-0.017,-0.344,0.849,-3.113,0.0,3.357
-0.002,-0.354,0.863,-3.113,0.183,3.967
-0.002,-0.371,0.874,-3.906,0.549,4.944
-0.01,-0.377,0.884,-6.592,2.014,5.859
-0.001,-0.347,0.904,-9.583,4.883,7.263
0.012,-0.337,0.905,-12.329,7.935,7.996
0.045,-0.321,0.927,-14.16,9.033,8.118
0.047,-0.315,0.912,-14.709,6.47,7.507
0.007,-0.296,0.908,-15.381,4.395,5.127
0.005,-0.284,0.909,-14.893,3.601,3.479
0.012,-0.286,0.913,-12.939,3.479,2.197
0.007,-0.312,0.907,-11.475,3.906,1.099
-0.001,-0.332,0.926,-10.559,5.371,0.427
0.006,-0.343,0.948,-10.62,7.996,0.183
0.023,-0.354,0.963,-10.681,9.766,0.488
0.029,-0.344,0.98,-11.047,9.644,0.366
0.027,-0.33,1.007,-10.559,8.057,-0.061
0.022,-0.372,1.016,-8.911,6.226,-0.244
0.869,0.891,1.216,68.542,-12.756,27.039
1.022,0.769,1.442,52.673,-17.395,39.49
1.075,0.657,1.532,27.283,-35.645,50.293
1.003,0.608,1.511,-3.235,-64.453,56.824
0.831,0.624,1.403,-32.471,-95.886,61.523
0.636,0.659,1.212,-51.086,-123.718,65.491
0.429,0.618,1.018,-54.871,-144.043,64.758
0.273,0.597,0.875,-44.495,-154.907,56.885
0.11,0.361,0.742,-20.813,-157.41,45.532
0.044,0.1,0.772,9.827,-149.536,26.367
0.056,-0.408,0.946,41.87,-135.071,9.094
0.091,-0.988,1.18,59.448,-111.694,9.705
0.313,-1.418,1.484,52.612,-81.482,32.837
0.627,-1.737,1.749,35.461,-62.927,52.002
0.775,-1.92,1.844,20.081,-68.542,40.405
0.66,-2.075,1.76,10.254,-90.82,1.831
0.451,-2.024,1.607,5.493,-105.286,-50.903
0.282,-1.914,1.4,9.766,-93.689,-107.361
0.316,-1.852,1.22,21.301,-52.612,-158.02
0.495,-1.88,1.073,35.339,2.502,-199.036
0.809,-1.808,1.022,41.199,55.725,-223.938
1.187,-1.539,1.049,39.978,89.417,-227.173
1.424,-1.249,1.057,40.771,92.285,-208.557
1.462,-0.937,1.039,48.157,68.176,-174.194
1.587,-0.597,1.224,61.157,28.87,-128.906
1.047,-1.144,0.655,79.834,-8.179,-88.745
1.411,-0.097,1.638,78.552,-26.55,-70.435
0.826,-1.125,0.345,111.511,-112.305,-17.761
1.001,-0.609,1.619,78.064,-125.549,13.184
0.655,-0.92,0.767,73.853,-166.443,28.687
0.315,-1.019,0.762,60.73,-189.209,44.434
-0.056,-0.983,0.61,34.119,-182.739,46.387
-0.506,-1.123,0.366,23.987,-150.94,37.659
-0.775,-1.313,0.309,10.925,-88.196,21.729
-1.041,-2.273,-0.437,1.587,-2.808,-13.367
-0.664,0.144,1.607,-24.048,128.113,-93.933
-0.034,-1.112,0.899,-3.906,142.151,-70.313
0.878,-1.248,1.336,12.817,122.864,-35.034
1.015,-1.826,0.988,33.081,64.27,-31.921
0.735,-1.719,1.004,24.658,18.799,-36.377
0.45,-1.549,0.782,10.681,-2.258,-30.151
0.258,-1.305,0.665,2.197,12.939,-18.677
0.349,-0.923,0.863,1.465,48.828,-11.23
0.663,-0.678,0.905,12.146,64.575,-0.427
0.8,-0.768,0.856,27.527,39.917,19.287
0.628,-0.562,0.949,30.823,6.897,30.212
0.443,-0.554,0.917,36.743,-30.762,42.603
0.325,-0.573,0.927,40.1,-60.059,52.551
0.113,-0.622,0.886,40.894,-77.209,51.208
-0.003,-0.623,0.918,37.903,-73.914,41.504
0.0,-0.633,0.953,33.447,-53.894,29.968
0.089,-0.667,1.008,28.32,-24.78,15.503
0.272,-0.676,1.073,19.958,6.348,2.197
0.415,-0.684,1.09,7.629,28.931,-4.028
0.515,-0.616,1.071,-5.432,38.635,-5.981
0.553,-0.508,1.048,-15.32,37.537,-5.005
0.542,-0.43,0.998,-19.47,28.992,-1.77
0.525,-0.382,0.924,-18.311,17.273,2.625
0.52,-0.323,0.84,-15.381,6.897,8.057
0.507,-0.23,0.799,-13.184,-0.427,15.259
0.495,-0.13,0.807,-8.484,-5.371,22.217
0.466,-0.076,0.859,1.465,-8.972,27.1
0.441,-0.119,0.924,13.489,-11.597,30.334
0.406,-0.211,0.971,23.987,-13.489,31.25
0.397,-0.337,1.06,28.748,-13.489,29.297
0.412,-0.496,1.143,26.184,-12.024,27.71
0.402,-0.603,1.181,16.235,-10.376,24.963
0.359,-0.638,1.183,1.831,-8.057,18.311
0.317,-0.625,1.153,-13.611,-2.93,10.193
0.299,-0.582,1.096,-27.893,6.042,2.991
0.327,-0.494,1.047,-38.33,17.029,-2.014
0.398,-0.391,1.024,-42.847,25.146,-2.93
0.462,-0.316,1.009,-40.955,26.489,0.0
0.482,-0.28,0.996,-34.119,20.63,5.249
0.487,-0.265,0.989,-24.597,10.01,12.085
0.43,-0.266,0.98,-14.648,-2.625,19.043
0.347,-0.287,0.975,-6.226,-12.512,24.658
0.276,-0.317,0.973,-0.671,-18.25,27.588
0.202,-0.331,0.973,1.526,-20.203,26.733
0.156,-0.333,0.969,0.977,-18.677,22.461
0.154,-0.331,0.978,-1.709,-15.137,15.869
0.164,-0.299,0.987,-6.042,-11.536,11.108
0.219,-0.24,0.985,-11.658,-8.789,11.047
0.25,-0.179,0.982,-15.808,-8.85,12.756
0.246,-0.152,0.967,-16.846,-11.719,13.611
0.219,-0.149,0.952,-15.503,-15.747,13.245
0.188,-0.171,0.943,-13.794,-17.578,11.658
0.166,-0.225,0.934,-12.451,-16.174,8.911
0.175,-0.275,0.929,-13.184,-11.597,5.188
0.188,-0.292,0.924,-15.93,-5.676,0.732
0.207,-0.292,0.918,-19.165,0.183,-4.089
0.247,-0.292,0.918,-21.484,5.432,-9.399
0.281,-0.296,0.914,-22.4,8.972,-13.794
0.306,-0.317,0.907,-22.4,10.742,-16.113
0.335,-0.341,0.893,-22.583,11.475,-16.235
0.367,-0.337,0.876,-23.56,11.169,-14.343
0.368,-0.312,0.852,-24.78,8.484,-11.597
0.342,-0.291,0.837,-24.414,4.089,-8.728
0.336,-0.297,0.831,-21.79,0.244,-5.188
0.339,-0.317,0.829,-18.005,-3.418,-1.465
0.32,-0.333,0.824,-14.954,-7.568,2.502
0.288,-0.342,0.812,-12.268,-11.353,5.31
0.256,-0.345,0.796,-9.888,-13.672,6.409
0.226,-0.34,0.779,-7.751,-13.672,5.432
0.203,-0.342,0.765,-5.493,-11.658,2.808
0.208,-0.364,0.771,-3.174,-8.85,-0.427
0.25,-0.384,0.787,-2.075,-6.165,-2.075
0.294,-0.367,0.812,-2.563,-5.92,-0.61
0.315,-0.332,0.823,-3.357,-9.399,2.441
0.298,-0.311,0.822,-3.052,-15.198,5.676
0.279,-0.319,0.813,-1.831,-20.02,8.24
0.267,-0.318,0.807,-1.77,-22.766,10.071
0.256,-0.298,0.808,-2.563,-23.437,9.827
0.235,-0.285,0.81,-2.93,-23.071,8.301
0.213,-0.278,0.814,-2.808,-20.752,6.226
0.222,-0.269,0.825,-2.38,-17.151,4.517
0.232,-0.279,0.835,-1.648,-13.367,2.441
0.236,-0.295,0.85,-1.282,-9.949,0.488
0.254,-0.316,0.871,-1.831,-6.653,-1.465
0.079,-0.951,2.07,33.142,-61.096,-15.869
0.096,-1.106,2.202,-31.311,-56.519,-27.649
0.118,-1.127,2.145,-89.6,-63.599,-40.833
0.097,-1.091,2.045,-125.061,-79.895,-51.697
0.004,-1.159,1.982,-130.127,-104.858,-61.34
-0.13,-1.385,1.823,-106.506,-131.775,-70.74
-0.322,-1.463,1.729,-56.458,-149.17,-84.534
-0.536,-1.689,1.6,6.775,-146.729,-100.952
-0.636,-1.98,1.517,64.209,-112.549,-121.704
-0.554,-2.354,1.401,98.694,-52.307,-139.832
-0.297,-2.625,1.321,103.455,20.569,-156.067
0.063,-2.547,1.322,83.984,91.37,-173.889
0.468,-2.422,1.297,56.396,140.198,-184.875
0.799,-2.182,1.233,28.992,159.973,-188.965
1.032,-1.808,1.205,7.568,153.809,-183.411
1.167,-1.447,1.213,-1.282,127.197,-164.246
1.209,-1.133,1.208,1.099,86.304,-132.568
1.139,-0.888,1.165,10.193,37.72,-92.773
0.952,-0.72,1.106,22.705,-8.484,-50.11
0.712,-0.649,1.069,35.278,-46.448,-10.742
0.475,-0.706,1.077,45.288,-75.745,23.071
0.229,-0.84,1.075,49.011,-99.487,50.293
-0.024,-0.967,1.028,42.847,-118.225,69.763
-0.248,-1.038,0.977,28.992,-128.906,79.773
-0.399,-1.083,0.932,10.925,-129.15,82.153
-0.472,-1.08,0.866,-8.484,-120.789,80.2
-0.508,-0.99,0.809,-26.672,-106.14,72.388
-0.539,-0.881,0.77,-38.025,-87.524,58.105
-0.533,-0.85,0.775,-39.185,-65.369,42.664
-0.468,-0.944,0.862,-30.884,-40.527,28.809
-0.414,-1.175,1.005,-14.771,-16.418,14.404
-0.318,-1.53,1.169,5.432,7.568,-1.953
-0.203,-1.698,1.233,21.79,32.715,-19.409
-0.076,-1.63,1.243,24.902,57.068,-34.119
0.081,-1.489,1.25,12.756,76.965,-35.828
0.219,-1.258,1.259,-7.385,86.426,-23.682
0.315,-0.985,1.233,-27.771,80.505,-7.08
0.291,-0.737,1.156,-42.725,57.8,9.583
0.185,-0.532,1.056,-50.171,23.56,25.818
0.012,-0.366,0.953,-48.523,-12.024,37.842
-0.165,-0.282,0.79,-39.551,-39.978,44.006
-0.274,-0.198,0.809,-26.794,-53.284,43.457
-0.395,-0.202,0.712,-12.329,-51.636,36.743
-0.386,-0.151,0.784,-0.671,-33.325,25.269
-0.304,-0.172,0.856,8.179,-8.972,13.184
-0.145,-0.187,0.989,11.047,17.212,2.747
0.073,-0.272,1.103,9.766,35.034,-2.258
0.206,-0.241,1.244,1.892,41.809,-5.432
0.299,-0.174,1.318,-10.62,34.79,-1.099
0.334,-0.138,1.295,-22.583,18.555,8.789
0.262,-0.036,1.256,-32.959,2.686,14.954
0.2,0.069,1.212,-37.231,-8.24,18.188
0.156,0.102,1.141,-34.485,-13.0,19.592
0.116,0.114,1.11,-27.832,-9.705,16.541
0.093,0.11,1.091,-19.714,-3.174,11.536
0.1,0.047,1.076,-12.939,3.906,9.46
0.106,-0.014,1.093,-9.583,11.414,8.362
0.123,-0.057,1.115,-8.667,17.09,7.141
0.145,-0.092,1.127,-8.911,18.86,5.981
0.133,-0.125,1.143,-9.705,18.555,2.93
0.12,-0.187,1.132,-10.071,18.738,-1.282
0.103,-0.254,1.136,-12.451,21.79,-4.15
0.113,-0.299,1.134,-17.029,27.71,-6.165
0.156,-0.318,1.137,-21.423,33.997,-8.179
0.233,-0.345,1.132,-24.597,37.598,-10.376
0.228,-0.388,1.063,-26.184,37.354,-12.268
0.239,-0.311,1.083,-27.588,38.025,-13.367
0.259,-0.34,1.003,-25.391,36.926,-10.864
0.24,-0.291,0.996,-21.423,36.133,-9.155
0.23,-0.285,0.947,-15.442,34.18,-5.676
0.198,-0.28,0.95,-8.85,32.043,-1.953
0.184,-0.302,0.951,-3.357,29.114,4.272
0.173,-0.322,0.95,-1.099,24.841,12.451
0.15,-0.31,0.943,-3.174,19.104,21.667
0.132,-0.231,0.967,-7.019,11.536,30.396
0.086,-0.216,0.929,-9.827,1.77,36.743
0.013,-0.165,0.904,-10.559,-6.592,37.109
-0.062,-0.214,0.83,-9.888,-12.146,34.546
-0.107,-0.18,0.816,-9.949,-10.742,27.466
-0.106,-0.185,0.78,-9.644,-5.92,20.508
-0.073,-0.171,0.802,-9.46,2.625,13.0
-0.012,-0.176,0.82,-8.118,11.658,6.775
0.044,-0.172,0.854,-7.141,18.982,2.319
0.086,-0.145,0.907,-6.592,23.926,-1.953
0.14,-0.151,0.955,-5.188,24.414,-4.639
0.17,-0.175,0.977,-4.578,21.362,-7.141
0.17,-0.19,0.973,-5.615,17.212,-8.301
0.161,-0.195,0.951,-7.812,15.442,-8.179
0.17,-0.181,0.935,-9.46,16.113,-7.935
0.202,-0.189,0.933,-9.46,18.005,-7.08
0.221,-0.188,0.941,-8.789,19.226,-5.981
0.239,-0.192,0.955,-8.301,19.775,-3.967
0.243,-0.205,0.964,-7.202,18.372,-1.77
0.224,-0.23,0.965,-6.104,15.442,0.916
0.187,-0.25,0.967,-5.981,13.611,3.113
0.168,-0.267,0.967,-6.348,13.367,3.845
0.169,-0.267,0.973,-8.24,13.916,3.784
0.166,-0.25,0.976,-9.521,13.55,2.808
0.144,-0.24,0.963,-10.071,12.451,1.465
0.133,-0.228,0.953,-10.376,12.817,0.0
0.134,-0.213,0.941,-10.071,14.038,-1.099
0.136,-0.197,0.922,-9.338,14.832,-2.686
0.138,-0.193,0.909,-9.094,15.259,-3.723
0.155,-0.175,0.905,-9.094,15.93,-4.15
0.185,-0.147,0.903,-8.972,15.747,-3.235
0.196,-0.118,0.905,-8.179,14.16,-1.282
0.204,-0.095,0.908,-6.409,10.62,1.099
0.195,-0.108,0.894,-3.296,5.859,3.479
0.179,-0.071,0.93,-0.427,1.892,5.249
0.153,-0.112,0.909,3.052,-1.221,6.592
0.104,-0.094,0.933,4.517,-0.244,4.761
0.115,-0.119,0.94,5.798,2.197,3.601
0.12,-0.127,0.964,5.859,6.287,0.61
0.135,-0.147,0.971,4.944,10.376,-2.502
0.147,-0.142,0.997,3.174,14.282,-5.066
0.173,-0.158,0.998,1.038,17.334,-6.653
0.191,-0.155,1.005,-1.648,18.86,-7.446
0.211,-0.175,0.992,-4.211,18.677,-7.019
0.229,-0.161,0.992,-6.897,17.029,-6.226
-0.609,-1.553,1.649,44.983,-129.761,93.994
-0.327,-1.673,1.907,-16.846,-97.961,53.528
-0.075,-1.691,2.071,-67.078,-87.219,18.066
0.158,-1.477,2.216,-82.031,-98.328,-1.648
0.187,-1.204,2.498,-40.405,-127.319,-16.113
0.112,-1.167,2.815,44.983,-159.302,-33.264
0.021,-1.436,2.87,146.423,-186.89,-54.871
-0.262,-1.913,2.796,231.873,-200.5,-86.67
-0.62,-2.629,2.681,275.635,-183.533,-135.62
-0.853,-3.124,2.452,265.747,-123.718,-203.064
-0.8,-3.371,2.022,206.482,-17.944,-271.973
-0.442,-3.198,1.485,111.45,119.995,-330.933
0.126,-2.55,1.157,9.644,264.343,-370.544
0.908,-1.939,0.954,-68.97,376.282,-382.385
1.581,-1.351,0.881,-117.798,432.739,-373.291
1.984,-0.862,0.913,-139.526,429.016,-341.37
2.156,-0.382,1.062,-142.029,372.253,-284.485
2.117,-0.049,1.177,-126.709,274.353,-205.078
1.912,0.047,1.194,-95.642,153.259,-114.685
1.559,0.019,1.145,-57.068,30.518,-26.184
1.113,-0.119,1.081,-19.775,-76.477,52.551
0.624,-0.341,0.994,10.498,-159.546,117.31
0.139,-0.596,0.984,29.602,-212.158,162.903
-0.236,-0.874,1.004,35.339,-237.976,187.866
-0.528,-1.056,0.895,29.724,-241.577,187.561
-0.947,-1.07,0.829,16.174,-218.323,162.231
-1.115,-0.903,0.855,0.183,-168.396,124.878
-1.11,-0.835,0.895,-6.042,-110.352,83.923
-0.961,-0.899,1.012,-5.371,-46.814,42.603
-0.746,-1.108,1.17,3.113,11.169,1.892
-0.488,-1.452,1.312,17.761,60.486,-37.048
-0.267,-1.755,1.362,32.41,102.051,-72.449
-0.078,-1.803,1.356,33.508,137.085,-96.008
0.168,-1.561,1.32,16.785,161.621,-97.656
0.42,-1.2,1.307,-6.714,167.114,-76.782
0.549,-0.823,1.248,-25.33,148.682,-43.213
0.617,-0.451,1.296,-34.302,108.582,-7.202
0.528,-0.315,1.231,-30.64,51.514,24.475
0.328,-0.15,1.194,-22.766,-5.92,44.983
0.165,-0.15,1.04,-8.362,-61.584,60.547
-0.036,-0.136,0.906,3.601,-100.708,64.026
-0.236,-0.186,0.731,13.489,-118.408,59.998
-0.417,-0.151,0.659,22.522,-110.84,41.931
-0.442,0.005,0.701,32.349,-84.106,17.395
-0.337,0.002,0.733,45.776,-51.636,-1.892
-0.277,-0.074,0.766,57.556,-16.907,-20.63
-0.215,-0.109,0.86,63.232,17.883,-36.316
-0.056,-0.181,0.931,62.805,48.035,-42.908
0.148,-0.223,1.021,55.786,70.618,-42.48
0.34,-0.235,1.085,45.227,80.383,-38.391
0.436,-0.163,1.147,34.485,75.012,-34.241
0.497,-0.127,1.141,25.085,58.044,-26.306
0.462,-0.079,1.133,18.005,36.011,-18.005
0.4,-0.07,1.079,12.329,13.977,-9.766
0.322,-0.064,1.038,8.362,-3.784,-2.563
0.241,-0.092,0.974,6.592,-15.625,2.808
0.143,-0.115,0.969,6.47,-20.508,5.005
0.092,-0.167,0.932,7.385,-19.348,4.333
0.044,-0.212,0.922,8.179,-13.367,1.282
0.037,-0.238,0.93,7.507,-3.967,-3.357
0.027,-0.275,0.941,7.69,6.409,-9.705
0.049,-0.321,0.973,7.019,18.311,-17.09
0.1,-0.372,1.0,5.493,29.602,-22.766
0.185,-0.419,1.056,2.869,38.391,-26.245
0.274,-0.471,1.09,-1.16,42.114,-27.344
0.322,-0.479,1.117,-7.69,40.955,-23.804
0.343,-0.475,1.118,-14.587,36.011,-16.541
0.312,-0.473,1.066,-20.691,28.87,-8.789
0.279,-0.454,1.029,-24.658,23.743,-2.502
0.235,-0.429,0.988,-25.085,20.264,1.465
0.201,-0.393,0.951,-22.644,19.287,3.662
0.177,-0.374,0.93,-18.982,20.325,5.92
0.157,-0.347,0.92,-15.259,21.606,8.606
0.142,-0.303,0.916,-12.085,22.034,11.963
0.14,-0.265,0.92,-9.46,21.484,15.686
0.133,-0.256,0.915,-6.409,19.043,18.921
0.113,-0.263,0.908,-4.639,14.832,21.179
0.09,-0.266,0.896,-4.089,10.315,21.545
0.077,-0.266,0.885,-4.456,7.141,19.653
0.076,-0.263,0.875,-5.798,6.042,16.357
0.092,-0.249,0.873,-7.996,5.981,13.55
0.12,-0.237,0.869,-9.705,5.615,11.963
0.142,-0.226,0.864,-10.681,5.188,11.108
0.166,-0.23,0.861,-10.803,4.761,10.681
0.183,-0.234,0.866,-11.047,4.395,11.353
0.197,-0.23,0.882,-11.597,4.028,13.245
0.196,-0.227,0.904,-11.536,3.662,15.32
0.195,-0.238,0.922,-11.047,3.357,16.602
0.188,-0.263,0.931,-11.292,3.174,16.357
0.182,-0.286,0.935,-12.024,3.174,15.564
0.18,-0.302,0.935,-13.306,4.089,14.648
0.19,-0.308,0.934,-15.259,5.493,13.123
0.198,-0.301,0.931,-17.273,6.531,11.108
0.196,-0.287,0.922,-18.127,7.202,9.033
0.203,-0.277,0.922,-18.188,8.301,7.751
0.213,-0.279,0.927,-17.212,9.216,7.202
0.216,-0.291,0.932,-16.602,9.888,7.935
0.227,-0.308,0.937,-16.235,10.193,9.644
0.236,-0.322,0.944,-17.395,10.498,11.841
0.24,-0.315,0.945,-19.531,10.01,13.916
0.236,-0.294,0.942,-22.278,8.972,14.832
0.226,-0.242,0.94,-23.743,7.324,13.672
0.216,-0.217,0.923,-24.048,6.226,11.658
0.21,-0.227,0.901,-23.193,5.127,11.719
0.207,-0.211,0.911,-21.057,4.15,11.719
0.176,-0.165,0.911,-18.494,3.906,10.864
0.194,-0.163,0.922,-16.296,3.784,11.841
0.189,-0.15,0.925,-13.855,3.235,10.986
0.164,-0.168,0.9,-12.329,2.686,10.376
0.115,-0.15,0.904,-11.78,5.554,8.057
0.112,-0.152,0.904,-11.658,12.024,5.554
0.153,-0.157,0.93,-11.475,19.714,1.831
0.228,-0.159,0.962,-11.719,24.841,-1.892
0.293,-0.155,0.998,-12.329,23.865,-3.357
0.315,-0.149,1.012,-13.245,17.151,-3.357
0.319,-0.154,1.007,-14.282,9.277,-2.014
0.307,-0.156,1.0,-15.198,2.991,0.183
0.291,-0.174,0.982,-16.113,-0.366,2.197
0.27,-0.186,0.965,-17.456,-0.305,3.601
-0.581,-2.036,1.558,59.143,-224.609,-29.114
-0.756,-2.7,1.817,98.816,-179.81,-52.979
-0.634,-3.215,2.024,131.165,-104.126,-79.651
-0.349,-3.467,2.178,153.625,-16.052,-113.586
0.133,-3.505,2.204,150.208,69.031,-164.49
0.582,-3.281,1.993,113.708,133.789,-226.746
0.922,-2.709,1.693,58.105,177.002,-276.062
1.274,-2.005,1.488,5.798,198.792,-289.856
1.588,-1.355,1.471,-32.532,196.35,-266.541
1.771,-0.722,1.575,-53.284,166.077,-216.431
1.799,-0.22,1.675,-51.575,107.483,-151.306
1.73,-0.016,1.71,-33.264,24.414,-79.102
1.502,-0.256,1.595,-10.62,-70.801,-5.188
1.043,-0.692,1.384,2.869,-158.875,59.082
0.487,-1.12,1.179,2.258,-217.163,104.614
-0.054,-1.4,0.976,-12.634,-236.755,132.751
-0.495,-1.484,0.846,-35.645,-219.604,144.531
-0.809,-1.519,0.833,-56.946,-173.218,139.343
-0.971,-1.696,0.899,-66.406,-112.244,118.164
-0.993,-1.908,1.005,-60.12,-45.715,81.482
-0.876,-1.911,1.141,-43.579,18.372,39.795
-0.613,-1.764,1.216,-26.917,70.19,8.667
-0.294,-1.555,1.218,-16.235,101.929,-5.798
0.007,-1.307,1.224,-11.719,110.229,-7.935
0.204,-1.004,1.251,-9.521,97.412,-0.549
0.304,-0.72,1.29,-7.629,69.946,17.7
0.339,-0.568,1.295,-4.089,32.41,44.312
0.285,-0.54,1.216,-0.427,-9.216,69.702
0.155,-0.523,1.09,0.671,-47.668,84.595
-0.036,-0.44,0.949,-0.183,-75.073,85.083
-0.232,-0.314,0.83,-0.244,-85.632,73.181
-0.355,-0.203,0.763,2.502,-77.515,54.688
-0.406,-0.133,0.75,8.423,-53.833,33.203
-0.4,-0.121,0.786,14.954,-19.287,11.047
-0.352,-0.173,0.79,17.517,22.705,-7.446
-0.163,-0.16,0.99,15.076,68.298,-21.545
0.197,-0.041,1.245,13.306,94.421,-30.029
0.463,-0.029,1.243,14.099,86.792,-33.386
0.529,-0.021,1.298,8.911,64.026,-32.959
0.481,-0.03,1.224,5.615,32.776,-27.527
0.408,-0.074,1.137,3.723,7.202,-18.738
0.316,-0.009,1.052,2.991,-7.08,-13.0
0.195,-0.031,0.91,5.493,-11.78,-8.057
0.103,0.016,0.884,10.254,-4.517,-7.996
0.081,0.001,0.879,19.287,7.263,-9.399
0.1,-0.088,0.917,29.724,18.921,-11.536
0.172,-0.179,1.028,36.682,27.771,-14.343
0.256,-0.319,1.07,38.086,28.076,-11.23
0.304,-0.358,1.133,30.212,22.888,-4.395
0.328,-0.351,1.158,18.982,11.719,2.38
0.314,-0.296,1.165,9.949,-0.916,4.15
0.259,-0.255,1.131,5.432,-10.62,2.075
0.223,-0.256,1.102,3.113,-14.404,-0.305
0.195,-0.293,1.054,2.075,-11.108,-2.686
0.188,-0.319,1.035,0.916,-1.709,-5.249
0.2,-0.348,1.016,-0.977,9.949,-7.996
0.236,-0.359,1.004,-3.174,21.118,-9.766
0.275,-0.352,0.994,-5.371,29.114,-10.254
0.287,-0.326,0.975,-7.69,32.471,-9.399
0.283,-0.302,0.952,-9.155,32.593,-6.104
0.283,-0.274,0.933,-9.888,30.518,-1.343
0.27,-0.245,0.908,-9.338,25.879,4.211
0.233,-0.215,0.878,-7.629,19.958,8.362
0.201,-0.203,0.855,-5.371,14.404,11.23
0.189,-0.198,0.845,-2.747,9.888,13.062
0.18,-0.24,0.793,-0.244,6.287,13.428
0.175,-0.191,0.823,0.549,4.944,13.245
0.183,-0.203,0.783,1.16,2.808,15.93
0.185,-0.171,0.826,1.892,2.014,18.799
0.193,-0.184,0.828,2.441,0.061,22.949
0.179,-0.201,0.845,2.747,-3.479,25.94
0.153,-0.222,0.851,1.953,-6.897,26.794
0.132,-0.24,0.849,0.244,-8.911,24.78
0.103,-0.241,0.853,-1.587,-8.911,19.47
0.095,-0.233,0.856,-2.747,-6.165,13.123
0.116,-0.227,0.862,-3.479,-1.587,8.118
0.142,-0.215,0.874,-3.296,2.686,5.249
0.153,-0.212,0.884,-2.197,5.615,3.357
0.16,-0.211,0.903,-0.305,7.263,1.343
0.168,-0.23,0.916,1.709,7.751,-0.427
0.17,-0.241,0.925,3.235,8.423,-2.502
0.166,-0.239,0.94,3.601,10.193,-4.333
0.171,-0.24,0.947,4.089,13.0,-7.08
0.19,-0.244,0.958,4.272,16.541,-10.01
0.212,-0.248,0.979,3.784,19.409,-11.841
0.241,-0.262,1.001,1.892,21.545,-11.658
0.284,-0.273,1.017,-1.343,22.522,-8.667
0.325,-0.28,1.038,-6.104,21.912,-3.906
0.347,-0.266,1.044,-11.353,18.616,1.77
0.36,-0.25,1.038,-16.174,13.977,8.301
0.351,-0.232,1.022,-19.531,8.667,13.306
0.329,-0.213,1.003,-20.752,4.211,16.174
0.308,-0.219,0.974,-20.752,2.014,17.883
0.291,-0.215,0.96,-21.362,2.93,18.372
0.286,-0.228,0.951,-21.545,5.554,19.043
0.289,-0.233,0.969,-22.4,9.338,20.142
0.325,-0.252,0.984,-23.499,12.085,21.973
0.367,-0.24,1.008,-24.963,11.902,24.536
0.401,-0.232,1.029,-25.879,7.629,28.564
0.39,-0.234,1.043,-25.452,-0.244,33.569
0.353,-0.252,1.037,-24.231,-8.179,38.879
0.317,-0.285,1.029,-22.644,-13.794,43.396
0.276,-0.32,1.023,-22.705,-16.174,46.57
0.246,-0.334,1.038,-23.682,-15.808,48.523
0.234,-0.348,1.059,-24.353,-13.794,49.561
0.23,-0.364,1.096,-24.353,-11.597,48.889
0.221,-0.4,1.13,-23.315,-9.827,47.668
0.232,-0.432,1.176,-21.729,-7.812,46.082
0.25,-0.462,1.214,-19.897,-6.409,44.067
0.286,-0.489,1.249,-17.944,-5.798,41.626
0.315,-0.525,1.274,-16.479,-5.981,40.161
0.315,-0.571,1.286,-16.418,-6.775,40.466
0.331,-0.616,1.292,-18.127,-6.775,41.992
0.349,-0.639,1.278,-21.912,-7.263,43.274
0.349,-0.629,1.246,-26.123,-9.277,42.908
0.33,-0.58,1.185,-29.846,-12.085,42.419
0.309,-0.519,1.125,-32.654,-14.648,42.48
0.304,-0.465,1.082,-31.86,-16.907,41.565
0.29,-0.425,1.033,-27.771,-20.325,40.039
-0.091,-1.812,1.716,102.112,-133.118,-20.874
0.125,-2.551,1.973,127.075,-114.075,-8.24
0.225,-2.956,2.114,112.61,-100.159,-16.724
0.115,-2.953,2.214,82.764,-85.144,-51.819
0.023,-2.777,2.173,57.129,-60.669,-92.59
0.015,-2.542,2.071,44.25,-22.461,-129.272
0.038,-2.343,1.937,43.091,21.606,-158.447
0.147,-2.259,1.79,46.997,63.11,-179.749
0.299,-2.179,1.563,48.584,94.543,-200.317
0.463,-1.935,1.337,43.518,119.934,-224.548
0.605,-1.638,1.136,36.987,144.348,-245.056
0.822,-1.406,0.993,32.166,165.649,-248.901
1.02,-1.138,0.944,30.273,174.438,-234.802
1.178,-0.908,0.99,34.851,161.804,-202.759
1.202,-0.785,1.064,48.401,125.122,-152.283
1.035,-0.757,1.134,64.636,69.946,-86.243
0.847,-0.886,1.135,77.332,3.845,-14.221
0.591,-1.063,1.07,81.665,-65.796,44.922
0.243,-1.134,0.971,76.355,-129.822,79.651
-0.16,-1.13,0.834,66.345,-176.819,91.736
-0.496,-1.104,0.667,55.359,-198.792,88.135
-0.748,-1.041,0.526,45.166,-192.749,71.472
-0.867,-0.962,0.479,36.865,-161.072,48.828
-0.805,-0.906,0.484,33.081,-114.99,27.405
-0.664,-0.915,0.565,33.875,-64.941,7.568
-0.508,-1.028,0.705,37.231,-19.775,-7.935
-0.36,-1.311,0.846,39.917,16.907,-16.846
-0.177,-1.609,0.967,38.147,47.058,-22.461
0.038,-1.783,1.022,29.114,70.251,-28.931
0.211,-1.746,1.038,11.597,83.862,-34.912
0.354,-1.57,1.072,-10.132,86.548,-33.63
0.468,-1.377,1.125,-28.931,77.087,-22.705
0.482,-1.173,1.188,-41.565,56.824,-7.935
0.436,-1.131,1.026,-46.326,27.466,6.897
0.238,-0.904,1.136,-48.157,2.747,15.686
0.086,-0.833,1.083,-47.302,-14.16,24.414
-0.026,-0.693,1.006,-43.396,-21.79,29.846
-0.072,-0.651,1.101,-37.659,-19.47,27.893
-0.132,-0.579,1.124,-31.738,-12.146,15.93
-0.094,-0.591,1.115,-28.931,-1.465,7.69
-0.049,-0.531,1.151,-30.64,11.78,0.671
0.021,-0.459,1.179,-32.593,24.292,-6.958
0.07,-0.384,1.18,-33.691,33.63,-14.16
0.092,-0.307,1.23,-33.447,40.466,-19.775
0.188,-0.294,1.228,-29.724,43.152,-23.132
0.219,-0.238,1.225,-24.963,42.48,-27.039
0.281,-0.224,1.238,-20.813,35.583,-23.865
0.279,-0.255,1.235,-18.188,25.696,-15.747
0.306,-0.287,1.265,-20.02,16.846,-4.822
0.307,-0.31,1.253,-24.658,4.944,2.625
0.223,-0.263,1.275,-30.212,-7.324,5.432
0.139,-0.258,1.152,-32.776,-18.738,5.371
-0.009,-0.179,1.087,-33.386,-21.729,1.831
-0.049,-0.139,1.016,-30.09,-15.198,-1.404
-0.06,-0.142,0.976,-20.813,-2.502,-5.615
-0.014,-0.191,0.986,-10.132,13.062,-9.888
0.018,-0.295,1.007,-1.465,26.611,-10.559
0.084,-0.366,1.03,0.427,37.842,-4.456
0.15,-0.39,1.034,-3.296,44.983,5.005
0.196,-0.414,1.04,-7.08,46.143,13.794
0.24,-0.411,1.041,-8.423,40.833,20.203
0.232,-0.438,1.028,-8.423,31.25,22.949
0.219,-0.479,1.012,-8.24,20.02,23.926
0.176,-0.47,1.01,-7.996,9.155,23.987
0.124,-0.458,0.977,-9.277,1.526,24.109
0.08,-0.416,0.923,-11.108,-1.038,25.574
0.053,-0.341,0.91,-12.329,0.122,28.198
0.052,-0.31,0.889,-11.78,2.319,30.212
0.035,-0.286,0.891,-9.338,3.967,30.09
0.036,-0.3,0.908,-7.507,4.822,29.602
0.041,-0.312,0.916,-8.118,3.235,29.968
0.013,-0.264,0.911,-11.047,-0.366,29.663
-0.026,-0.226,0.884,-12.451,-4.028,27.954
-0.041,-0.234,0.873,-11.597,-5.127,25.024
-0.026,-0.259,0.872,-9.644,-3.784,20.63
0.008,-0.28,0.889,-8.24,-1.587,15.625
0.033,-0.286,0.904,-6.47,-0.244,9.705
0.063,-0.315,0.904,-4.822,0.61,4.211
0.089,-0.348,0.908,-5.005,1.709,0.61
0.111,-0.367,0.915,-8.118,2.991,-0.427
0.114,-0.371,0.914,-12.085,5.066,1.16
0.129,-0.367,0.904,-16.418,7.629,3.906
0.139,-0.346,0.9,-19.653,9.033,6.165
0.14,-0.321,0.903,-20.63,7.996,7.935
0.121,-0.319,0.91,-18.921,4.944,8.972
0.088,-0.36,0.919,-15.625,2.319,9.827
0.064,-0.409,0.921,-12.573,1.892,10.132
0.057,-0.425,0.94,-12.024,3.723,9.338
0.057,-0.412,0.97,-11.658,6.531,7.69
0.069,-0.426,0.975,-9.644,9.888,5.432
0.055,-0.436,1.002,-5.798,13.794,2.441
0.091,-0.499,1.026,-2.136,18.616,1.099
0.115,-0.556,1.069,-0.732,22.949,0.183
0.145,-0.604,1.097,-2.991,25.085,0.854
0.161,-0.623,1.098,-7.324,25.391,2.197
0.162,-0.632,1.08,-11.963,24.902,3.479
0.158,-0.64,1.047,-16.418,24.658,4.944
0.166,-0.65,1.035,-19.836,25.757,6.653
0.21,-0.67,1.028,-22.766,28.015,10.681
0.253,-0.701,1.016,-25.635,28.015,16.296
0.256,-0.713,1.004,-28.076,24.658,21.484
0.226,-0.721,0.969,-29.053,20.874,25.208
0.213,-0.704,0.903,-29.297,20.63,27.649
0.222,-0.651,0.877,-29.907,24.048,29.785
0.264,-0.618,0.883,-29.053,27.588,35.034
0.339,-0.604,0.894,-26.55,27.954,44.25
0.373,-0.57,0.908,-22.583,22.705,55.42
0.325,-0.542,0.918,-16.846,13.0,66.223
0.238,-0.572,0.934,-9.338,4.456,75.623
0.181,-0.633,0.94,-3.052,-0.366,81.482
0.098,-0.675,0.898,-1.648,-2.075,77.698
-0.003,-0.653,0.853,-5.554,1.709,65.491
-0.025,-0.573,0.837,-11.963,13.733,51.758
0.005,-0.503,0.838,-15.869,29.48,39.429
0.094,-0.47,0.861,-16.663,44.983,30.823
0.234,-0.44,0.921,-16.418,56.702,29.48
0.317,-0.387,0.958,-16.907,62.5,35.217
0.387,-0.35,0.961,-16.541,63.538,45.227
0.37,-0.344,0.913,-15.198,62.561,55.725
0.13,-1.453,1.029,-129.944,-205.933,-94.36
0.022,-1.701,1.169,-72.937,-223.633,-91.248
-0.101,-2.105,1.287,5.676,-228.333,-81.421
-0.261,-2.555,1.411,89.966,-211.853,-85.754
-0.377,-2.879,1.526,162.598,-169.067,-100.525
-0.35,-3.132,1.589,212.402,-105.53,-119.202
-0.182,-3.265,1.675,229.065,-28.687,-143.86
0.134,-3.202,1.69,214.6,47.668,-169.128
0.505,-2.911,1.671,178.528,114.258,-190.674
0.803,-2.479,1.634,131.897,164.673,-201.294
0.991,-2.125,1.583,87.402,192.932,-195.801
1.181,-1.855,1.522,49.438,199.89,-182.617
1.405,-1.462,1.422,18.494,186.218,-176.392
1.551,-0.99,1.364,-1.587,159.851,-171.265
1.615,-0.617,1.356,-7.629,125.305,-149.536
1.698,-0.48,1.347,-1.16,81.97,-106.384
1.633,-0.568,1.288,8.85,29.419,-54.26
1.386,-0.718,1.191,16.602,-26.367,-6.226
1.003,-0.857,1.127,18.066,-78.491,34.119
0.577,-1.065,1.015,12.878,-120.178,70.007
0.123,-1.201,0.931,0.427,-146.606,97.168
-0.214,-1.3,0.843,-15.137,-156.799,109.68
-0.441,-1.347,0.725,-33.142,-154.907,105.774
-0.62,-1.312,0.603,-53.528,-143.616,91.064
-0.672,-1.232,0.494,-70.557,-124.634,74.158
-0.627,-1.124,0.448,-80.444,-99.121,58.044
-0.547,-1.052,0.484,-80.994,-71.716,45.227
-0.437,-1.058,0.561,-74.097,-45.044,41.992
-0.361,-1.191,0.692,-60.791,-21.423,43.762
-0.349,-1.42,0.843,-42.908,0.671,41.016
-0.329,-1.644,0.973,-22.156,25.513,31.738
-0.247,-1.702,1.059,-6.348,53.711,20.325
-0.114,-1.584,1.103,-2.93,77.881,10.62
-0.029,-1.433,1.111,-12.512,89.539,2.075
0.048,-1.176,1.144,-28.137,88.928,-3.967
0.088,-1.011,1.056,-41.016,77.515,-6.531
0.15,-0.746,1.126,-47.974,61.707,-8.728
0.171,-0.748,0.99,-45.105,37.598,-4.761
0.113,-0.472,1.0,-38.696,18.555,-4.639
0.13,-0.54,0.905,-29.785,1.526,-0.061
0.17,-0.393,0.945,-18.127,-11.719,-3.052
0.109,-0.396,0.817,-7.324,-21.912,-7.385
-0.011,-0.298,0.863,0.427,-17.517,-11.292
-0.023,-0.292,0.865,8.911,-1.221,-12.39
0.021,-0.363,0.883,16.907,23.56,-13.916
0.115,-0.38,0.968,19.958,51.941,-18.799
0.315,-0.402,1.063,19.287,72.327,-22.278
0.55,-0.463,1.17,13.611,75.867,-20.996
0.601,-0.399,1.183,5.005,59.387,-19.531
0.576,-0.329,1.162,-3.235,32.959,-13.733
0.493,-0.321,1.074,-7.507,7.568,-4.517
0.406,-0.295,1.002,-8.728,-9.338,2.93
0.319,-0.31,0.932,-7.629,-18.799,8.423
0.226,-0.339,0.857,-5.676,-20.874,10.62
0.142,-0.35,0.823,-4.272,-14.832,9.827
0.135,-0.379,0.833,-2.869,-4.028,8.362
0.147,-0.421,0.837,-0.244,5.798,5.371
0.138,-0.463,0.845,1.709,13.672,1.221
0.145,-0.503,0.867,1.953,20.508,-1.831
0.224,-0.544,0.878,0.61,26.062,-3.174
0.271,-0.564,0.878,-2.319,28.625,-4.333
0.276,-0.571,0.847,-6.226,28.87,-5.371
0.286,-0.553,0.834,-9.949,30.212,-4.639
0.324,-0.525,0.813,-11.658,31.86,-2.502
0.361,-0.492,0.817,-11.23,31.128,0.793
0.388,-0.476,0.818,-8.972,26.245,5.188
0.361,-0.451,0.811,-5.615,18.311,9.644
0.312,-0.424,0.804,-2.258,9.521,14.648
0.265,-0.402,0.812,1.526,3.113,18.616
0.222,-0.406,0.805,6.592,-2.197,20.691
0.186,-0.4,0.816,10.62,-5.859,20.081
0.144,-0.398,0.811,13.367,-8.972,17.212
0.099,-0.39,0.81,14.832,-10.986,13.245
0.078,-0.402,0.792,15.015,-10.986,9.277
0.076,-0.411,0.776,12.817,-7.629,5.981
0.093,-0.416,0.777,8.484,-2.136,3.113
0.121,-0.408,0.789,3.662,3.845,0.793
0.165,-0.398,0.806,-0.366,8.484,-0.122
0.195,-0.385,0.808,-3.357,10.254,-0.244
0.203,-0.376,0.792,-5.31,9.583,-1.221
0.198,-0.382,0.768,-5.737,8.484,-2.625
0.21,-0.379,0.757,-6.104,9.094,-3.174
0.224,-0.386,0.743,-6.348,10.254,-3.296
0.235,-0.383,0.746,-5.798,11.23,-3.479
0.247,-0.395,0.749,-3.723,11.475,-3.845
0.264,-0.412,0.754,-0.793,11.414,-3.845
0.289,-0.418,0.78,1.16,10.925,-3.052
0.301,-0.426,0.8,2.38,9.705,-1.953
0.291,-0.425,0.814,2.502,7.751,-1.282
0.28,-0.428,0.833,2.563,5.981,-0.916
0.262,-0.445,0.847,1.709,4.7,-1.038
0.249,-0.465,0.858,-0.061,4.272,-1.709
0.245,-0.471,0.872,-2.686,4.822,-2.625
0.25,-0.469,0.89,-6.165,5.859,-2.319
0.253,-0.454,0.908,-9.644,6.592,-0.793
0.26,-0.453,0.914,-11.719,6.165,0.671
0.264,-0.456,0.914,-13.306,4.028,0.671
0.259,-0.462,0.906,-13.977,0.916,-0.61
0.25,-0.471,0.897,-13.977,-0.916,-1.343
0.249,-0.485,0.887,-13.733,-0.793,-1.709
0.259,-0.495,0.886,-13.611,1.038,-1.77
0.282,-0.497,0.903,-13.55,3.601,-1.404
0.329,-0.5,0.936,-13.733,5.188,0.854
0.379,-0.5,0.976,-14.587,3.601,5.249
0.393,-0.492,1.002,-15.259,-2.563,9.766
0.374,-0.489,1.01,-16.052,-10.986,13.855
0.333,-0.497,0.997,-16.357,-19.104,16.968
0.289,-0.514,0.974,-17.395,-23.499,19.043
0.253,-0.535,0.955,-19.409,-23.132,19.714
0.243,-0.543,0.943,-22.217,-18.677,19.531
0.258,-0.535,0.946,-25.024,-12.329,19.47
0.274,-0.525,0.956,-27.771,-7.324,19.165
0.286,-0.516,0.957,-29.602,-5.127,18.066
0.289,-0.499,0.972,-29.663,-4.578,16.541
0.297,-0.502,0.991,-28.137,-5.737,15.93
0.294,-0.529,1.019,-24.902,-7.568,15.747
0.294,-0.566,1.042,-21.24,-9.644,15.686
0.3,-0.636,1.049,-19.165,-11.902,15.93
0.308,-0.678,1.065,-19.653,-13.794,15.686
-0.037,-1.323,1.483,-145.63,-122.62,24.292
0.175,-1.374,1.727,-163.33,-158.264,29.297
0.091,-1.417,1.901,-134.277,-200.378,29.968
-0.115,-1.546,1.989,-78.979,-228.821,32.532
-0.291,-1.761,2.063,-16.541,-228.699,45.41
-0.496,-2.033,2.152,50.293,-198.425,45.715
-0.566,-2.173,2.311,111.816,-141.541,21.545
-0.462,-2.267,2.398,155.64,-73.364,-23.193
-0.319,-2.393,2.425,178.101,-4.578,-80.2
-0.067,-2.473,2.385,178.223,61.096,-133.301
0.242,-2.484,2.241,154.48,118.042,-176.208
0.509,-2.358,1.945,109.009,162.354,-214.294
0.75,-1.915,1.635,53.711,197.937,-248.108
1.023,-1.482,1.389,7.935,225.586,-267.578
1.391,-1.148,1.171,-20.996,240.173,-266.724
1.672,-0.845,0.986,-36.682,236.145,-247.192
1.932,-0.561,0.929,-41.504,209.29,-202.881
2.077,-0.288,1.034,-36.133,154.541,-131.958
1.992,-0.18,1.141,-18.86,67.078,-40.466
1.648,-0.341,1.081,6.897,-44.006,54.016
1.058,-0.6,0.974,30.457,-155.09,132.263
0.424,-0.986,0.729,45.349,-247.375,182.312
-0.206,-1.181,0.505,45.288,-304.077,196.716
-0.805,-1.202,0.287,35.767,-316.528,179.871
-1.278,-1.036,0.233,23.926,-279.846,143.127
-1.433,-0.831,0.338,17.334,-202.759,101.196
-1.282,-0.771,0.501,21.423,-106.018,59.021
-0.999,-0.939,0.77,30.518,-8.728,16.724
-0.55,-1.328,1.065,37.659,72.876,-21.057
-0.076,-1.823,1.321,37.17,129.944,-54.932
0.365,-2.219,1.446,27.527,163.818,-83.435
0.662,-2.203,1.385,8.728,180.969,-95.947
0.885,-1.77,1.278,-19.531,182.19,-81.055
0.99,-1.233,1.131,-45.837,160.828,-42.664
0.955,-0.812,1.045,-59.57,118.591,2.075
0.791,-0.51,1.001,-58.899,59.143,43.884
0.538,-0.327,0.983,-43.64,-10.681,80.994
0.239,-0.386,0.859,-19.592,-78.369,108.948
-0.172,-0.438,0.797,2.869,-125.488,120.117
-0.542,-0.517,0.628,18.066,-136.597,109.009
-0.533,-0.552,0.654,29.724,-120.056,78.735
-0.663,-0.551,0.554,39.185,-87.402,40.955
-0.506,-0.483,0.754,34.302,-26.733,8.24
-0.305,-0.475,0.747,33.203,30.334,-18.188
0.004,-0.37,0.957,25.879,81.848,-39.124
0.329,-0.233,1.102,17.883,110.779,-47.424
0.617,-0.145,1.216,12.878,112.305,-39.429
0.8,-0.146,1.33,12.207,89.844,-23.56
0.817,-0.199,1.312,15.015,51.88,-11.169
0.67,-0.217,1.296,15.869,11.597,-0.671
0.472,-0.243,1.218,12.512,-17.517,12.634
0.287,-0.294,1.124,9.338,-31.189,23.376
0.128,-0.337,1.068,6.47,-29.175,26.855
0.025,-0.401,1.02,5.554,-15.991,24.353
0.02,-0.476,0.996,4.944,2.075,17.822
0.068,-0.533,0.972,3.845,18.372,8.423
0.084,-0.546,0.949,1.343,28.687,-1.831
0.136,-0.55,0.929,-1.221,35.034,-9.216
0.188,-0.544,0.929,-2.502,38.269,-14.038
0.289,-0.545,0.939,-1.709,37.231,-15.015
0.38,-0.547,0.96,-0.061,31.494,-11.841
0.37,-0.586,0.88,0.977,23.01,-5.859
0.281,-0.522,0.866,-0.854,19.775,-0.671
0.279,-0.473,0.885,-1.709,23.804,5.493
0.306,-0.532,0.806,0.244,27.344,10.681
0.289,-0.385,0.936,-0.244,28.564,11.902
0.257,-0.387,0.89,1.648,22.644,16.113
0.217,-0.338,0.908,4.7,13.977,18.616
0.169,-0.321,0.897,8.728,2.563,20.569
0.076,-0.327,0.879,11.902,-6.287,22.034
-0.0,-0.332,0.862,13.428,-8.972,20.935
-0.044,-0.352,0.866,13.733,-4.456,16.357
-0.014,-0.383,0.885,11.719,5.066,10.132
0.055,-0.383,0.909,8.484,14.587,4.272
0.142,-0.349,0.926,3.967,19.653,0.793
0.209,-0.299,0.934,0.061,18.982,-0.061
0.261,-0.257,0.942,-1.343,13.0,1.892
0.283,-0.25,0.941,-0.122,3.052,5.92
0.249,-0.263,0.936,2.686,-7.996,10.986
0.183,-0.289,0.941,5.676,-15.869,15.686
0.148,-0.348,0.932,7.324,-19.043,19.287
0.085,-0.39,0.911,7.507,-18.005,18.921
0.023,-0.408,0.903,5.432,-11.963,14.709
0.018,-0.415,0.898,3.174,-2.686,8.301
0.045,-0.432,0.903,1.77,8.057,0.977
0.098,-0.468,0.891,0.305,18.127,-5.31
0.151,-0.492,0.864,-2.441,26.733,-11.108
0.211,-0.479,0.843,-6.714,33.142,-14.893
0.272,-0.476,0.829,-11.719,36.621,-14.771
0.308,-0.43,0.853,-16.663,37.842,-10.864
0.365,-0.397,0.871,-20.325,34.607,-4.639
0.396,-0.371,0.906,-20.752,26.245,0.732
0.407,-0.371,0.919,-20.386,14.648,5.859
0.364,-0.354,0.922,-19.287,2.625,9.644
0.304,-0.355,0.9,-17.212,-5.188,12.512
0.251,-0.368,0.875,-14.709,-6.836,13.794
0.227,-0.395,0.875,-12.939,-3.662,13.245
0.21,-0.427,0.882,-12.146,1.953,10.925
0.204,-0.456,0.896,-12.695,8.85,8.423
0.215,-0.478,0.907,-14.465,14.832,6.531
0.252,-0.474,0.928,-17.029,18.372,4.761
0.294,-0.417,0.969,-18.25,18.188,4.089
0.341,-0.408,0.978,-18.066,13.062,5.493
0.341,-0.399,0.999,-16.418,5.188,7.202
0.374,-0.412,1.022,-15.198,-3.784,9.766
0.376,-0.451,1.028,-13.794,-13.306,13.062
0.34,-0.457,1.037,-14.282,-21.484,16.785
0.299,-0.499,1.014,-15.076,-27.161,20.386
0.26,-0.513,1.014,-16.541,-29.053,21.851
0.237,-0.529,1.013,-18.555,-28.625,22.644
0.218,-0.543,1.016,-20.142,-26.917,21.973
0.227,-0.557,1.025,-21.057,-25.024,20.386
0.244,-0.573,1.024,-21.423,-24.231,19.226
0.273,-0.571,1.024,-21.24,-24.353,18.738
0.303,-0.592,1.017,-20.691,-26.306,19.104
0.327,-0.629,1.018,-19.531,-28.809,20.081
0.348,-0.657,1.016,-18.799,-31.555,21.362
0.337,-0.69,0.989,-18.738,-36.255,21.484
0.31,-0.703,0.949,-19.531,-39.795,19.653
-0.151,-2.127,1.559,16.418,-195.74,11.536
-0.313,-2.426,1.77,59.143,-191.345,10.254
-0.41,-2.823,2.036,98.511,-172.058,11.353
-0.276,-3.278,2.484,139.587,-142.212,0.0
-0.093,-3.569,2.645,181.274,-113.953,-41.687
0.061,-3.366,2.718,201.294,-76.477,-105.042
0.141,-3.108,2.49,191.345,-29.663,-164.307
0.363,-2.732,2.369,154.724,30.334,-197.205
0.645,-2.462,2.024,106.812,86.487,-201.538
0.979,-1.83,2.006,53.955,133.057,-193.909
1.194,-1.881,1.76,8.606,156.006,-167.053
1.307,-1.359,1.524,-30.579,153.198,-156.311
1.313,-0.6,1.87,-56.091,125.366,-137.329
1.345,-0.704,1.597,-62.744,69.702,-90.271
1.03,-0.8,1.364,-60.181,7.751,-48.218
0.713,-0.806,1.235,-60.486,-35.034,-7.629
0.342,-0.893,1.121,-53.223,-64.087,24.78
0.068,-1.016,1.121,-45.227,-73.12,51.392
-0.129,-1.273,0.914,-36.438,-74.646,66.528
-0.205,-1.665,1.042,-34.424,-56.274,63.538
-0.758,-1.179,1.288,-28.625,-49.927,42.114
-0.527,-1.978,1.052,-11.414,-63.904,46.997
-0.714,-1.634,1.15,-13.062,-37.964,18.311
-0.7,-1.683,1.083,-7.996,-14.16,5.554
-0.533,-1.316,1.07,-9.399,4.211,-11.963
-0.38,-1.216,0.895,-11.963,16.418,-17.212
-0.248,-1.002,0.908,-18.982,27.222,-18.86
-0.263,-1.003,0.547,-25.757,34.546,-14.526
-0.216,-0.656,0.783,-37.17,59.143,-15.137
0.008,-0.233,0.963,-34.424,67.261,-6.287
0.332,-0.335,1.078,-16.602,38.33,15.991
0.363,-0.39,1.005,-6.836,-1.709,31.128
0.126,-0.442,0.934,-2.869,-43.396,37.292
-0.054,-0.336,0.971,-3.479,-69.763,34.485
-0.243,-0.4,0.812,0.366,-84.106,30.945
-0.275,-0.354,0.891,-0.549,-73.792,23.254
-0.34,-0.393,0.823,0.305,-55.786,12.39
-0.366,-0.401,0.799,-0.854,-30.701,4.15
-0.302,-0.333,0.883,-5.127,-0.977,-1.16
-0.166,-0.351,0.938,-4.639,18.616,-3.479
-0.034,-0.351,0.998,-4.578,24.475,-6.409
0.013,-0.343,0.999,-4.822,16.724,-9.827
0.024,-0.333,0.979,-5.554,3.052,-10.62
-0.002,-0.297,0.97,-5.798,-10.498,-7.996
-0.011,-0.264,0.969,-4.761,-21.179,-3.662
-0.026,-0.282,0.939,-0.916,-28.87,1.831
-0.052,-0.294,0.934,2.625,-31.616,7.629
-0.085,-0.299,0.941,5.798,-31.25,12.756
-0.12,-0.315,0.95,9.766,-28.381,16.663
-0.14,-0.365,0.973,13.367,-23.071,19.531
-0.134,-0.437,1.015,15.991,-17.029,20.081
-0.138,-0.488,1.061,17.7,-13.794,16.052
-0.144,-0.516,1.085,17.273,-13.428,9.216
-0.157,-0.535,1.085,14.832,-14.282,2.136
-0.164,-0.545,1.072,10.681,-13.611,-2.869
-0.143,-0.543,1.054,5.31,-10.071,-5.92
-0.104,-0.508,1.018,-0.122,-6.165,-8.667
-0.067,-0.458,0.986,-4.517,-2.869,-10.803
-0.026,-0.408,0.962,-7.996,-0.916,-10.742
0.006,-0.358,0.949,-10.132,-1.465,-8.362
0.027,-0.316,0.931,-10.742,-4.761,-4.089
0.029,-0.289,0.923,-10.681,-9.399,1.709
0.026,-0.282,0.93,-9.827,-15.686,8.667
0.004,-0.286,0.938,-8.667,-24.048,14.16
-0.052,-0.306,0.928,-7.751,-32.898,17.273
-0.126,-0.345,0.917,-7.935,-39.429,18.616
-0.196,-0.37,0.907,-9.094,-41.26,17.639
-0.246,-0.386,0.895,-11.23,-39.001,14.893
-0.269,-0.394,0.883,-12.512,-33.264,10.681
-0.268,-0.387,0.872,-12.939,-25.818,5.737
-0.256,-0.373,0.873,-11.902,-17.944,0.366
-0.242,-0.352,0.878,-8.606,-10.559,-4.15
-0.216,-0.344,0.894,-3.662,-4.517,-7.263
-0.188,-0.35,0.919,2.686,0.732,-8.179
-0.166,-0.368,0.945,10.254,4.944,-7.08
-0.136,-0.406,0.987,18.372,8.911,-3.906
-0.085,-0.525,1.082,25.085,11.536,0.488
-0.019,-0.641,1.176,26.123,9.888,5.066
-0.038,-0.717,1.222,21.362,2.686,7.812
-0.065,-0.749,1.277,10.681,-5.859,10.864
-0.089,-0.751,1.3,-2.136,-13.855,14.954
-0.124,-0.74,1.29,-13.245,-20.63,18.86
-0.156,-0.727,1.269,-21.973,-25.208,22.278
-0.193,-0.721,1.248,-28.687,-27.588,25.513
-0.219,-0.717,1.218,-33.813,-27.344,27.649
-0.239,-0.721,1.185,-36.56,-25.208,27.832
-0.25,-0.723,1.141,-37.354,-21.606,25.635
-0.248,-0.719,1.105,-37.659,-16.174,21.729
-0.235,-0.706,1.077,-38.208,-9.583,18.494
-0.193,-0.679,1.053,-39.307,-3.906,16.846
-0.164,-0.665,1.034,-41.626,-0.061,17.334
-0.161,-0.63,1.02,-45.715,2.747,20.63
-0.157,-0.564,1.031,-50.171,5.31,26.55
-0.127,-0.516,1.048,-53.04,6.409,33.02
-0.114,-0.491,1.061,-53.65,3.845,37.415
-0.147,-0.492,1.065,-52.185,-1.282,37.781
-0.177,-0.504,1.061,-50.476,-5.859,35.095
-0.193,-0.529,1.049,-48.706,-8.972,29.236
-0.248,-0.569,1.029,-48.096,-9.033,20.508
-0.28,-0.583,1.001,-49.683,-2.93,11.475
-0.24,-0.541,0.986,-51.758,9.521,3.723
-0.167,-0.475,0.981,-51.636,23.254,-2.014
-0.085,-0.408,0.983,-49.011,33.203,-4.883
0.009,-0.348,0.978,-43.64,37.354,-5.371
0.063,-0.316,0.966,-35.828,34.363,-4.639
0.056,-0.321,0.953,-27.466,26.917,-3.601
0.036,-0.334,0.928,-20.691,20.081,-1.099
0.028,-0.336,0.923,-15.808,15.93,3.723
-0.0,-0.33,0.937,-12.695,13.855,8.728
-0.041,-0.36,0.965,-10.193,13.489,13.245
-0.057,-0.392,0.979,-8.667,14.648,16.479
-0.068,-0.382,0.994,-8.728,16.113,16.174
-0.095,-0.348,0.975,-9.521,16.479,13.306
-0.098,-0.289,0.956,-9.277,17.639,9.033
-0.092,-0.244,0.937,-7.446,19.165,4.089
-0.096,-0.224,0.908,-3.418,20.874,-1.404
-0.105,-0.22,0.879,0.671,23.804,-6.165
-0.082,-0.197,0.879,3.54,29.419,-10.681
-0.038,-0.152,0.902,5.798,35.339,-14.404
-0.057,-1.822,1.694,142.029,-195.923,5.92
-0.136,-2.236,2.05,209.9,-189.819,-30.762
-0.286,-2.934,2.368,267.334,-172.424,-68.176
-0.393,-3.51,2.576,296.204,-131.042,-103.76
-0.282,-3.693,2.551,286.743,-69.641,-140.625
0.009,-3.576,2.423,245.667,0.427,-181.702
0.392,-3.061,2.172,188.049,65.063,-232.849
0.782,-2.416,1.996,132.935,114.563,-269.958
1.221,-1.672,1.951,92.102,137.634,-274.719
1.595,-0.827,2.06,71.838,124.939,-245.789
1.774,-0.111,2.144,73.547,74.463,-191.04
1.808,0.21,2.172,86.67,-6.042,-122.07
1.541,-0.081,1.838,97.229,-99.243,-50.476
1.143,-0.627,1.624,92.224,-173.95,9.033
0.604,-1.152,1.359,71.472,-225.769,51.636
0.014,-1.529,1.137,34.119,-245.178,72.205
-0.461,-1.803,0.843,-6.348,-236.816,77.759
-0.804,-1.887,0.609,-43.579,-202.82,68.115
-1.022,-1.788,0.415,-72.937,-149.963,46.143
-1.05,-1.557,0.318,-89.844,-85.632,19.836
-0.875,-1.316,0.227,-91.248,-22.827,-5.432
-0.604,-1.085,0.237,-80.383,30.823,-27.405
-0.327,-0.866,0.265,-59.631,70.129,-44.983
-0.048,-0.703,0.347,-32.532,92.529,-54.749
0.138,-0.597,0.467,-3.357,100.647,-58.167
0.227,-0.595,0.657,24.17,101.074,-54.26
0.231,-0.68,0.879,47.729,95.032,-43.823
0.165,-0.868,1.104,66.04,85.327,-29.236
0.099,-1.198,1.334,79.163,76.843,-13.0
0.007,-1.572,1.499,86.853,72.51,0.244
-0.069,-1.85,1.607,84.9,73.792,8.301
-0.101,-1.937,1.636,70.984,76.477,13.611
-0.101,-1.839,1.592,45.288,78.125,20.63
-0.104,-1.614,1.492,13.062,74.707,29.236
-0.087,-1.312,1.33,-16.968,65.491,37.415
-0.08,-0.974,1.153,-38.574,52.002,44.678
-0.069,-0.641,1.052,-48.889,35.583,50.842
-0.037,-0.501,0.876,-48.95,14.893,58.655
-0.058,-0.215,1.007,-42.908,-3.601,64.819
0.01,-0.314,0.662,-30.579,-29.785,77.82
-0.19,-0.183,0.789,-21.301,-40.405,74.951
-0.169,-0.217,0.721,-16.724,-43.518,73.914
-0.17,-0.316,0.705,-9.705,-44.312,68.665
-0.203,-0.197,0.725,-10.681,-33.997,55.237
-0.197,-0.162,0.701,-11.108,-21.545,45.959
-0.176,-0.129,0.751,-11.292,-5.371,35.706
-0.096,-0.148,0.814,-10.193,9.583,28.442
0.007,-0.225,0.896,-9.338,19.897,23.56
0.065,-0.247,0.96,-10.376,22.949,18.738
0.094,-0.332,0.969,-11.719,19.348,18.066
0.075,-0.391,0.984,-14.648,15.32,18.433
0.059,-0.445,0.986,-17.212,12.512,18.677
0.062,-0.49,0.995,-19.836,11.902,18.188
0.089,-0.528,0.974,-22.583,12.268,17.578
0.1,-0.512,1.003,-25.024,13.245,15.259
0.11,-0.507,0.998,-25.391,12.512,12.634
0.091,-0.505,1.006,-24.353,13.306,9.155
0.086,-0.521,1.036,-21.24,15.32,5.188
0.093,-0.543,1.06,-17.517,16.479,1.099
0.106,-0.568,1.076,-15.198,18.066,-2.075
0.111,-0.566,1.07,-15.381,19.47,-3.113
0.136,-0.539,1.088,-17.456,20.02,-2.38
0.18,-0.513,1.089,-20.325,18.25,0.061
0.208,-0.503,1.07,-23.071,13.062,3.174
0.196,-0.47,1.039,-27.039,5.554,5.798
0.146,-0.434,0.966,-31.128,-1.343,7.263
0.086,-0.377,0.922,-34.912,-3.418,8.057
0.057,-0.333,0.871,-37.659,-1.587,8.85
0.049,-0.295,0.841,-39.49,2.258,9.46
0.056,-0.262,0.818,-39.551,6.287,9.216
0.076,-0.229,0.814,-37.781,8.606,8.301
0.091,-0.216,0.809,-34.119,9.338,6.836
0.092,-0.209,0.816,-29.175,8.728,5.127
0.094,-0.207,0.829,-24.231,7.996,3.967
0.112,-0.22,0.846,-19.592,7.935,4.272
0.138,-0.23,0.875,-15.869,7.324,5.432
0.155,-0.259,0.883,-13.306,5.859,7.141
0.14,-0.29,0.884,-12.939,4.944,8.606
0.154,-0.318,0.893,-13.794,5.493,10.254
0.172,-0.359,0.898,-15.747,6.104,10.498
0.164,-0.356,0.893,-18.738,5.554,7.751
0.159,-0.331,0.877,-21.24,3.906,4.7
0.166,-0.303,0.868,-22.705,2.441,2.869
0.176,-0.286,0.858,-22.339,0.854,2.38
0.187,-0.284,0.85,-20.264,-0.793,2.319
0.193,-0.288,0.846,-17.578,-2.014,2.014
0.194,-0.303,0.848,-14.404,-2.991,1.587
0.187,-0.308,0.849,-12.024,-3.357,0.488
0.173,-0.319,0.846,-9.644,-2.808,-1.465
0.166,-0.322,0.849,-7.935,-0.977,-3.418
0.166,-0.325,0.853,-7.202,1.404,-5.981
0.17,-0.326,0.854,-8.24,4.211,-7.446
0.187,-0.336,0.869,-9.033,5.798,-7.568
0.192,-0.338,0.875,-9.644,5.371,-8.179
0.191,-0.338,0.877,-9.827,3.235,-8.484
0.2,-0.334,0.891,-10.01,0.732,-7.935
0.203,-0.335,0.899,-9.46,-2.319,-5.981
0.206,-0.333,0.908,-9.766,-5.737,-3.174
0.21,-0.333,0.917,-9.827,-9.338,-0.427
0.201,-0.337,0.926,-9.766,-13.0,2.075
0.181,-0.344,0.929,-9.155,-16.357,3.906
0.153,-0.353,0.935,-8.85,-17.7,5.249
0.135,-0.371,0.949,-8.728,-16.785,6.042
0.13,-0.396,0.973,-8.789,-13.977,6.104
0.138,-0.422,1.004,-8.301,-10.864,5.371
0.167,-0.457,1.038,-7.568,-8.789,4.578
0.185,-0.493,1.065,-7.507,-9.216,4.15
0.197,-0.512,1.086,-8.179,-11.292,5.005
0.188,-0.535,1.109,-9.033,-14.038,7.019
0.162,-0.57,1.123,-9.583,-15.808,10.071
0.128,-0.614,1.124,-10.01,-15.503,12.695
0.082,-0.651,1.119,-11.23,-12.024,14.343
0.047,-0.679,1.107,-13.489,-4.272,15.747
-0.009,-0.679,1.071,-16.357,9.216,16.968
-0.021,-0.63,1.036,-19.714,31.067,19.897
0.01,-0.611,1.026,-20.874,59.692,26.001
0.072,-0.624,1.046,-20.081,92.957,34.546
0.347,-0.705,1.182,-19.836,123.352,44.861
0.629,-0.735,1.287,-22.339,134.338,48.401
0.707,-0.561,1.318,-30.334,95.947,27.954
0.698,-0.507,1.289,-32.593,65.857,20.325
0.604,-0.482,1.234,-33.325,36.804,13.123
0.496,-0.467,1.15,-34.302,15.503,7.08
0.396,-0.417,1.072,-35.645,5.859,3.113
0.322,-0.35,1.007,-36.194,6.409,-0.366
0.275,-0.308,0.963,-35.095,13.489,-2.991
0.267,-0.307,0.939,-33.691,22.461,-6.409
0.272,-0.319,0.929,-33.63,28.931,-12.024
0.272,-0.31,0.911,-35.4,30.64,-19.226
0.27,-0.295,0.89,-37.842,28.137,-26.672
0.27,-0.277,0.857,-40.588,22.461,-32.349
0.265,-0.234,0.821,-43.518,15.991,-35.339
0.249,-0.183,0.789,-44.556,10.071,-35.889
0.24,-0.151,0.775,-42.114,5.432,-34.729
0.219,-0.145,0.782,-36.865,2.747,-30.945
0.223,-0.144,0.814,-30.884,2.014,-24.353
0.218,-0.156,0.861,-24.475,2.197,-16.846
0.226,-0.165,0.902,-19.226,2.075,-9.46
0.262,-0.19,0.953,-15.137,0.122,-3.967
0.265,-0.228,0.985,-12.268,-5.249,-2.136
0.233,-0.252,0.989,-10.742,-13.0,-3.906
0.167,-0.269,0.964,-10.498,-18.616,-8.606
0.112,-0.26,0.939,-10.925,-18.311,-14.16
0.09,-0.241,0.932,-11.841,-11.902,-18.86
0.118,-0.225,0.953,-11.353,-2.808,-22.949
0.16,-0.223,0.977,-9.583,4.333,-26.855
0.198,-0.203,0.999,-7.385,7.69,-30.884
0.206,-0.186,1.006,-4.578,8.423,-34.18
0.192,-0.207,1.017,-1.648,9.338,-37.048
0.179,-0.234,1.032,-0.427,13.306,-38.635
0.23,-0.239,1.047,-1.465,19.226,-38.574
0.294,-0.232,1.062,-3.357,23.01,-36.56
0.356,-0.209,1.083,-5.31,21.729,-32.593
0.383,-0.178,1.093,-6.287,16.235,-27.1
0.381,-0.145,1.094,-5.92,8.301,-20.63
0.35,-0.131,1.096,-3.906,0.977,-13.306
0.321,-0.16,1.105,-0.427,-3.784,-5.615
0.3,-0.206,1.122,2.075,-6.042,0.916
0.268,-0.237,1.119,1.709,-6.531,5.31
0.245,-0.246,1.102,-0.916,-5.066,7.446
0.226,-0.248,1.082,-4.15,-1.953,7.324
0.209,-0.228,1.066,-7.08,1.953,5.981
0.214,-0.206,1.049,-9.216,5.981,3.967
0.216,-0.206,1.029,-10.498,9.277,1.953
0.223,-0.192,1.016,-11.963,12.756,1.099
0.244,-0.182,1.012,-12.817,15.442,1.648
0.251,-0.172,1.012,-12.939,17.273,3.296
0.27,-0.166,1.018,-12.39,18.738,5.737
0.284,-0.168,1.012,-11.597,18.86,7.874
0.289,-0.158,1.013,-10.681,18.005,8.911
0.304,-0.16,1.017,-9.705,17.029,9.338
0.317,-0.174,1.015,-8.728,15.625,8.789
0.311,-0.191,1.001,-9.583,14.709,7.507
0.308,-0.193,0.988,-12.024,15.015,6.897
0.312,-0.186,0.981,-14.771,17.334,6.653
0.309,-0.177,0.972,-16.724,21.667,6.042
0.34,-0.173,0.963,-17.517,26.001,6.409
0.35,-0.16,0.943,-17.761,29.053,6.653
0.329,-0.126,0.931,-18.372,32.166,6.592
0.345,-0.107,0.942,-17.334,34.119,7.812
0.354,-0.102,0.916,-15.32,33.264,9.888
0.346,-0.091,0.911,-13.855,32.043,11.475
0.358,-0.077,0.916,-11.719,29.968,12.634
0.368,-0.073,0.924,-8.118,24.902,13.367
0.358,-0.085,0.921,-4.578,18.311,13.428
0.351,-0.1,0.927,-1.77,11.23,13.794
0.344,-0.15,0.935,-0.916,4.211,16.174
0.313,-0.18,0.934,-4.15,-1.038,20.203
0.301,-0.175,0.921,-11.047,-4.028,24.719
0.287,-0.165,0.899,-18.799,-4.883,28.259
0.262,-0.139,0.871,-26.672,-3.906,29.175
0.253,-0.084,0.852,-32.288,-1.892,27.771
0.264,-0.034,0.839,-34.424,0.305,25.452
0.264,-0.002,0.824,-33.447,1.648,23.132
0.271,0.025,0.814,-30.579,2.258,21.301
0.292,0.047,0.807,-26.489,1.892,20.203
0.317,0.057,0.8,-21.423,-0.305,18.921
0.336,0.063,0.794,-15.808,-4.272,16.907
0.334,0.067,0.776,-10.498,-9.827,13.367
0.316,0.075,0.755,-4.7,-15.381,8.423
0.292,0.08,0.735,1.831,-19.226,3.235
0.267,0.072,0.722,8.118,-20.325,-1.16
0.249,0.056,0.715,12.939,-18.25,-2.991
0.248,0.05,0.712,16.113,-14.343,-2.747
0.256,0.044,0.723,17.883,-9.827,-1.343
0.267,0.034,0.735,18.738,-6.165,0.793
0.294,0.027,0.752,18.921,-4.456,3.113
0.316,0.02,0.762,18.311,-4.761,5.066
0.305,0.012,0.751,17.578,-6.836,5.737
0.271,0.02,0.738,17.334,-8.301,5.066
0.256,0.033,0.751,17.883,-7.69,3.784
0.282,0.053,0.779,18.86,-8.301,2.38
0.312,0.052,0.766,20.142,-12.939,1.587
0.31,0.04,0.749,20.325,-17.395,1.709
0.27,0.029,0.71,19.409,-20.264,2.014
0.215,0.025,0.673,17.639,-18.677,2.991
0.184,0.023,0.656,15.381,-12.329,4.272
0.178,0.018,0.645,12.756,-3.54,4.578
0.205,0.018,0.647,10.071,5.31,4.395
0.253,0.019,0.662,6.775,11.597,4.639
0.303,0.026,0.679,4.211,13.123,5.188
0.331,0.041,0.687,3.113,10.132,6.042
0.342,0.057,0.697,4.211,4.7,7.996
0.348,0.06,0.715,7.202,-1.465,11.536
0.344,0.054,0.722,11.719,-7.874,15.381
0.331,0.044,0.729,16.296,-13.489,18.616
0.313,0.027,0.741,21.179,-17.395,20.386
0.293,0.007,0.749,25.146,-19.653,20.63
0.277,-0.005,0.757,27.466,-20.325,20.02
0.263,-0.015,0.759,28.381,-19.897,18.433
0.245,-0.021,0.757,28.503,-17.578,15.991
0.242,-0.031,0.764,27.771,-13.306,13.428
0.25,-0.053,0.777,25.94,-8.362,11.047
0.257,-0.068,0.783,22.4,-4.028,7.751
0.257,-0.078,0.786,18.372,-0.549,4.15
0.265,-0.09,0.786,13.794,2.563,1.648
0.286,-0.089,0.791,9.338,5.188,0.061
0.3,-0.082,0.79,4.761,6.348,-1.709
0.366,-1.262,1.699,-45.044,-122.742,-10.01
0.319,-1.563,1.786,-31.372,-143.005,7.446
0.104,-1.871,1.771,-14.709,-163.086,30.334
-0.0,-2.079,1.739,2.808,-173.279,57.129
-0.049,-2.2,1.819,27.283,-174.927,78.125
-0.185,-2.236,1.904,65.674,-174.5,79.346
-0.373,-2.166,1.974,116.516,-168.152,60.425
-0.517,-1.994,1.997,171.021,-150.208,27.344
-0.707,-2.094,1.897,220.459,-122.009,-3.418
-0.852,-2.219,1.751,248.352,-79.346,-35.645
-0.818,-2.364,1.549,251.587,-23.254,-70.984
-0.629,-2.365,1.362,233.826,46.57,-116.333
-0.314,-2.256,1.227,199.158,125.732,-165.527
0.057,-2.088,1.044,151.001,198.792,-207.153
0.454,-1.784,0.962,98.206,256.042,-231.445
0.87,-1.429,0.876,51.453,287.354,-230.103
1.204,-1.076,0.928,17.456,288.391,-203.674
1.355,-0.789,1.043,-0.732,255.859,-157.41
1.344,-0.637,1.181,-4.395,193.42,-102.173
1.217,-0.666,1.208,-1.099,107.239,-46.57
0.967,-0.808,1.075,0.732,11.902,3.174
0.665,-0.946,0.904,-3.479,-74.829,43.945
0.348,-1.017,0.739,-10.62,-141.479,72.754
0.022,-1.057,0.576,-16.663,-185.059,86.67
-0.272,-1.072,0.495,-20.874,-202.332,87.585
-0.469,-1.099,0.455,-23.682,-195.374,80.139
-0.54,-1.106,0.45,-28.015,-170.044,67.566
-0.575,-1.073,0.487,-32.227,-133.545,51.147
-0.589,-1.02,0.558,-34.241,-92.346,32.715
-0.527,-0.974,0.631,-34.241,-51.27,14.771
-0.41,-0.929,0.689,-32.593,-15.32,-1.038
-0.286,-0.871,0.736,-30.945,12.573,-13.489
-0.15,-0.81,0.778,-30.029,33.203,-20.752
-0.013,-0.749,0.826,-28.992,46.265,-21.24
0.085,-0.699,0.876,-27.222,50.842,-16.235
0.13,-0.666,0.924,-24.353,46.936,-7.996
0.131,-0.675,0.984,-18.921,36.987,1.465
0.121,-0.762,1.06,-12.207,22.339,11.353
0.047,-0.935,1.04,-4.761,4.211,18.127
-0.034,-1.135,1.128,1.099,-8.728,19.348
-0.165,-1.228,1.168,4.578,-16.357,14.526
-0.178,-1.349,1.099,4.822,-16.785,6.775
-0.328,-1.269,1.036,0.122,-7.141,-2.014
-0.275,-1.243,1.0,-10.071,15.259,-1.465
-0.164,-1.082,1.004,-20.02,37.598,-2.441
-0.057,-0.955,0.973,-28.992,51.575,-0.732
0.06,-0.744,0.989,-37.231,56.58,1.831
0.14,-0.58,0.983,-40.039,48.889,7.996
0.184,-0.49,0.972,-37.476,31.799,17.7
0.204,-0.469,0.956,-31.616,10.803,28.137
0.192,-0.472,0.914,-25.818,-10.071,36.316
0.119,-0.447,0.879,-21.667,-28.259,41.199
0.039,-0.458,0.832,-17.334,-40.894,44.006
-0.053,-0.465,0.773,-13.489,-45.044,42.908
-0.141,-0.448,0.75,-10.132,-39.49,37.659
-0.181,-0.443,0.746,-7.141,-26.001,30.334
-0.177,-0.444,0.753,-4.944,-9.521,21.851
-0.148,-0.424,0.786,-4.333,6.409,13.611
-0.094,-0.403,0.822,-2.869,18.494,6.287
-0.043,-0.37,0.869,0.0,25.696,0.183
-0.028,-0.387,0.844,3.967,27.771,-3.967
-0.007,-0.444,0.916,6.653,29.724,-6.592
0.012,-0.467,0.89,8.667,26.917,-8.423
0.022,-0.512,0.918,8.85,24.109,-6.287
0.024,-0.522,0.911,7.385,21.729,-4.333
0.028,-0.536,0.912,7.202,20.935,-2.441
0.02,-0.555,0.903,7.568,21.24,-1.648
0.014,-0.55,0.92,8.057,23.804,-2.38
0.042,-0.594,0.922,9.521,26.367,-2.869
0.06,-0.607,0.943,9.644,28.259,-3.357
0.074,-0.596,0.95,8.423,27.527,-3.235
0.108,-0.607,0.951,7.446,23.987,-1.526
0.124,-0.598,0.98,5.615,18.86,1.16
0.112,-0.594,0.933,3.113,11.292,4.944
0.071,-0.566,0.915,-0.122,6.287,7.812
0.032,-0.546,0.875,-2.869,3.723,9.46
0.013,-0.52,0.846,-5.188,4.211,9.46
0.018,-0.497,0.832,-6.531,6.165,8.057
0.01,-0.482,0.811,-7.568,7.751,6.287
0.002,-0.456,0.808,-8.484,9.521,4.761
0.01,-0.432,0.804,-8.24,10.315,3.418
0.029,-0.412,0.81,-7.08,9.949,2.319
0.05,-0.398,0.823,-5.249,7.812,1.892
0.052,-0.404,0.826,-2.808,4.639,2.502
0.043,-0.417,0.836,-1.221,1.526,4.028
0.032,-0.433,0.842,-0.305,-0.732,5.981
0.024,-0.445,0.848,-0.061,-1.709,7.08
0.014,-0.457,0.838,-0.366,-1.404,6.958
0.019,-0.474,0.838,-0.854,0.183,6.592
0.032,-0.473,0.84,-1.404,2.014,6.226
0.046,-0.469,0.841,-2.258,3.052,5.493
0.046,-0.47,0.841,-2.441,2.747,4.15
0.044,-0.469,0.84,-2.136,2.625,3.479
0.046,-0.47,0.838,-1.892,2.258,3.113
0.043,-0.474,0.835,-1.221,2.014,2.686
0.046,-0.478,0.836,0.244,1.831,1.587
0.055,-0.481,0.835,1.282,2.014,0.366
0.055,-0.488,0.839,2.502,1.343,-0.366
0.06,-0.508,0.852,3.296,0.793,-0.305
0.065,-0.523,0.863,2.808,0.122,0.977
0.061,-0.519,0.865,0.977,-0.305,2.014
0.058,-0.503,0.865,-1.099,-0.916,2.197
0.054,-0.479,0.862,-2.686,-0.977,1.648
0.049,-0.461,0.852,-2.869,-0.793,0.854
0.043,-0.448,0.848,-2.441,-0.366,0.305
0.042,-0.438,0.845,-1.648,0.366,-0.061
0.044,-0.439,0.839,-0.305,0.61,-0.244
0.045,-0.444,0.842,1.404,0.916,-0.366
0.047,-0.454,0.847,2.38,1.16,-0.488
0.054,-0.459,0.851,2.502,1.038,-0.366
0.061,-0.458,0.861,2.38,0.366,0.183
0.06,-0.461,0.868,2.563,-0.732,0.427
0.053,-0.462,0.873,3.174,-1.526,0.671
0.045,-0.467,0.87,3.54,-1.953,1.221
0.042,-0.475,0.866,3.784,-1.648,1.709
0.04,-0.481,0.865,3.418,-1.16,1.648
0.042,-0.48,0.865,2.808,-0.366,1.404
0.045,-0.476,0.865,1.953,0.305,1.465
0.053,-0.474,0.867,1.221,0.671,1.587
-0.09,-1.494,1.509,5.31,-144.714,0.244
-0.116,-1.717,1.5,3.784,-158.752,11.108
-0.251,-1.978,1.515,14.893,-165.771,8.85
-0.466,-2.281,1.575,41.687,-160.706,-3.662
-0.637,-2.542,1.661,83.435,-140.564,-18.066
