aX,aY,aZ,gX,gY,gZ
1.476,-0.439,-1.356,-274.719,229.004,-101.257
1.565,-0.543,-1.671,-268.982,237.0,-111.572
1.63,-0.534,-2.086,-245.117,243.164,-116.76
1.685,-0.409,-2.475,-194.763,251.831,-112.915
1.713,-0.194,-2.693,-117.981,261.963,-97.595
1.742,0.157,-2.643,-8.911,268.311,-68.604
1.855,0.351,-2.248,136.169,260.315,-29.785
1.827,0.055,-1.766,297.852,232.788,20.386
1.482,-0.326,-1.645,436.89,199.707,75.073
1.152,-0.244,-1.409,542.664,170.105,117.981
0.992,-0.12,-1.384,637.268,135.681,155.334
0.379,-2.296,1.338,736.511,116.394,185.364
2.266,-3.107,4.0,153.931,493.347,70.435
0.061,4.0,-4.0,-873.657,97.534,-5.676
2.791,4.0,-3.011,-554.199,-322.815,249.207
-1.397,3.608,1.552,-121.216,-112.793,174.683
-0.792,2.365,1.101,51.819,37.292,93.384
0.834,1.41,-0.695,100.159,-45.654,127.502
0.789,0.344,-1.23,165.405,-91.858,111.755
0.232,-0.016,-0.872,217.285,-36.316,76.111
0.143,0.062,-0.524,236.45,-4.822,57.922
0.602,-0.025,-0.343,255.371,21.729,62.378
0.871,-0.218,-0.241,275.879,50.232,57.8
0.728,-0.242,-0.086,268.311,59.448,35.339
0.681,-0.062,0.058,252.136,64.697,9.583
0.824,0.051,0.156,233.948,55.725,-0.305
1.11,0.114,0.328,210.693,38.208,0.854
1.17,0.128,0.46,184.937,10.803,9.888
1.128,0.334,0.54,153.32,-27.039,25.696
0.921,0.183,0.476,122.803,-63.904,45.959
0.797,0.441,0.455,90.698,-85.205,46.509
0.619,0.364,0.303,64.575,-88.135,52.002
0.5,0.353,0.334,43.884,-74.28,42.48
0.55,0.566,0.468,25.94,-62.439,28.381
0.481,0.496,0.267,13.428,-64.331,23.071
0.418,0.469,0.294,0.732,-47.363,13.672
0.368,0.532,0.258,-12.39,-26.062,2.38
0.452,0.602,0.251,-20.142,-3.479,-4.944
0.611,0.678,0.345,-23.926,11.841,-8.972
0.627,0.557,0.271,-27.771,5.737,-11.536
0.508,0.534,0.24,-32.654,-1.099,-21.118
0.529,0.627,0.211,-39.612,-5.615,-31.616
0.581,0.609,0.171,-42.908,-4.15,-34.485
0.653,0.673,0.215,-44.983,-1.465,-37.354
0.568,0.624,0.153,-45.044,-5.981,-37.72
0.61,0.687,0.166,-46.204,-5.676,-40.649
0.57,0.673,0.114,-44.983,-3.601,-41.809
0.502,0.69,0.098,-42.786,4.395,-44.373
0.585,0.761,0.212,-40.039,16.174,-45.654
0.616,0.675,0.178,-35.4,18.005,-44.006
0.607,0.652,0.173,-33.997,18.127,-47.119
0.626,0.644,0.204,-34.912,20.569,-48.95
0.643,0.607,0.205,-36.865,19.714,-48.279
0.644,0.549,0.204,-40.161,17.09,-47.607
0.629,0.54,0.219,-45.898,13.733,-49.5
0.647,0.551,0.266,-52.551,11.902,-50.903
0.668,0.544,0.252,-60.242,8.362,-49.011
0.675,0.543,0.237,-67.017,4.15,-47.546
0.658,0.569,0.205,-72.327,0.488,-47.974
0.637,0.578,0.158,-74.707,0.244,-48.157
0.659,0.603,0.158,-75.073,4.15,-49.255
0.697,0.636,0.15,-73.242,6.287,-50.842
0.725,0.659,0.141,-68.726,5.676,-51.819
0.745,0.679,0.136,-61.707,2.93,-52.979
0.744,0.681,0.103,-53.162,-1.892,-53.589
0.747,0.662,0.084,-43.701,-5.798,-54.138
0.783,0.648,0.098,-35.095,-8.118,-55.42
0.801,0.609,0.099,-28.381,-10.01,-54.932
0.791,0.544,0.076,-24.719,-10.864,-51.941
0.806,0.517,0.091,-25.269,-8.972,-48.523
0.848,0.524,0.102,-28.137,-6.287,-46.143
0.887,0.55,0.115,-31.372,-5.615,-43.701
0.93,0.595,0.127,-33.569,-8.484,-40.71
0.94,0.606,0.112,-33.02,-14.526,-36.621
0.93,0.622,0.095,-31.067,-20.752,-33.264
0.91,0.63,0.08,-26.917,-25.146,-30.212
0.882,0.63,0.077,-21.851,-27.1,-27.771
0.863,0.613,0.071,-16.113,-26.367,-25.635
0.878,0.595,0.097,-11.475,-23.56,-23.193
0.919,0.581,0.12,-8.179,-21.912,-19.714
0.959,0.558,0.145,-5.737,-23.56,-15.869
0.97,0.544,0.166,-5.493,-28.137,-11.658
0.964,0.536,0.172,-6.775,-34.058,-7.019
0.957,0.528,0.171,-8.728,-40.039,-3.174
0.927,0.527,0.168,-10.559,-44.373,-0.61
0.893,0.536,0.158,-12.207,-46.509,1.526
0.867,0.542,0.149,-13.367,-46.021,3.235
0.836,0.547,0.145,-13.977,-42.847,3.54
0.807,0.545,0.145,-14.099,-37.415,2.258
0.797,0.547,0.152,-13.855,-30.884,0.183
0.802,0.539,0.157,-13.123,-25.208,-2.014
0.795,0.522,0.159,-12.634,-21.179,-3.662
0.781,0.504,0.157,-12.634,-18.616,-5.127
0.773,0.493,0.163,-12.878,-16.479,-6.592
0.772,0.487,0.168,-13.245,-14.954,-7.446
0.77,0.47,0.171,-14.465,-13.855,-7.874
0.756,0.449,0.167,-15.747,-12.695,-8.484
0.746,0.428,0.164,-18.311,-10.681,-9.094
0.726,0.411,0.168,-21.667,-8.057,-9.949
0.702,0.41,0.172,-26.001,-4.883,-10.864
0.696,0.419,0.172,-30.09,-0.854,-11.902
0.712,0.424,0.166,-32.898,3.662,-13.55
0.723,0.415,0.157,-35.034,7.141,-15.625
0.724,0.411,0.145,-37.537,9.888,-18.005
0.734,0.417,0.14,-39.673,12.39,-20.569
0.755,0.425,0.137,-41.321,14.404,-23.193
0.763,0.433,0.132,-42.419,15.808,-25.513
0.773,0.443,0.13,-42.847,16.785,-27.283
0.783,0.451,0.124,-42.48,17.822,-28.564
0.792,0.456,0.12,-41.87,18.677,-29.602
0.802,0.458,0.116,-40.71,18.86,-30.579
0.817,0.459,0.112,-39.551,18.616,-31.616
0.832,0.462,0.109,-38.452,18.005,-32.471
0.849,0.469,0.106,-37.476,16.663,-32.532
0.86,0.475,0.103,-36.438,14.16,-31.799
0.87,0.482,0.099,-35.767,11.536,-30.273
0.876,0.492,0.088,-35.217,8.972,-28.87
0.887,0.498,0.079,-34.485,6.958,-27.405
0.899,0.509,0.076,-33.325,5.249,-25.574
1.16,-0.735,-1.561,-224.426,48.767,-27.649
1.23,-1.068,-2.005,-232.971,48.035,-32.227
1.227,-1.319,-2.468,-226.746,53.101,-33.997
1.199,-1.173,-2.922,-204.163,72.266,-32.898
1.258,-0.566,-3.205,-146.667,96.008,-27.1
1.324,0.269,-3.139,-41.138,106.14,-17.7
1.369,0.668,-2.578,123.535,103.333,-5.92
1.315,0.392,-1.935,324.341,103.027,9.583
1.062,0.183,-1.785,504.089,102.051,27.893
0.759,0.208,-2.051,646.667,105.957,47.058
0.698,0.002,-2.003,778.015,134.888,58.167
0.969,-0.387,-1.548,888.367,151.062,51.575
0.553,-4.0,4.0,937.439,146.118,28.992
1.816,-2.64,4.0,-235.291,569.519,-74.646
0.299,4.0,-2.663,-733.459,425.598,125.0
2.808,4.0,-2.202,-676.453,-35.645,222.961
1.241,4.0,-0.1,-236.877,-169.861,76.111
-0.237,3.105,0.096,34.729,-242.31,66.406
0.396,1.665,0.158,126.526,-245.911,100.342
0.955,0.882,0.383,177.551,-197.876,124.756
0.829,0.567,0.171,204.407,-204.468,140.869
0.326,0.363,-0.081,224.182,-238.159,132.385
0.226,0.078,-0.173,242.432,-222.595,109.619
0.305,-0.163,-0.285,246.948,-167.419,85.51
0.447,-0.188,-0.296,239.624,-101.074,59.326
0.554,-0.12,-0.288,231.018,-51.27,37.109
0.651,-0.035,-0.177,220.703,-22.583,15.198
0.663,-0.019,-0.001,204.956,-4.883,4.395
0.649,-0.118,0.155,179.016,7.812,3.845
0.659,-0.213,0.222,141.479,19.043,1.892
0.689,-0.094,0.329,93.079,31.372,-4.822
0.762,0.178,0.422,48.889,34.729,-9.094
0.816,0.205,0.431,19.409,27.161,-9.705
0.816,0.41,0.417,-0.793,14.954,-17.334
0.741,0.483,0.385,-13.184,7.08,-20.02
0.688,0.578,0.361,-20.63,5.737,-25.757
0.645,0.623,0.307,-21.606,5.737,-33.081
0.719,0.745,0.347,-15.991,6.042,-40.71
0.61,0.635,0.259,-6.409,3.723,-40.344
0.672,0.63,0.326,-0.183,7.141,-43.274
0.756,0.566,0.295,4.7,5.188,-44.739
0.72,0.485,0.163,7.08,-1.709,-45.227
0.626,0.403,0.141,3.784,1.404,-43.64
0.675,0.448,0.189,-3.662,7.812,-44.983
0.778,0.509,0.266,-10.925,9.216,-43.396
0.77,0.453,0.194,-16.418,1.404,-39.001
0.777,0.507,0.198,-25.208,-3.479,-38.879
0.739,0.523,0.153,-31.433,-5.676,-38.574
0.707,0.564,0.123,-34.424,-4.028,-40.222
0.709,0.608,0.124,-35.156,1.282,-41.138
0.719,0.611,0.13,-32.959,6.714,-40.039
0.748,0.634,0.148,-30.273,10.437,-38.574
0.785,0.616,0.174,-27.222,13.062,-35.461
0.817,0.587,0.184,-25.024,11.475,-30.273
0.833,0.558,0.205,-25.513,5.737,-23.865
0.845,0.549,0.221,-28.687,-1.587,-18.677
0.836,0.549,0.218,-32.654,-9.705,-15.137
0.814,0.552,0.212,-36.438,-16.785,-13.916
0.804,0.546,0.209,-39.612,-22.278,-14.954
0.79,0.537,0.211,-42.542,-24.719,-17.212
0.775,0.53,0.21,-46.57,-23.437,-19.958
0.776,0.536,0.209,-50.598,-19.104,-22.034
0.786,0.55,0.202,-53.894,-12.756,-23.193
0.797,0.546,0.193,-56.946,-5.493,-24.109
0.815,0.547,0.189,-59.753,1.648,-26.062
0.841,0.57,0.181,-62.012,7.141,-28.442
0.855,0.581,0.161,-62.439,10.071,-30.029
0.853,0.563,0.131,-61.218,11.841,-30.701
0.843,0.55,0.103,-60.059,13.123,-30.884
0.842,0.552,0.105,-59.753,14.954,-31.189
0.846,0.556,0.108,-59.387,17.151,-31.128
0.864,0.561,0.107,-58.228,18.311,-29.907
0.876,0.56,0.104,-56.763,17.822,-27.283
0.884,0.559,0.092,-55.298,16.113,-23.743
0.896,0.562,0.081,-53.711,13.733,-20.02
0.906,0.565,0.072,-51.575,10.864,-16.541
0.905,0.574,0.066,-47.913,6.287,-13.489
0.894,0.583,0.061,-43.518,1.16,-10.62
0.887,0.591,0.059,-37.903,-3.723,-8.24
0.869,0.583,0.05,-31.25,-7.996,-5.981
0.851,0.568,0.05,-24.78,-10.864,-4.15
0.829,0.556,0.065,-19.836,-11.78,-3.296
0.824,0.543,0.084,-15.747,-10.925,-3.174
0.82,0.532,0.094,-12.878,-9.521,-2.991
0.82,0.512,0.097,-11.169,-7.629,-2.869
0.831,0.495,0.102,-10.193,-5.859,-2.686
0.839,0.484,0.106,-10.437,-4.517,-2.563
0.847,0.473,0.108,-11.597,-3.723,-2.563
0.848,0.471,0.106,-13.123,-3.113,-2.014
0.849,0.481,0.112,-15.076,-2.136,-1.282
0.856,0.495,0.11,-16.785,-1.343,-0.244
0.86,0.507,0.107,-17.151,-1.221,0.793
0.858,0.518,0.098,-17.151,-1.587,1.587
0.849,0.523,0.09,-15.93,-2.258,1.526
0.836,0.528,0.083,-13.977,-2.136,1.038
0.828,0.526,0.084,-11.719,-1.099,0.366
0.82,0.509,0.084,-9.521,0.854,-0.122
0.82,0.494,0.089,-7.935,3.54,-0.427
0.828,0.484,0.101,-8.179,6.897,-0.488
0.842,0.482,0.109,-9.216,9.583,-0.488
0.857,0.487,0.119,-10.62,10.803,0.061
0.87,0.486,0.124,-11.78,10.01,1.16
0.876,0.484,0.118,-12.695,7.812,2.93
0.881,0.487,0.115,-13.428,4.578,4.7
0.88,0.497,0.115,-14.282,1.221,6.165
0.866,0.501,0.113,-13.916,-1.953,6.836
0.853,0.503,0.11,-13.123,-4.395,7.08
0.836,0.504,0.105,-12.329,-5.371,7.019
0.81,0.496,0.095,-11.23,-4.944,6.348
0.796,0.487,0.092,-10.254,-3.296,4.761
0.783,0.482,0.091,-9.888,-0.732,2.563
0.776,0.475,0.093,-9.766,2.136,0.305
0.78,0.475,0.103,-10.376,4.7,-1.77
0.791,0.472,0.111,-11.719,6.653,-3.052
0.803,0.466,0.11,-13.0,7.751,-3.479
0.82,0.471,0.111,-14.771,7.935,-3.418
0.829,0.479,0.108,-16.907,7.446,-3.113
0.835,0.489,0.103,-18.372,6.165,-2.93
0.83,0.492,0.1,-18.921,4.7,-2.502
1.014,-0.48,-1.98,-130.371,61.035,-90.088
1.091,-0.471,-2.241,-94.849,68.787,-89.6
1.19,-0.336,-2.287,-37.231,70.496,-75.867
1.27,-0.178,-2.353,46.448,57.556,-47.852
1.291,-0.228,-2.367,160.217,31.921,-9.583
1.209,-0.381,-2.165,276.489,12.939,33.997
1.076,-0.438,-1.934,373.23,3.601,78.247
0.914,-0.312,-1.813,459.106,-0.183,116.211
0.849,-0.137,-1.693,543.762,-0.793,145.081
0.928,0.023,-1.499,627.136,2.075,160.339
1.06,0.082,-1.3,710.571,7.629,161.743
1.114,-0.185,-1.13,796.448,10.132,154.358
3.106,-4.0,4.0,490.54,290.588,80.811
1.058,3.53,0.662,-703.491,700.623,-13.855
1.575,4.0,-3.44,-626.526,-52.368,166.077
2.054,4.0,-0.343,-339.294,-183.411,88.501
0.302,2.878,0.894,-7.751,-158.325,39.795
0.593,1.874,0.072,94.177,-193.787,54.626
1.148,1.239,-0.037,130.981,-236.45,72.51
0.985,0.846,-0.045,177.063,-256.775,99.67
0.481,0.583,-0.164,212.708,-275.33,125.671
0.033,0.358,-0.263,235.107,-263.489,131.47
-0.048,0.017,-0.261,262.878,-202.454,121.033
0.193,-0.203,-0.11,272.888,-129.456,96.68
0.502,-0.189,0.067,265.93,-72.998,71.106
0.603,-0.259,0.071,255.188,-38.086,50.72
0.633,-0.179,0.148,237.854,-10.986,28.076
0.624,-0.014,0.207,215.332,9.583,16.968
0.618,-0.09,0.261,192.2,24.719,18.494
0.652,-0.185,0.46,162.354,40.894,13.55
0.787,0.067,0.562,118.347,44.861,9.094
0.658,-0.081,0.386,77.087,41.443,21.484
0.903,0.171,0.647,34.485,49.988,15.137
0.933,0.287,0.492,0.122,30.029,13.672
0.834,0.346,0.346,-20.447,7.507,9.277
0.774,0.41,0.347,-35.706,-3.54,4.333
0.708,0.418,0.288,-45.776,-14.587,-2.014
0.638,0.519,0.235,-49.438,-23.865,-14.221
0.561,0.545,0.223,-48.462,-26.245,-24.414
0.53,0.572,0.246,-46.204,-23.376,-33.081
0.572,0.58,0.275,-44.006,-17.578,-37.231
0.513,0.484,0.17,-41.565,-11.963,-39.246
0.481,0.459,0.174,-42.358,4.333,-44.678
0.616,0.544,0.263,-45.776,23.743,-48.218
0.687,0.484,0.209,-49.316,31.25,-43.396
0.692,0.443,0.172,-55.725,35.278,-39.917
0.692,0.476,0.129,-64.453,37.964,-39.612
0.681,0.491,0.082,-71.655,40.955,-39.063
0.681,0.5,0.053,-78.43,45.532,-39.551
0.674,0.536,0.019,-84.229,49.927,-42.603
0.659,0.569,-0.003,-88.257,56.824,-46.265
0.671,0.596,-0.009,-90.027,65.552,-50.415
0.711,0.654,0.015,-89.417,73.608,-54.932
0.742,0.658,0.0,-86.182,76.782,-56.335
0.777,0.649,-0.005,-81.543,78.613,-54.932
0.823,0.655,0.01,-76.843,78.918,-53.101
0.877,0.672,0.03,-71.411,73.792,-50.476
0.931,0.688,0.061,-65.063,63.843,-46.387
0.931,0.673,0.055,-57.678,49.5,-41.077
0.908,0.654,0.041,-50.781,34.668,-35.95
0.895,0.646,0.038,-44.373,22.339,-32.043
0.872,0.618,0.033,-38.391,12.878,-29.846
0.834,0.604,0.041,-34.119,6.531,-29.602
0.816,0.582,0.037,-30.762,1.831,-29.175
0.823,0.567,0.033,-28.87,-1.16,-27.649
0.826,0.551,0.024,-27.893,-2.869,-26.001
0.829,0.54,0.03,-27.71,-3.357,-25.574
0.825,0.531,0.034,-28.076,-3.54,-26.489
0.809,0.532,0.001,-29.48,-2.625,-26.611
0.797,0.527,-0.015,-30.823,1.953,-24.841
0.805,0.543,-0.018,-31.982,8.118,-22.705
0.818,0.539,-0.028,-32.593,13.55,-20.447
0.827,0.53,-0.037,-32.41,18.677,-19.958
0.863,0.533,-0.035,-32.471,21.973,-21.729
0.895,0.541,-0.026,-32.837,22.217,-23.376
0.91,0.543,-0.025,-32.227,19.104,-24.536
0.92,0.553,-0.024,-31.189,14.16,-24.597
0.935,0.565,-0.03,-28.381,7.996,-23.254
0.919,0.558,-0.039,-25.085,0.977,-20.447
0.881,0.547,-0.05,-21.851,-4.456,-17.456
0.848,0.538,-0.064,-19.409,-6.165,-15.137
0.828,0.534,-0.054,-17.578,-4.578,-13.428
0.835,0.557,-0.05,-16.052,-2.136,-11.902
0.85,0.551,-0.054,-12.817,0.0,-8.972
0.877,0.557,-0.036,-9.338,1.587,-6.042
0.897,0.561,-0.013,-6.226,1.099,-3.967
0.896,0.56,-0.004,-3.235,-0.854,-2.319
0.885,0.552,-0.004,-0.427,-3.418,-0.061
0.888,0.542,0.001,2.075,-5.31,1.953
0.903,0.551,0.02,4.089,-7.446,3.54
0.904,0.544,0.035,6.531,-10.681,5.432
0.9,0.526,0.037,7.812,-14.404,6.897
0.905,0.524,0.044,8.179,-17.944,7.629
0.894,0.52,0.047,8.179,-20.142,8.301
0.876,0.506,0.046,7.751,-20.447,9.521
0.863,0.499,0.046,6.165,-19.409,10.681
0.849,0.5,0.045,4.089,-17.09,10.864
0.833,0.504,0.036,1.831,-13.0,10.132
0.823,0.51,0.032,-0.305,-7.751,8.911
0.824,0.525,0.036,-1.892,-2.93,6.836
0.828,0.535,0.04,-1.892,0.977,4.761
0.848,0.541,0.043,-1.282,3.601,3.418
0.869,0.54,0.05,-0.366,3.967,2.563
0.886,0.536,0.058,0.427,2.258,2.319
0.895,0.528,0.058,0.916,-0.549,3.174
0.893,0.523,0.056,0.732,-3.662,4.7
0.882,0.527,0.055,0.488,-6.165,6.104
0.877,0.532,0.055,0.793,-7.751,7.141
0.864,0.537,0.051,1.282,-8.85,8.301
0.861,0.538,0.054,1.709,-9.277,9.338
0.859,0.54,0.059,2.441,-9.033,10.681
0.855,0.537,0.057,2.93,-8.972,12.085
0.851,0.535,0.061,3.479,-9.033,13.245
0.848,0.531,0.061,3.723,-9.216,13.855
0.845,0.534,0.063,4.028,-9.399,14.099
0.836,0.534,0.068,3.479,-9.827,14.16
0.826,0.534,0.072,2.93,-10.193,14.587
0.818,0.535,0.074,2.197,-10.132,15.198
0.814,0.54,0.08,1.16,-9.583,15.869
1.026,-0.463,-1.882,-190.918,70.74,-130.31
1.128,-0.503,-2.059,-157.959,72.51,-120.361
1.196,-0.477,-2.183,-108.765,71.289,-98.022
1.259,-0.387,-2.308,-38.696,62.927,-64.636
1.28,-0.346,-2.354,53.711,49.011,-22.4
1.215,-0.444,-2.235,160.522,37.354,19.653
1.138,-0.516,-1.972,262.817,29.297,60.913
1.074,-0.466,-1.717,349.487,21.484,99.792
0.926,-0.36,-1.595,428.162,14.343,133.545
0.734,-0.266,-1.508,503.357,13.672,157.593
0.6,-0.197,-1.333,573.242,19.226,169.495
0.561,-0.076,-1.258,639.709,20.63,167.725
0.661,-0.06,-1.173,714.417,18.677,154.358
-3.354,-4.0,4.0,676.208,145.447,103.577
-0.264,1.342,3.812,-366.272,941.284,-168.152
2.119,4.0,-3.041,-592.224,232.239,-30.64
3.914,4.0,-0.822,-384.46,-83.557,76.416
0.763,2.754,0.899,-60.364,-109.863,-17.822
0.64,2.669,0.327,60.425,-110.352,3.357
0.905,1.976,-0.158,110.962,-230.103,33.142
0.549,1.026,-0.411,190.491,-265.686,56.335
0.199,0.589,-0.35,238.098,-253.723,80.688
0.044,0.516,-0.237,254.395,-233.521,98.206
0.052,0.359,-0.162,265.869,-188.232,108.582
0.211,0.126,-0.135,270.203,-120.605,100.769
0.316,0.079,-0.078,255.066,-62.744,66.895
0.535,0.091,0.075,234.131,-19.043,32.104
0.682,0.166,0.14,215.942,1.892,8.606
0.69,0.271,0.188,196.045,9.949,-8.545
0.59,0.394,0.247,176.88,22.217,-21.851
0.494,0.434,0.275,158.936,40.833,-29.785
0.629,0.432,0.392,141.113,62.073,-34.241
0.675,0.346,0.207,125.793,70.557,-34.607
0.752,0.221,0.384,105.652,87.708,-35.767
0.867,0.401,0.531,76.782,96.191,-36.438
0.959,0.427,0.505,48.218,84.9,-29.968
0.945,0.437,0.453,23.865,65.979,-27.466
0.888,0.459,0.429,1.587,50.781,-27.771
0.761,0.434,0.365,-17.517,36.682,-29.236
0.698,0.525,0.323,-33.875,27.405,-34.851
0.654,0.579,0.252,-44.922,23.193,-39.734
0.616,0.586,0.233,-52.856,27.344,-43.396
0.637,0.613,0.244,-59.448,37.415,-45.959
0.638,0.625,0.216,-64.453,47.058,-48.035
0.648,0.638,0.165,-67.2,55.664,-50.537
0.663,0.629,0.132,-68.237,64.331,-52.002
0.686,0.592,0.093,-69.275,71.411,-53.04
0.726,0.564,0.07,-71.106,76.843,-54.321
0.79,0.571,0.097,-74.28,78.247,-55.786
0.835,0.58,0.087,-78.796,71.594,-55.969
0.864,0.591,0.054,-84.229,60.12,-54.077
0.835,0.595,0.007,-89.844,50.598,-51.331
0.769,0.581,-0.025,-94.055,46.387,-49.866
0.756,0.62,-0.039,-96.497,44.373,-50.049
0.793,0.7,-0.058,-95.642,41.26,-48.035
0.824,0.708,-0.078,-90.088,38.391,-41.504
0.838,0.678,-0.089,-82.397,35.217,-33.325
0.833,0.661,-0.09,-76.599,32.043,-25.879
0.818,0.638,-0.071,-72.144,29.663,-20.386
0.81,0.604,-0.066,-68.787,27.039,-17.151
0.821,0.541,-0.088,-66.589,22.766,-14.404
0.858,0.477,-0.087,-69.58,16.541,-9.888
0.901,0.463,-0.058,-79.163,8.606,-5.066
0.888,0.46,-0.046,-89.905,-0.488,-1.831
0.841,0.49,-0.027,-101.318,-7.568,-0.854
0.793,0.544,-0.034,-110.413,-11.658,-1.953
0.761,0.595,-0.074,-114.319,-13.855,-4.15
0.738,0.625,-0.122,-113.159,-14.038,-7.629
0.728,0.64,-0.168,-108.582,-10.498,-10.62
0.723,0.633,-0.198,-102.112,-4.578,-12.085
0.747,0.617,-0.229,-94.727,1.831,-11.963
0.79,0.601,-0.229,-87.83,6.714,-10.132
0.822,0.583,-0.21,-82.397,8.789,-8.423
0.83,0.56,-0.192,-78.125,7.812,-7.446
0.838,0.565,-0.191,-74.646,3.296,-8.484
0.844,0.587,-0.224,-71.35,-2.502,-9.583
0.825,0.598,-0.261,-66.528,-5.066,-8.545
0.796,0.576,-0.287,-59.998,-4.761,-6.714
0.783,0.567,-0.305,-54.321,-3.235,-5.615
0.79,0.578,-0.306,-48.157,0.427,-5.859
0.807,0.598,-0.297,-41.443,4.578,-7.141
0.828,0.614,-0.293,-33.203,6.897,-9.033
0.845,0.611,-0.304,-22.888,7.446,-11.108
0.855,0.596,-0.307,-11.658,6.836,-12.878
0.865,0.581,-0.296,-1.648,7.019,-14.038
0.885,0.573,-0.266,7.385,6.836,-14.465
0.904,0.536,-0.258,15.991,5.432,-13.55
0.914,0.498,-0.236,22.4,3.235,-10.315
0.922,0.474,-0.199,25.024,0.427,-5.737
0.927,0.466,-0.167,25.208,-3.113,-1.099
0.927,0.466,-0.152,23.56,-7.08,3.662
0.91,0.467,-0.151,21.973,-10.864,7.263
0.887,0.464,-0.159,20.325,-14.099,10.437
0.859,0.455,-0.166,18.921,-15.808,13.489
0.834,0.459,-0.152,16.724,-16.113,15.381
0.83,0.485,-0.139,14.587,-16.541,16.113
0.824,0.512,-0.144,13.245,-17.09,15.93
0.789,0.522,-0.152,13.306,-16.235,14.771
0.744,0.533,-0.153,14.343,-13.367,12.939
0.736,0.549,-0.166,16.907,-10.071,10.925
0.745,0.548,-0.175,20.813,-6.104,10.132
0.746,0.543,-0.149,24.597,-1.16,9.888
0.762,0.556,-0.125,26.978,1.648,8.545
0.785,0.562,-0.111,29.236,1.587,7.324
0.793,0.566,-0.096,31.433,-0.305,5.92
0.789,0.567,-0.088,33.325,-2.686,4.761
0.786,0.566,-0.086,35.461,-4.578,4.15
0.799,0.554,-0.091,37.842,-5.676,4.272
0.815,0.527,-0.101,39.551,-7.385,5.554
0.83,0.498,-0.101,40.039,-9.033,7.263
0.834,0.489,-0.08,38.086,-10.62,9.155
0.825,0.497,-0.051,33.875,-12.085,10.864
0.809,0.513,-0.031,29.175,-12.939,11.658
0.812,0.544,-0.026,24.353,-12.573,11.597
0.81,0.565,-0.03,20.935,-11.658,10.986
0.803,0.578,-0.034,19.348,-10.254,10.681
0.807,0.589,-0.031,18.677,-8.179,10.132
0.813,0.597,-0.028,17.822,-5.859,9.277
0.808,0.601,-0.023,17.395,-3.784,8.057
0.938,-0.621,-1.738,-158.203,57.983,-108.276
1.017,-0.698,-1.999,-135.559,64.453,-109.863
1.1,-0.719,-2.189,-97.046,67.871,-102.783
1.218,-0.696,-2.362,-39.001,66.467,-85.144
1.293,-0.659,-2.492,40.283,56.641,-57.312
1.262,-0.692,-2.492,141.174,43.091,-24.841
1.192,-0.813,-2.386,249.268,33.875,7.69
1.149,-0.881,-2.18,347.9,31.738,37.964
1.031,-0.765,-2.018,434.875,31.372,62.195
0.836,-0.491,-1.993,521.057,34.607,77.881
0.662,-0.297,-1.878,613.586,44.25,85.693
0.561,-0.27,-1.69,705.994,59.937,86.914
0.567,-0.351,-1.475,797.485,73.12,79.59
-2.828,-3.882,3.774,877.686,93.994,58.105
1.941,-1.814,4.0,130.371,748.901,-140.381
1.545,4.0,-0.762,-518.616,657.471,9.521
4.0,4.0,-1.031,-414.49,104.858,261.78
2.4,3.882,0.972,-110.535,-133.24,105.652
0.627,2.847,0.532,59.875,-206.97,29.785
0.406,1.644,-0.166,132.019,-302.734,44.739
0.476,0.834,-0.16,177.551,-293.335,52.368
0.23,0.493,-0.199,223.389,-251.282,70.801
-0.11,0.469,-0.167,242.31,-236.023,82.52
-0.216,0.3,-0.216,255.615,-207.947,80.566
-0.063,-0.039,-0.204,256.287,-148.071,67.566
0.346,-0.253,-0.004,237.61,-76.721,48.401
0.729,-0.238,0.165,203.552,-33.081,39.795
0.834,-0.071,0.134,165.71,-20.691,40.71
0.734,0.061,0.098,131.287,-15.198,36.438
0.624,0.157,0.118,100.525,-8.972,26.672
0.608,0.275,0.206,68.176,-2.625,15.564
0.652,0.406,0.242,37.903,2.38,5.371
0.764,0.481,0.295,12.085,5.188,-4.578
0.727,0.565,0.091,-7.324,1.587,-14.221
0.704,0.588,0.167,-20.264,9.949,-24.658
0.684,0.599,0.113,-27.649,17.151,-35.278
0.686,0.628,0.065,-32.837,26.733,-44.006
0.665,0.548,0.092,-37.476,39.978,-49.805
0.768,0.67,0.18,-44.312,46.021,-58.411
0.853,0.609,0.144,-50.72,39.063,-54.626
0.796,0.521,0.187,-59.082,34.058,-50.293
0.844,0.654,0.233,-71.655,27.161,-51.392
0.799,0.624,0.161,-78.064,17.517,-44.922
0.775,0.66,0.09,-82.336,10.071,-42.114
0.741,0.69,0.024,-82.581,6.714,-37.537
0.722,0.697,-0.011,-79.529,6.775,-33.203
0.712,0.707,-0.042,-75.256,7.263,-30.334
0.704,0.717,-0.058,-69.641,8.667,-28.625
0.708,0.724,-0.071,-63.782,10.071,-27.527
0.688,0.709,-0.104,-56.946,10.254,-27.222
0.688,0.7,-0.107,-50.842,12.085,-28.198
0.725,0.711,-0.083,-45.776,14.526,-28.87
0.743,0.687,-0.077,-40.588,12.634,-27.527
0.746,0.657,-0.079,-36.926,8.179,-25.818
0.762,0.662,-0.096,-34.79,5.188,-23.437
0.748,0.645,-0.084,-32.654,5.005,-19.531
0.741,0.648,-0.062,-31.738,4.578,-16.479
0.778,0.729,0.008,-30.457,1.709,-13.611
0.809,0.713,-0.032,-27.466,-6.653,-7.935
0.765,0.659,-0.038,-23.804,-11.353,-3.906
0.705,0.646,-0.048,-21.667,-13.855,-4.883
0.639,0.614,-0.088,-19.043,-12.085,-8.24
0.603,0.605,-0.101,-17.517,-3.296,-12.817
0.681,0.65,-0.025,-16.907,9.094,-16.724
0.743,0.619,-0.013,-16.174,15.198,-17.456
0.741,0.579,-0.027,-16.602,15.808,-19.958
0.749,0.58,-0.016,-18.982,17.944,-24.78
0.772,0.604,0.0,-20.691,18.494,-28.87
0.793,0.594,-0.019,-21.729,16.418,-30.09
0.84,0.599,-0.027,-21.484,15.015,-29.48
0.853,0.575,-0.024,-21.912,13.672,-26.733
0.883,0.586,-0.027,-23.193,12.39,-24.109
0.895,0.588,-0.002,-24.109,10.925,-22.034
0.868,0.573,-0.003,-25.085,6.836,-21.423
0.886,0.6,-0.008,-26.184,2.197,-23.01
0.896,0.62,-0.027,-25.818,0.061,-23.437
0.865,0.633,-0.038,-23.804,0.61,-22.156
0.848,0.612,-0.046,-20.508,2.747,-19.531
0.85,0.582,-0.058,-17.639,5.371,-16.785
0.851,0.573,-0.048,-15.808,8.85,-14.832
0.872,0.575,-0.034,-14.282,10.681,-12.878
0.884,0.564,-0.025,-13.062,9.521,-10.559
0.874,0.559,-0.014,-12.573,6.653,-7.935
0.868,0.561,-0.016,-12.573,2.441,-5.188
0.849,0.559,-0.028,-12.268,-1.526,-2.93
0.822,0.556,-0.034,-11.841,-3.967,-1.221
0.792,0.549,-0.042,-11.536,-4.761,-0.122
0.769,0.538,-0.047,-11.719,-3.662,-0.061
0.775,0.549,-0.029,-12.878,-1.404,-0.61
0.788,0.557,-0.028,-14.221,-0.488,-2.014
0.78,0.561,-0.03,-15.076,-0.61,-3.479
0.759,0.565,-0.049,-15.503,-0.122,-5.371
0.752,0.555,-0.063,-14.893,1.648,-7.507
0.776,0.549,-0.065,-14.16,4.456,-8.789
0.806,0.526,-0.061,-13.733,7.263,-8.972
0.825,0.516,-0.033,-15.137,8.179,-10.376
0.854,0.518,-0.037,-17.212,6.042,-12.024
0.875,0.5,-0.062,-19.897,3.296,-11.169
0.868,0.485,-0.076,-23.743,2.075,-8.606
0.826,0.46,-0.066,-29.114,3.357,-7.202
0.819,0.489,-0.073,-35.339,5.371,-9.155
0.846,0.503,-0.098,-39.978,9.277,-10.01
0.826,0.467,-0.098,-44.678,16.296,-9.155
0.81,0.457,-0.091,-50.781,24.109,-11.963
0.865,0.503,-0.083,-56.641,29.358,-16.052
0.931,0.527,-0.07,-59.814,31.311,-17.273
0.954,0.523,-0.09,-63.049,27.588,-15.564
0.944,0.503,-0.11,-65.979,22.522,-12.634
0.94,0.509,-0.114,-67.993,18.433,-10.254
0.958,0.532,-0.103,-69.519,14.221,-7.507
0.96,0.558,-0.101,-69.458,7.812,-4.395
0.939,0.567,-0.114,-67.566,1.709,-2.258
0.93,0.568,-0.122,-64.819,-1.648,0.366
0.919,0.582,-0.131,-61.646,-4.272,2.991
0.897,0.595,-0.149,-57.373,-6.409,5.127
0.87,0.596,-0.156,-52.429,-7.385,6.409
0.858,0.589,-0.162,-46.631,-7.141,6.897
0.863,0.557,-0.178,-40.955,-7.263,7.874
0.875,0.518,-0.161,-37.231,-7.324,9.644
1.088,-0.427,-1.532,25.574,38.757,-16.724
1.142,-0.372,-1.74,60.547,33.142,-6.775
1.175,-0.312,-1.937,114.075,24.597,5.859
1.198,-0.317,-2.037,186.34,16.479,20.691
1.187,-0.336,-1.954,263.794,13.306,39.734
1.106,-0.297,-1.783,336.365,14.465,60.425
0.976,-0.187,-1.609,404.053,15.32,78.43
0.824,-0.075,-1.454,470.093,16.785,94.971
0.709,-0.009,-1.325,535.339,20.569,109.68
0.664,0.022,-1.151,599.365,27.222,117.004
0.681,-0.046,-0.875,660.4,35.767,116.699
0.852,-4.0,4.0,511.719,229.126,63.538
1.037,2.798,2.206,-549.072,727.478,-58.411
0.672,4.0,-2.524,-559.753,50.72,172.485
2.351,3.851,-0.915,-399.963,-84.229,140.381
1.0,3.222,0.428,-148.743,-132.446,74.158
0.283,2.711,0.168,-7.629,-123.474,99.609
0.403,1.374,-0.783,72.693,-163.513,119.385
0.255,0.922,-0.853,100.403,-186.829,115.051
0.184,1.012,-0.36,135.071,-152.1,97.961
0.161,0.805,-0.399,181.274,-155.579,99.121
0.026,0.607,-0.495,222.534,-148.132,102.173
0.101,0.368,-0.429,250.427,-38.94,59.814
0.284,0.064,-0.215,255.676,3.601,24.231
0.51,-0.032,-0.085,247.314,35.828,-3.723
0.751,-0.147,0.042,225.708,61.218,-16.907
0.81,-0.375,0.187,187.927,85.022,-19.653
0.9,-0.311,0.357,130.676,103.821,-17.944
0.943,-0.424,0.41,59.937,102.905,-9.216
0.979,-0.133,0.341,-13.489,81.97,-15.686
0.806,0.013,0.247,-71.411,60.669,-27.405
0.763,0.459,0.298,-112.854,43.823,-49.377
0.817,0.716,0.281,-131.287,25.024,-57.068
0.784,0.792,0.132,-134.338,4.761,-62.317
0.633,0.801,-0.004,-128.235,-3.967,-68.848
0.537,0.857,-0.085,-116.516,1.648,-74.951
0.518,0.792,-0.163,-99.548,16.846,-74.341
0.581,0.791,-0.112,-81.97,33.813,-74.646
0.661,0.752,-0.141,-65.796,41.504,-73.669
0.78,0.682,-0.082,-50.476,45.959,-69.336
0.881,0.604,-0.055,-42.114,41.26,-63.599
0.849,0.489,-0.085,-38.269,26.978,-59.143
0.789,0.435,-0.111,-40.161,13.306,-59.265
0.772,0.423,-0.14,-45.593,4.211,-60.73
0.805,0.442,-0.142,-52.124,-0.061,-60.12
0.797,0.413,-0.159,-57.922,-5.005,-56.213
0.776,0.391,-0.191,-64.209,-10.498,-53.345
0.77,0.415,-0.248,-71.106,-15.015,-51.27
0.747,0.433,-0.288,-77.332,-15.259,-48.157
0.746,0.454,-0.28,-81.665,-11.719,-47.119
0.783,0.457,-0.293,-84.045,-9.949,-46.997
0.824,0.46,-0.293,-85.632,-11.353,-46.204
0.869,0.457,-0.291,-87.524,-16.541,-44.8
0.921,0.456,-0.281,-90.454,-25.818,-42.603
0.966,0.471,-0.253,-94.299,-38.269,-40.833
0.974,0.485,-0.227,-98.022,-52.917,-40.039
0.949,0.501,-0.236,-99.976,-68.115,-40.771
0.896,0.512,-0.271,-99.976,-79.651,-43.03
0.84,0.535,-0.306,-98.511,-82.886,-44.25
0.786,0.556,-0.344,-94.788,-76.538,-43.579
0.779,0.548,-0.367,-88.501,-61.34,-40.283
0.806,0.545,-0.347,-82.52,-41.321,-36.316
0.865,0.561,-0.3,-76.538,-21.79,-33.569
0.954,0.557,-0.267,-69.275,-8.545,-30.701
1.032,0.532,-0.249,-62.744,-4.333,-26.611
1.068,0.506,-0.245,-56.641,-7.324,-22.583
1.074,0.499,-0.264,-51.819,-13.855,-18.982
1.028,0.486,-0.277,-47.119,-19.958,-16.113
0.987,0.486,-0.287,-42.48,-24.475,-14.404
0.964,0.493,-0.326,-36.987,-26.794,-12.207
0.951,0.492,-0.345,-30.212,-23.56,-9.216
0.935,0.462,-0.35,-22.583,-17.395,-5.432
0.932,0.434,-0.354,-16.235,-12.573,-2.319
0.944,0.412,-0.355,-12.329,-9.705,0.977
0.949,0.396,-0.339,-9.216,-7.935,3.418
0.949,0.388,-0.327,-6.897,-6.836,4.761
0.947,0.375,-0.325,-5.493,-6.958,6.042
0.946,0.369,-0.326,-4.15,-8.545,6.897
0.946,0.378,-0.316,-3.845,-9.399,7.751
0.943,0.397,-0.289,-3.601,-9.277,8.484
0.935,0.41,-0.284,-2.808,-9.644,9.705
0.931,0.427,-0.274,-1.465,-10.254,11.597
0.923,0.442,-0.26,0.122,-10.742,13.245
0.912,0.456,-0.254,2.625,-11.047,14.587
0.901,0.465,-0.246,5.432,-11.597,15.869
0.889,0.468,-0.243,8.789,-12.146,17.212
0.885,0.462,-0.233,12.878,-12.329,17.822
0.872,0.453,-0.228,16.541,-11.78,17.639
0.866,0.447,-0.217,19.47,-11.169,17.334
0.873,0.438,-0.2,21.912,-10.498,17.151
0.874,0.426,-0.193,23.621,-10.193,16.907
0.87,0.413,-0.19,24.841,-9.521,17.029
0.864,0.401,-0.176,24.841,-8.728,16.907
0.86,0.398,-0.166,23.437,-7.263,16.663
0.863,0.403,-0.155,21.484,-4.517,16.296
0.875,0.403,-0.144,19.592,-2.014,15.564
0.879,0.41,-0.139,17.578,-0.793,14.893
0.878,0.425,-0.135,15.625,-0.427,14.282
0.875,0.44,-0.134,14.771,-0.366,13.611
0.869,0.457,-0.134,14.648,-0.854,13.489
0.864,0.47,-0.13,15.564,-1.953,13.55
0.858,0.478,-0.126,17.456,-3.601,13.55
0.854,0.479,-0.121,20.142,-5.188,13.367
0.852,0.468,-0.113,22.888,-6.775,13.306
0.852,0.456,-0.103,25.574,-8.606,13.245
0.853,0.435,-0.086,26.611,-10.254,13.123
0.849,0.411,-0.073,26.062,-12.085,13.0
0.854,0.399,-0.049,22.583,-12.939,12.634
0.849,0.412,-0.04,17.944,-13.367,12.268
0.843,0.425,-0.023,12.573,-13.062,11.719
0.838,0.448,-0.012,7.507,-11.841,11.292
0.833,0.47,-0.01,3.54,-9.827,10.864
0.831,0.484,-0.014,0.977,-7.874,10.01
0.842,0.496,-0.008,-0.793,-5.798,9.644
0.848,0.499,-0.009,-1.892,-3.906,10.01
0.858,0.511,-0.001,-3.113,-3.113,11.047
0.867,0.53,0.008,-4.211,-3.052,12.207
0.862,0.541,0.004,-4.944,-3.906,13.855
0.857,0.542,-0.009,-4.578,-4.761,15.32
1.015,-0.341,-1.527,-61.829,53.65,-20.752
1.046,-0.323,-1.746,-40.161,54.688,-16.418
1.085,-0.265,-1.914,-4.395,54.749,-8.362
1.118,-0.144,-2.026,48.096,54.932,3.723
1.143,-0.071,-2.052,121.948,51.819,18.555
1.165,-0.1,-1.904,208.313,46.997,35.522
1.117,-0.164,-1.676,289.612,43.213,54.504
1.022,-0.134,-1.506,359.802,40.894,70.129
0.926,0.009,-1.329,425.354,43.274,77.576
0.877,0.149,-1.177,491.089,49.683,77.759
0.876,0.296,-1.003,561.157,59.631,70.557
0.907,0.345,-0.749,635.437,71.899,57.373
0.345,-4.0,4.0,598.022,182.373,5.249
1.385,2.534,3.826,-297.791,643.494,-122.009
0.275,4.0,-1.693,-506.592,42.297,129.639
1.842,3.28,-1.577,-350.037,-161.926,122.437
0.962,2.304,-0.031,-93.872,-185.364,44.312
0.345,2.246,0.141,2.686,-132.874,51.88
0.994,1.58,0.089,52.368,-64.941,68.481
0.916,0.818,-0.296,95.947,-103.455,75.073
0.57,0.656,-0.46,142.944,-138.733,70.74
0.363,0.698,-0.298,177.246,-151.611,58.35
0.23,0.584,-0.265,212.585,-142.639,56.763
0.173,0.287,-0.229,242.737,-107.422,61.218
0.313,-0.043,-0.116,252.38,-58.228,57.373
0.426,-0.27,-0.049,239.075,-14.526,47.424
0.459,-0.421,0.077,204.407,23.743,38.635
0.617,-0.429,0.286,149.841,58.716,35.4
0.766,-0.507,0.43,84.106,77.576,31.189
0.828,-0.351,0.527,13.733,77.82,10.925
0.849,0.143,0.508,-48.828,61.768,-11.353
0.786,0.4,0.469,-88.867,41.504,-19.897
0.789,0.623,0.422,-113.892,21.729,-28.259
0.741,0.72,0.255,-122.62,-2.258,-36.011
0.673,0.772,0.19,-120.483,-13.489,-45.837
0.604,0.802,0.078,-112.976,-20.081,-52.856
0.597,0.777,0.035,-101.99,-17.517,-55.664
0.621,0.708,-0.002,-91.614,-10.62,-56.03
0.656,0.649,-0.016,-84.351,-2.686,-55.298
0.729,0.589,0.036,-79.956,5.188,-53.833
0.788,0.523,0.023,-78.552,5.127,-52.124
0.794,0.436,0.008,-80.627,2.808,-49.561
0.752,0.382,-0.036,-87.585,-0.061,-47.729
0.777,0.374,-0.048,-97.351,-0.793,-46.814
0.833,0.391,-0.071,-108.032,-2.686,-45.288
0.827,0.39,-0.128,-116.699,-6.775,-43.457
0.805,0.404,-0.19,-123.108,-10.498,-43.701
0.779,0.403,-0.259,-127.502,-12.878,-45.471
0.737,0.408,-0.323,-129.944,-11.841,-48.462
0.698,0.426,-0.369,-131.104,-6.226,-52.49
0.731,0.447,-0.393,-130.554,3.113,-56.335
0.772,0.481,-0.4,-129.272,11.23,-57.678
0.797,0.509,-0.408,-125.366,15.808,-57.861
0.817,0.525,-0.412,-119.69,18.066,-57.495
0.832,0.537,-0.411,-112.061,17.578,-57.495
0.858,0.527,-0.42,-102.783,14.893,-57.495
0.926,0.513,-0.407,-93.994,9.216,-55.908
0.962,0.516,-0.393,-85.693,-1.038,-52.246
0.972,0.498,-0.393,-76.904,-12.817,-46.875
0.966,0.464,-0.403,-68.909,-24.841,-40.71
0.95,0.437,-0.418,-61.462,-35.095,-35.034
0.956,0.411,-0.415,-54.016,-41.992,-29.724
0.974,0.387,-0.407,-47.974,-46.936,-24.17
0.973,0.377,-0.404,-43.213,-51.086,-17.883
0.973,0.361,-0.401,-39.49,-53.04,-11.78
0.994,0.36,-0.393,-37.17,-53.528,-7.019
1.003,0.377,-0.401,-34.424,-53.528,-4.333
0.984,0.391,-0.406,-30.457,-52.49,-3.479
0.96,0.42,-0.394,-26.184,-50.171,-4.211
0.968,0.446,-0.401,-20.569,-47.546,-5.31
0.961,0.45,-0.413,-13.855,-43.091,-5.432
0.939,0.453,-0.393,-7.324,-36.377,-4.883
0.934,0.449,-0.384,-1.16,-29.297,-3.967
0.93,0.428,-0.377,4.822,-21.179,-2.869
0.939,0.419,-0.355,9.277,-13.672,-1.038
0.964,0.411,-0.323,12.634,-7.874,0.977
1.001,0.403,-0.284,14.038,-4.272,3.235
1.03,0.394,-0.258,14.404,-5.005,5.615
1.033,0.388,-0.242,13.733,-9.583,8.728
1.02,0.396,-0.224,11.475,-15.076,11.719
1.0,0.416,-0.217,9.338,-19.531,13.977
0.963,0.432,-0.217,8.362,-21.79,15.93
0.922,0.448,-0.218,7.507,-21.057,17.456
0.901,0.455,-0.213,7.874,-17.273,17.7
0.882,0.46,-0.207,9.094,-11.78,16.479
0.874,0.455,-0.192,10.498,-6.287,14.832
0.877,0.448,-0.176,11.658,-2.258,13.55
0.879,0.444,-0.156,11.841,0.0,13.306
0.885,0.451,-0.136,11.475,1.465,14.16
0.885,0.442,-0.122,11.23,1.404,15.869
0.877,0.437,-0.113,10.315,0.122,17.334
0.876,0.44,-0.111,9.094,-1.404,18.616
0.872,0.433,-0.107,8.179,-2.563,19.775
0.868,0.417,-0.113,7.141,-4.089,20.386
0.859,0.405,-0.112,5.249,-5.31,20.325
0.851,0.411,-0.108,2.625,-5.737,18.921
0.846,0.42,-0.116,0.244,-5.798,17.029
0.823,0.427,-0.13,-1.16,-4.7,14.771
0.798,0.431,-0.139,-2.075,-1.709,11.414
0.793,0.437,-0.146,-2.502,2.869,7.324
0.803,0.444,-0.143,-2.38,8.301,3.601
0.83,0.453,-0.13,-1.648,12.451,0.732
0.855,0.459,-0.119,-1.038,13.916,-0.732
0.874,0.464,-0.113,0.0,12.756,-0.854
0.884,0.473,-0.11,1.587,9.521,0.244
0.879,0.473,-0.105,3.174,5.493,2.136
0.87,0.468,-0.11,4.822,2.075,4.089
0.857,0.46,-0.111,6.104,-0.488,5.92
0.856,0.454,-0.107,6.775,-1.587,7.935
0.852,0.451,-0.105,7.141,-2.319,9.155
0.842,0.442,-0.109,7.08,-3.296,9.399
0.846,0.433,-0.113,6.226,-3.235,9.46
0.846,0.429,-0.115,5.249,-3.174,9.277
0.84,0.436,-0.115,3.967,-3.54,8.484
0.83,0.444,-0.119,2.93,-3.906,7.141
0.818,0.455,-0.132,2.502,-3.662,5.676
0.815,0.468,-0.135,2.991,-2.808,3.784
0.814,0.476,-0.132,3.601,-1.282,1.892
0.816,0.478,-0.132,5.249,0.061,-0.183
1.19,-0.448,-1.314,-198.425,61.157,-65.43
1.216,-0.504,-1.52,-210.327,62.134,-57.068
1.242,-0.462,-1.698,-212.402,61.157,-43.274
1.255,-0.334,-1.829,-198.853,56.763,-25.696
1.267,-0.192,-1.887,-169.861,48.828,-5.554
1.249,-0.078,-1.904,-128.235,35.645,15.381
1.203,0.008,-1.871,-70.801,18.127,35.278
1.122,0.06,-1.831,-1.465,0.671,52.49
1.001,0.058,-1.795,76.05,-14.832,65.979
0.873,-0.001,-1.717,156.311,-21.973,73.669
0.778,-0.078,-1.571,231.689,-16.663,74.89
0.726,-0.111,-1.369,295.898,-4.089,71.35
0.718,-0.113,-1.182,352.539,11.108,63.477
0.739,-0.09,-1.033,406.677,26.855,48.95
0.773,-0.081,-0.835,459.229,43.762,28.503
0.847,-0.114,-0.568,507.324,61.218,8.301
0.949,-0.153,-0.317,551.453,72.876,-6.409
1.095,-0.247,-0.001,593.018,79.468,-14.221
-0.877,-4.0,4.0,613.464,92.834,-20.02
3.92,-1.383,4.0,10.498,437.256,-155.579
0.269,4.0,-1.81,-553.955,95.093,48.889
0.541,2.923,-1.899,-447.021,-172.485,150.818
1.277,1.863,-0.682,-178.894,-46.204,84.167
0.794,2.279,0.427,-30.09,-56.458,49.805
0.392,1.809,0.307,52.124,-71.716,49.255
0.837,0.806,-0.024,125.183,-7.751,44.739
1.049,0.593,0.127,160.095,24.78,28.137
1.032,0.586,0.131,193.42,-2.808,11.047
1.091,0.337,0.045,226.99,-63.721,13.0
1.022,0.084,-0.103,240.723,-112.427,28.259
0.711,-0.005,-0.129,239.624,-126.16,30.701
0.453,-0.058,-0.065,227.173,-108.948,24.841
0.502,-0.058,0.042,205.627,-74.463,18.066
0.652,-0.062,0.129,176.453,-39.856,15.32
0.733,-0.045,0.228,143.555,-14.465,12.634
0.719,-0.067,0.29,108.704,-1.953,8.301
0.653,-0.082,0.282,72.388,3.784,-0.488
0.641,-0.018,0.335,38.025,13.916,-15.625
0.674,0.173,0.444,7.69,21.057,-31.372
0.746,0.293,0.471,-15.259,15.747,-38.269
0.711,0.33,0.384,-31.311,7.324,-44.189
0.713,0.375,0.37,-41.87,6.226,-51.27
0.689,0.389,0.313,-46.326,8.545,-56.763
0.732,0.425,0.294,-47.852,15.076,-62.5
0.749,0.373,0.247,-47.729,24.292,-63.354
0.769,0.336,0.267,-48.828,36.377,-64.819
0.841,0.304,0.257,-53.223,44.739,-66.833
0.928,0.259,0.233,-59.265,47.729,-65.796
0.974,0.251,0.222,-67.993,46.082,-63.538
0.957,0.235,0.182,-77.087,39.673,-60.913
0.927,0.233,0.129,-85.632,33.63,-59.875
0.92,0.253,0.086,-93.201,30.457,-59.57
0.895,0.266,0.054,-99.121,29.785,-59.326
0.864,0.28,0.021,-104.065,30.273,-59.937
0.847,0.291,-0.019,-107.422,32.837,-61.035
0.82,0.283,-0.069,-109.131,38.452,-62.683
0.789,0.263,-0.113,-110.413,46.936,-65.979
0.781,0.251,-0.139,-113.525,58.35,-69.946
0.887,0.246,-0.138,-117.004,69.702,-72.51
1.02,0.278,-0.099,-120.972,71.96,-70.74
1.08,0.298,-0.08,-123.413,61.951,-67.322
1.089,0.312,-0.09,-124.146,44.434,-63.477
1.075,0.317,-0.129,-123.474,25.574,-59.448
1.026,0.33,-0.184,-120.972,10.498,-56.091
0.972,0.329,-0.23,-116.211,2.38,-54.321
0.957,0.323,-0.263,-110.474,1.221,-53.589
0.953,0.309,-0.276,-104.919,4.578,-52.612
0.968,0.29,-0.279,-99.976,9.338,-51.147
0.993,0.271,-0.279,-95.093,12.634,-49.133
1.019,0.26,-0.274,-90.576,13.489,-47.119
1.049,0.237,-0.275,-86.182,12.024,-44.434
1.074,0.205,-0.291,-82.092,7.996,-40.71
1.083,0.168,-0.304,-79.407,3.174,-36.926
1.07,0.139,-0.322,-78.43,0.427,-34.729
1.052,0.126,-0.342,-79.956,0.671,-33.02
1.07,0.13,-0.347,-82.642,2.686,-31.372
1.093,0.15,-0.349,-85.022,4.15,-28.687
1.084,0.174,-0.365,-85.938,3.418,-25.085
1.076,0.198,-0.377,-84.534,1.892,-20.935
1.071,0.205,-0.395,-80.688,0.427,-16.846
1.048,0.202,-0.408,-75.562,-0.549,-13.794
1.05,0.247,-0.375,-70.007,-1.465,-13.062
1.085,0.283,-0.382,-62.622,-4.395,-10.803
1.041,0.25,-0.394,-52.612,-6.348,-7.385
1.037,0.225,-0.413,-44.25,-6.897,-5.859
1.071,0.221,-0.385,-37.17,-6.287,-4.211
1.088,0.223,-0.361,-31.189,-7.751,-1.831
1.104,0.209,-0.351,-25.024,-11.475,1.77
1.105,0.2,-0.343,-20.081,-15.991,5.371
1.072,0.188,-0.342,-15.503,-19.775,7.874
1.048,0.186,-0.33,-11.902,-20.813,9.888
1.035,0.179,-0.313,-8.179,-19.409,10.925
1.018,0.163,-0.296,-5.432,-16.663,11.047
1.009,0.155,-0.282,-3.906,-12.634,10.864
1.023,0.154,-0.257,-3.296,-8.24,10.986
1.035,0.161,-0.232,-2.93,-4.944,10.986
1.039,0.165,-0.217,-2.197,-3.845,11.719
1.039,0.174,-0.204,-0.916,-4.761,12.939
1.027,0.171,-0.196,0.0,-6.836,14.526
1.01,0.166,-0.186,1.221,-9.216,16.052
0.996,0.156,-0.176,2.136,-10.681,17.212
0.974,0.146,-0.169,2.441,-11.658,18.127
0.957,0.136,-0.166,2.136,-11.414,18.555
0.945,0.13,-0.158,0.793,-9.46,18.188
0.936,0.128,-0.157,-0.916,-6.592,17.029
0.937,0.126,-0.158,-2.869,-3.54,15.198
0.93,0.127,-0.161,-4.639,-0.61,12.939
0.93,0.129,-0.162,-5.981,2.136,10.742
0.939,0.127,-0.162,-6.836,4.456,8.728
0.945,0.123,-0.161,-8.179,6.531,7.446
0.94,0.122,-0.162,-9.888,7.629,6.592
0.929,0.142,-0.14,-11.536,9.338,5.676
0.939,0.146,-0.148,-11.78,12.451,4.211
0.961,0.146,-0.157,-11.047,12.878,4.395
0.979,0.146,-0.159,-10.01,10.925,5.615
0.978,0.149,-0.167,-9.705,8.667,6.653
0.967,0.147,-0.165,-9.521,6.958,7.507
0.956,0.148,-0.165,-9.033,6.226,7.874
0.953,0.147,-0.163,-8.484,6.165,7.996
1.21,-0.286,-1.348,189.941,41.077,-23.682
1.314,-0.394,-1.384,252.869,27.1,-3.479
1.331,-0.486,-1.307,313.477,8.789,18.311
1.321,-0.494,-1.26,366.638,-12.207,40.466
1.255,-0.473,-1.159,417.969,-27.893,61.584
1.22,-0.485,-0.975,466.675,-35.828,80.566
1.216,-0.572,-0.732,506.653,-35.217,97.839
1.218,-0.678,-0.508,536.133,-31.067,109.314
1.224,-0.732,-0.286,554.81,-27.832,114.563
1.006,-0.931,-0.145,564.88,-28.503,115.295
1.599,-4.0,4.0,311.035,234.192,55.847
0.817,1.938,2.636,-556.03,636.169,-69.397
-0.224,4.0,-2.646,-586.67,-14.771,108.765
1.691,3.211,-2.043,-384.46,-103.149,44.25
1.715,2.474,-0.136,-92.285,-19.775,27.527
1.227,1.697,0.574,57.678,10.62,47.729
1.513,0.865,0.633,119.568,12.939,67.871
1.844,0.607,0.632,139.587,-43.274,83.74
1.463,0.437,0.198,169.8,-101.135,96.252
0.876,0.2,0.158,200.806,-157.227,86.121
0.593,-0.06,0.069,220.398,-194.214,73.669
0.502,-0.158,-0.125,226.379,-202.759,64.636
0.415,-0.27,-0.267,219.604,-171.875,60.608
0.286,-0.449,-0.292,200.073,-107.727,61.462
0.244,-0.585,-0.209,169.25,-36.926,56.396
0.33,-0.627,-0.044,123.596,21.729,42.908
0.522,-0.572,0.072,65.43,68.359,26.001
0.669,-0.403,0.106,4.883,99.731,5.798
0.704,-0.252,0.078,-46.936,113.281,-16.052
0.648,-0.095,-0.011,-85.876,116.577,-40.71
0.764,0.082,0.125,-110.962,118.774,-62.317
0.895,0.346,0.159,-125.61,104.065,-73.12
0.893,0.384,0.062,-124.329,78.979,-72.937
0.874,0.398,0.018,-116.577,60.608,-73.669
0.891,0.392,-0.012,-104.614,48.584,-73.853
0.901,0.354,-0.048,-89.966,41.748,-74.341
0.988,0.343,0.019,-77.576,37.354,-74.89
0.931,0.266,-0.125,-68.176,27.466,-72.021
0.883,0.133,-0.129,-61.584,30.762,-69.336
1.005,0.113,-0.088,-64.88,36.56,-68.115
1.087,0.084,-0.111,-70.007,36.743,-63.66
1.029,0.041,-0.139,-76.355,32.898,-59.265
1.015,0.027,-0.175,-85.388,29.236,-56.763
1.007,0.041,-0.246,-93.872,26.855,-55.298
1.018,0.055,-0.225,-101.196,28.076,-53.467
1.02,0.076,-0.299,-106.75,24.536,-50.72
1.023,0.083,-0.333,-107.605,22.156,-48.828
1.043,0.114,-0.34,-106.384,19.531,-49.194
1.039,0.151,-0.366,-103.21,17.029,-49.622
1.003,0.168,-0.388,-97.595,15.869,-49.072
0.963,0.172,-0.418,-91.492,16.418,-47.791
0.959,0.179,-0.423,-84.534,19.348,-46.143
1.004,0.175,-0.41,-76.782,22.827,-43.579
1.068,0.164,-0.38,-69.031,23.254,-40.71
1.11,0.143,-0.364,-61.951,18.188,-38.391
1.13,0.134,-0.363,-56.091,8.911,-35.034
1.115,0.122,-0.377,-51.147,-0.854,-30.151
1.087,0.102,-0.389,-46.326,-7.935,-24.353
1.059,0.087,-0.391,-42.236,-12.207,-18.982
1.042,0.074,-0.388,-38.94,-13.672,-14.832
1.043,0.067,-0.378,-36.621,-12.268,-12.146
1.036,0.055,-0.371,-34.851,-9.949,-10.376
1.035,0.044,-0.372,-34.18,-8.545,-8.789
1.054,0.042,-0.364,-33.508,-7.08,-7.446
1.084,0.048,-0.347,-32.837,-6.653,-5.737
1.091,0.046,-0.34,-32.104,-8.118,-3.784
1.087,0.04,-0.339,-31.128,-10.925,-2.38
1.091,0.041,-0.341,-30.273,-14.038,-0.61
1.087,0.046,-0.336,-29.175,-17.273,1.038
1.063,0.054,-0.336,-27.893,-20.63,2.869
1.049,0.064,-0.35,-25.696,-22.705,5.249
1.016,0.057,-0.38,-22.705,-22.095,8.057
0.943,-0.011,-0.393,-19.592,-16.968,8.24
0.974,0.052,-0.317,-20.081,-10.437,3.601
1.085,0.125,-0.326,-18.677,-8.423,1.648
1.012,0.073,-0.315,-12.573,-6.592,3.784
1.01,0.064,-0.329,-9.583,-7.263,5.493
1.076,0.059,-0.319,-7.141,-8.179,7.324
1.066,0.081,-0.265,-5.432,-10.559,9.583
1.062,0.078,-0.272,-3.235,-16.479,12.573
1.079,0.091,-0.256,-0.671,-20.813,15.32
1.046,0.085,-0.256,2.136,-24.78,18.127
1.003,0.08,-0.254,4.944,-27.466,20.935
1.021,0.088,-0.24,7.019,-27.222,23.01
0.994,0.068,-0.241,8.85,-25.208,23.987
0.979,0.088,-0.207,9.705,-22.156,23.865
0.985,0.064,-0.208,10.437,-21.79,23.376
0.973,0.063,-0.196,9.705,-19.836,21.484
0.959,0.071,-0.177,8.179,-17.395,19.348
0.951,0.065,-0.177,7.446,-15.869,17.639
0.948,0.065,-0.164,6.348,-13.245,15.442
0.949,0.066,-0.156,4.15,-9.949,13.184
0.936,0.068,-0.168,2.014,-7.141,10.925
0.922,0.077,-0.168,0.427,-2.869,8.85
0.93,0.096,-0.157,-0.732,1.892,6.958
0.937,0.087,-0.153,-0.977,6.104,5.798
0.94,0.079,-0.152,-1.343,9.155,4.822
0.959,0.077,-0.145,-2.808,11.902,4.333
0.98,0.079,-0.132,-4.639,12.878,4.333
0.99,0.085,-0.131,-6.165,11.536,5.066
0.994,0.091,-0.13,-6.958,8.545,6.348
0.99,0.089,-0.134,-7.69,5.005,7.874
0.981,0.086,-0.138,-8.24,2.075,9.399
0.975,0.094,-0.139,-9.216,-0.122,10.437
0.96,0.099,-0.147,-9.277,-1.77,10.803
0.942,0.098,-0.158,-8.667,-2.136,10.681
0.931,0.102,-0.161,-7.812,-1.465,9.705
0.922,0.102,-0.159,-6.836,-0.183,8.301
0.919,0.099,-0.154,-5.615,1.709,6.775
0.924,0.092,-0.148,-5.127,3.357,4.883
0.917,0.082,-0.147,-4.944,3.967,2.808
0.908,0.075,-0.142,-5.188,4.578,0.793
0.912,0.063,-0.137,-6.409,5.249,-1.282
0.918,0.057,-0.128,-7.996,6.287,-2.808
0.926,0.053,-0.127,-10.254,7.202,-3.967
0.931,0.054,-0.128,-13.0,7.935,-5.005
0.932,0.06,-0.13,-15.076,8.728,-5.92
0.927,0.065,-0.136,-17.151,9.766,-6.836
0.915,0.066,-0.15,-18.555,11.597,-7.69
1.121,-0.321,-1.186,86.365,-50.049,32.471
1.205,-0.319,-1.198,124.512,-55.786,45.471
1.275,-0.359,-1.201,167.419,-66.65,60.669
1.294,-0.417,-1.204,212.341,-79.59,77.332
1.265,-0.452,-1.177,255.188,-88.745,94.727
1.232,-0.432,-1.097,296.082,-91.248,110.657
1.192,-0.37,-0.98,336.609,-88.806,124.634
1.15,-0.329,-0.827,376.038,-82.581,135.925
1.106,-0.302,-0.692,414.307,-74.036,144.104
1.058,-0.302,-0.576,451.599,-65.308,147.827
1.007,-0.313,-0.436,486.206,-56.213,145.264
0.498,-1.188,-0.507,521.606,-48.096,136.108
0.918,-4.0,4.0,214.478,228.699,73.425
0.348,1.442,3.008,-607.361,612.915,-59.814
-0.717,4.0,-2.302,-513.916,119.141,64.026
1.407,4.0,-0.957,-335.022,7.324,14.587
1.944,2.491,0.742,-25.574,35.461,-32.654
1.781,1.293,0.926,109.07,-22.217,-3.601
1.54,0.639,0.471,150.33,-86.243,30.396
1.219,0.542,0.178,161.377,-133.484,40.527
0.874,0.507,0.037,185.059,-158.936,36.072
0.587,0.194,-0.026,216.614,-178.162,26.733
0.5,-0.133,-0.056,237.366,-165.344,22.888
0.518,-0.384,-0.164,235.474,-132.568,24.536
0.5,-0.731,-0.212,214.783,-85.083,30.518
0.505,-1.051,-0.026,160.278,-22.888,32.776
0.554,-1.142,0.072,75.562,29.663,25.024
0.654,-0.937,0.082,-16.785,64.026,3.845
0.735,-0.552,0.049,-96.741,82.825,-23.56
0.788,-0.26,0.0,-150.635,89.844,-45.715
0.83,-0.062,-0.052,-179.016,92.651,-63.293
0.905,0.186,0.029,-188.66,91.37,-78.796
0.948,0.34,0.006,-182.129,75.012,-84.412
0.964,0.375,-0.063,-162.048,54.81,-86.548
0.948,0.368,-0.127,-138.123,40.71,-86.731
0.969,0.343,-0.13,-113.342,33.997,-84.106
0.989,0.29,-0.157,-89.783,29.48,-79.224
0.981,0.163,-0.171,-70.801,31.555,-73.669
1.085,0.059,-0.091,-58.716,38.269,-70.557
1.009,-0.087,-0.16,-53.772,36.804,-67.505
1.168,-0.084,-0.053,-57.8,38.635,-62.195
1.16,-0.168,-0.177,-65.552,27.527,-53.101
1.089,-0.159,-0.165,-75.317,24.048,-48.279
0.991,-0.151,-0.223,-87.585,18.005,-43.152
0.887,-0.165,-0.336,-94.727,19.47,-43.823
0.897,-0.101,-0.322,-101.624,33.936,-49.011
0.96,-0.066,-0.268,-105.469,47.119,-52.979
0.956,-0.092,-0.323,-105.591,49.988,-56.03
0.945,-0.084,-0.37,-104.98,54.077,-58.044
0.96,-0.066,-0.373,-103.394,55.054,-57.861
0.973,-0.036,-0.399,-98.45,54.81,-55.786
1.009,-0.037,-0.386,-91.125,53.894,-52.979
1.069,-0.02,-0.369,-83.801,48.401,-49.988
1.063,-0.032,-0.402,-75.745,38.33,-44.922
1.01,-0.077,-0.433,-68.848,29.907,-39.917
1.021,-0.096,-0.448,-64.88,23.926,-36.011
1.063,-0.095,-0.437,-62.256,18.677,-30.823
1.097,-0.089,-0.415,-59.204,12.024,-25.146
1.089,-0.092,-0.412,-56.091,3.052,-20.264
1.066,-0.096,-0.428,-52.307,-4.883,-16.541
1.056,-0.098,-0.439,-49.072,-9.949,-13.977
1.061,-0.101,-0.438,-45.654,-11.658,-12.207
1.046,-0.11,-0.442,-41.748,-11.353,-10.803
1.026,-0.123,-0.435,-38.086,-9.399,-10.193
1.028,-0.124,-0.412,-35.828,-5.676,-10.498
1.037,-0.116,-0.398,-33.691,-1.587,-10.62
1.042,-0.119,-0.385,-32.043,1.526,-9.277
1.048,-0.126,-0.374,-30.151,3.052,-7.263
1.058,-0.131,-0.369,-29.114,2.808,-4.883
1.07,-0.129,-0.358,-28.442,1.648,-2.808
1.075,-0.13,-0.354,-27.832,-1.221,-0.061
1.062,-0.129,-0.363,-26.794,-5.493,3.052
1.042,-0.119,-0.366,-26.367,-9.094,5.554
1.017,-0.115,-0.373,-24.719,-11.841,7.385
0.98,-0.114,-0.385,-22.888,-12.573,8.24
0.954,-0.11,-0.388,-20.508,-10.071,8.301
0.95,-0.114,-0.378,-18.066,-6.348,7.935
0.956,-0.119,-0.363,-16.541,-2.93,7.019
0.973,-0.122,-0.353,-15.32,-1.16,5.859
0.987,-0.12,-0.348,-14.099,-1.343,4.639
0.984,-0.114,-0.349,-13.062,-3.174,4.211
0.982,-0.1,-0.348,-11.597,-5.127,4.883
0.987,-0.092,-0.338,-9.094,-6.042,6.348
0.995,-0.09,-0.324,-6.409,-6.287,8.057
0.995,-0.088,-0.313,-4.395,-6.531,9.277
0.999,-0.087,-0.304,-1.953,-7.202,9.827
0.999,-0.086,-0.296,0.061,-7.812,10.071
0.989,-0.088,-0.294,2.075,-8.179,10.193
0.988,-0.089,-0.287,3.845,-7.935,10.62
0.999,-0.089,-0.266,4.761,-6.897,11.292
1.025,-0.099,-0.244,4.822,-6.653,12.268
1.045,-0.101,-0.23,4.15,-8.484,14.038
1.046,-0.098,-0.227,3.052,-11.719,15.808
1.036,-0.091,-0.228,1.77,-15.015,17.517
1.013,-0.084,-0.232,1.282,-17.334,18.616
0.995,-0.077,-0.235,0.916,-17.334,19.287
0.981,-0.07,-0.234,1.16,-15.32,19.348
0.982,-0.072,-0.226,1.343,-11.78,19.165
0.995,-0.074,-0.212,1.526,-7.996,19.043
1.011,-0.074,-0.197,1.099,-5.493,18.86
1.019,-0.074,-0.189,0.732,-4.578,18.86
1.025,-0.073,-0.189,-0.122,-4.639,19.409
1.028,-0.07,-0.183,-1.282,-5.676,20.264
1.028,-0.068,-0.183,-2.319,-7.263,21.545
1.018,-0.063,-0.185,-3.052,-8.423,22.644
1.004,-0.06,-0.191,-3.235,-8.789,23.376
1.001,-0.054,-0.193,-3.418,-8.545,23.926
1.0,-0.05,-0.187,-3.601,-7.874,24.292
0.995,-0.051,-0.184,-3.418,-7.141,24.048
0.987,-0.049,-0.183,-3.662,-6.653,23.437
0.98,-0.046,-0.178,-3.784,-5.981,22.4
0.977,-0.047,-0.177,-3.784,-5.066,21.301
0.979,-0.047,-0.175,-3.784,-3.601,20.447
0.988,-0.049,-0.168,-4.639,-2.014,19.897
0.995,-0.051,-0.168,-5.432,-1.221,19.348
0.996,-0.049,-0.171,-6.531,-1.16,18.738
0.992,-0.041,-0.173,-7.446,-1.221,18.127
0.983,-0.037,-0.175,-7.996,-1.282,17.273
0.988,-0.038,-0.179,-8.301,-1.038,16.785
0.758,-0.74,-1.28,-26.123,-20.264,53.284
0.838,-0.718,-1.49,-8.606,-25.024,62.988
0.93,-0.657,-1.692,27.344,-35.034,71.96
0.989,-0.539,-1.886,85.449,-47.058,79.041
1.024,-0.393,-1.942,162.048,-57.19,85.449
1.045,-0.275,-1.788,250.244,-63.599,91.736
1.048,-0.228,-1.578,345.337,-67.322,96.436
0.987,-0.199,-1.336,433.228,-71.777,100.403
0.919,-0.191,-1.105,511.902,-72.083,102.478
0.898,-0.261,-0.94,586.365,-64.575,100.891
0.906,-0.358,-0.817,653.687,-52.49,92.285
0.722,-1.072,-0.456,716.248,-37.109,75.623
3.796,-3.917,4.0,425.293,241.821,-26.184
1.673,2.965,0.741,-511.108,428.162,-26.794
-0.223,4.0,-2.381,-451.477,-63.843,195.496
1.197,2.643,-1.13,-237.61,-89.05,100.159
1.158,1.714,0.157,7.751,-92.529,58.289
0.502,1.127,0.315,100.159,-110.779,35.706
0.596,0.238,0.274,127.197,-21.79,34.18
0.961,0.203,0.271,123.901,39.795,17.029
1.005,0.375,0.149,135.925,15.869,8.789
1.008,0.132,-0.071,173.096,-27.161,20.935
0.967,-0.229,-0.166,192.566,-69.946,44.556
0.69,-0.515,-0.112,187.012,-84.839,61.89
0.432,-0.854,-0.011,163.269,-59.326,63.599
0.4,-0.958,0.156,109.314,-21.79,49.316
0.568,-0.749,0.243,34.424,6.775,28.442
0.706,-0.4,0.22,-32.349,17.456,7.324
0.676,-0.233,0.073,-78.735,16.541,-9.338
0.617,-0.054,0.094,-105.896,19.409,-29.419
0.734,0.218,0.149,-119.812,19.714,-44.861
0.56,0.268,-0.045,-117.432,13.489,-52.002
0.618,0.276,0.034,-109.192,25.391,-58.105
0.73,0.303,0.036,-98.267,33.142,-61.584
0.81,0.275,0.012,-84.229,34.241,-61.829
0.813,0.213,-0.005,-72.266,33.142,-61.279
0.992,0.195,0.111,-65.247,30.518,-59.814
1.037,0.115,0.032,-61.523,15.503,-56.274
0.967,0.066,-0.025,-61.646,2.991,-55.115
1.028,0.047,-0.005,-66.101,-2.686,-53.345
1.069,0.0,-0.038,-70.74,-8.972,-51.392
1.057,-0.001,-0.126,-76.904,-16.479,-51.392
1.004,-0.011,-0.163,-82.275,-15.686,-50.537
0.989,0.007,-0.21,-88.135,-11.23,-51.331
0.995,0.038,-0.254,-91.248,-3.906,-52.185
1.003,0.063,-0.281,-91.248,5.737,-51.941
1.041,0.077,-0.3,-88.745,14.832,-51.086
1.084,0.085,-0.298,-85.266,22.217,-49.744
1.103,0.083,-0.311,-81.299,25.269,-48.096
1.1,0.078,-0.335,-77.148,24.841,-46.509
1.092,0.071,-0.363,-73.364,23.743,-44.556
1.095,0.084,-0.367,-70.007,22.4,-42.664
1.118,0.098,-0.356,-66.711,19.104,-40.039
1.144,0.103,-0.354,-63.232,13.245,-36.621
1.158,0.107,-0.351,-59.998,5.371,-32.898
1.144,0.116,-0.355,-56.396,-3.662,-28.809
1.12,0.121,-0.375,-51.636,-12.024,-24.048
1.1,0.12,-0.372,-46.509,-18.25,-19.104
1.076,0.118,-0.361,-41.565,-21.79,-15.259
1.048,0.103,-0.353,-37.598,-22.278,-13.367
1.031,0.079,-0.346,-34.729,-20.142,-13.123
1.045,0.054,-0.334,-33.447,-16.296,-13.794
1.031,0.045,-0.337,-33.142,-13.184,-13.367
1.039,0.047,-0.336,-32.654,-9.399,-11.169
1.072,0.067,-0.311,-32.166,-6.042,-7.446
1.082,0.073,-0.295,-31.677,-4.456,-4.089
1.079,0.078,-0.285,-30.396,-5.188,-1.587
1.076,0.071,-0.282,-28.992,-7.629,0.061
1.073,0.064,-0.276,-27.283,-10.071,0.427
1.052,0.058,-0.267,-26.245,-12.878,0.305
1.011,0.041,-0.277,-25.208,-15.564,0.061
0.98,0.028,-0.29,-24.902,-15.869,0.61
0.963,0.028,-0.283,-25.269,-13.367,1.465
0.972,0.026,-0.273,-25.818,-9.216,1.526
0.985,0.026,-0.263,-25.879,-4.822,0.793
0.96,0.01,-0.266,-26.306,-0.549,-0.732
0.98,0.024,-0.223,-26.855,2.991,-3.357
1.001,0.043,-0.239,-27.466,3.662,-4.517
0.995,0.032,-0.233,-25.757,4.333,-4.578
1.009,0.05,-0.217,-24.719,4.944,-4.395
1.043,0.06,-0.203,-21.973,4.517,-3.235
1.058,0.059,-0.177,-18.677,3.357,-1.587
1.065,0.056,-0.178,-15.259,-0.122,0.488
1.058,0.039,-0.179,-12.695,-3.784,3.235
1.048,0.037,-0.164,-11.047,-5.92,5.127
1.034,0.027,-0.152,-9.521,-6.897,6.714
1.023,0.016,-0.145,-9.094,-6.775,8.545
1.02,0.006,-0.142,-9.033,-5.92,10.132
1.014,-0.002,-0.142,-9.46,-4.272,11.047
1.015,-0.004,-0.13,-11.047,-2.014,11.23
1.018,-0.006,-0.135,-12.878,-0.549,10.62
1.02,-0.001,-0.135,-14.343,0.916,9.644
1.016,0.004,-0.134,-15.32,2.441,8.667
1.018,0.011,-0.135,-16.052,3.357,7.507
1.015,0.015,-0.136,-16.357,4.333,7.08
1.013,0.02,-0.136,-16.479,5.676,7.202
1.014,0.022,-0.138,-15.991,7.019,7.446
1.021,0.018,-0.136,-15.503,7.874,7.812
1.028,0.021,-0.13,-14.893,8.179,8.362
1.036,0.019,-0.129,-13.977,6.897,9.399
1.035,0.012,-0.13,-13.55,4.517,10.864
1.036,0.009,-0.132,-13.489,1.77,12.085
1.04,-0.003,-0.132,-13.245,-1.648,13.977
1.027,-0.005,-0.131,-13.916,-5.432,15.076
1.013,0.0,-0.121,-14.465,-8.179,15.625
1.009,0.002,-0.111,-14.954,-10.01,15.747
1.02,0.006,-0.123,-15.503,-12.512,16.235
1.011,0.014,-0.131,-15.869,-15.015,16.724
0.983,0.026,-0.135,-15.625,-15.869,16.541
0.964,0.04,-0.137,-14.709,-14.709,15.808
0.971,0.05,-0.133,-13.611,-12.512,14.893
0.969,0.045,-0.129,-11.902,-10.315,13.733
0.975,0.041,-0.126,-10.559,-8.179,12.817
0.985,0.041,-0.123,-9.583,-6.836,12.024
0.986,0.038,-0.121,-9.094,-6.714,11.414
0.983,0.032,-0.125,-9.338,-7.08,10.925
0.983,0.028,-0.129,-9.644,-7.263,10.437
0.98,0.032,-0.134,-10.559,-7.507,10.254
0.977,0.043,-0.142,-11.597,-7.507,10.254
1.246,-0.215,-1.264,-48.767,-2.93,38.696
1.262,-0.291,-1.323,-38.574,-6.714,46.448
1.274,-0.383,-1.38,-27.527,-13.733,55.359
1.272,-0.444,-1.447,-13.916,-24.231,64.636
1.244,-0.443,-1.534,4.7,-37.109,73.181
1.176,-0.396,-1.619,32.959,-49.683,81.238
1.109,-0.335,-1.65,73.303,-55.725,89.844
1.03,-0.211,-1.637,125.427,-54.199,98.45
0.985,-0.07,-1.542,192.139,-46.631,106.384
0.975,0.028,-1.329,269.287,-36.621,113.281
0.964,0.056,-1.03,351.135,-28.564,118.713
0.942,0.019,-0.713,429.321,-24.963,123.535
0.898,-0.08,-0.469,499.512,-28.015,128.784
0.842,-0.242,-0.31,562.073,-38.391,132.935
0.763,-0.547,-0.14,614.868,-53.345,135.559
1.15,-4.0,4.0,506.775,32.104,80.017
0.984,2.406,2.882,-341.125,291.504,-95.459
-2.233,3.97,-3.163,-431.641,-258.301,187.683
0.038,2.306,-0.861,-254.761,-183.716,179.016
0.571,1.733,-0.001,-10.803,-76.05,112.061
-0.02,1.104,0.568,100.037,-35.706,76.294
0.275,0.382,0.35,162.17,18.433,59.814
0.876,0.01,0.37,180.786,35.645,25.208
0.91,0.183,0.416,178.955,37.17,-1.16
0.793,0.053,0.233,194.153,26.123,1.404
0.909,-0.243,0.142,209.473,0.977,1.099
0.923,-0.553,0.173,201.904,-22.522,7.263
0.854,-0.964,0.276,165.161,-17.517,24.292
0.766,-1.098,0.386,98.877,3.784,28.503
0.651,-0.861,0.414,15.503,19.104,13.611
0.628,-0.54,0.321,-58.044,24.048,-7.141
0.65,-0.223,0.22,-105.225,21.79,-27.344
0.649,-0.029,0.183,-127.075,16.052,-45.471
0.577,0.146,0.13,-131.226,13.733,-61.829
0.654,0.29,0.264,-125.732,18.921,-70.862
0.756,0.315,0.202,-112.671,15.564,-71.35
0.798,0.317,0.17,-94.299,11.23,-71.045
0.838,0.325,0.196,-76.782,9.399,-70.557
0.9,0.275,0.174,-59.998,3.54,-68.42
0.963,0.204,0.175,-46.204,-2.319,-68.237
0.993,0.193,0.175,-38.696,-8.606,-70.679
1.003,0.14,0.161,-34.973,-14.282,-70.862
0.992,0.072,0.121,-34.485,-17.761,-73.242
0.952,0.053,0.08,-37.903,-17.395,-79.346
0.921,0.086,0.05,-43.579,-11.292,-84.412
0.895,0.047,0.018,-48.401,-0.732,-84.9
0.888,0.055,-0.018,-54.443,12.329,-86.426
0.899,0.103,-0.005,-60.73,27.771,-87.341
0.942,0.111,0.016,-65.308,41.443,-86.365
0.995,0.123,0.002,-69.275,49.805,-86.975
1.008,0.147,-0.014,-71.045,52.673,-87.83
1.035,0.168,-0.029,-71.228,51.88,-86.06
1.056,0.175,-0.049,-69.885,47.607,-82.52
1.071,0.182,-0.062,-67.017,41.016,-78.247
1.059,0.181,-0.077,-63.354,34.485,-73.853
1.045,0.175,-0.092,-59.937,29.053,-70.129
1.042,0.176,-0.101,-56.641,25.33,-66.772
1.039,0.168,-0.118,-52.979,22.766,-62.622
1.028,0.141,-0.14,-49.194,21.057,-59.021
1.022,0.086,-0.129,-44.922,21.606,-57.556
1.097,0.159,-0.04,-42.847,19.043,-57.495
1.135,0.129,-0.051,-41.077,7.507,-51.697
1.116,0.09,-0.07,-39.185,-4.211,-46.204
1.07,0.071,-0.097,-38.086,-12.39,-43.335
1.036,0.058,-0.109,-36.56,-14.893,-41.687
1.03,0.058,-0.104,-35.156,-12.268,-41.199
1.027,0.042,-0.093,-33.875,-6.653,-41.87
1.025,0.031,-0.086,-34.058,1.038,-43.762
1.03,0.014,-0.095,-35.034,10.925,-46.265
1.049,0.008,-0.101,-36.804,21.423,-48.523
1.071,0.015,-0.099,-38.33,30.396,-50.049
1.108,0.031,-0.086,-39.185,36.804,-49.927
1.154,0.054,-0.07,-39.307,39.307,-47.546
1.187,0.073,-0.056,-38.391,37.17,-42.969
1.205,0.099,-0.043,-35.583,29.968,-36.438
1.214,0.119,-0.033,-30.518,18.25,-28.259
1.214,0.134,-0.022,-24.597,4.761,-18.86
1.184,0.146,-0.019,-17.7,-8.728,-9.46
1.145,0.147,-0.023,-9.888,-20.508,-1.16
1.099,0.142,-0.026,-2.563,-29.297,6.165
1.078,0.132,-0.025,4.333,-33.997,11.963
1.013,0.079,-0.024,10.559,-35.278,15.625
1.045,0.136,0.032,14.099,-34.912,16.113
1.046,0.103,0.026,17.578,-37.72,18.799
1.011,0.077,0.06,19.287,-37.842,20.935
1.015,0.083,0.057,18.799,-38.33,21.851
1.007,0.073,0.074,18.677,-37.964,21.912
0.977,0.071,0.083,17.395,-37.231,20.935
0.973,0.069,0.094,15.93,-35.522,20.264
0.973,0.061,0.107,13.855,-32.41,19.287
0.948,0.055,0.105,10.803,-27.954,17.517
0.939,0.057,0.109,7.751,-21.851,15.137
0.956,0.052,0.113,5.188,-14.587,13.062
0.961,0.046,0.113,2.808,-7.568,10.925
0.984,0.036,0.125,0.366,-1.709,9.277
0.975,0.021,0.094,-1.709,3.54,7.935
1.016,0.043,0.133,-3.906,8.179,6.348
1.061,0.039,0.139,-5.371,7.446,5.615
1.051,0.041,0.132,-6.165,6.104,6.287
1.05,0.073,0.133,-5.676,4.272,7.629
1.047,0.071,0.131,-2.991,1.343,10.437
1.025,0.066,0.132,1.282,-2.197,12.39
1.003,0.058,0.125,5.005,-5.432,14.038
0.993,0.052,0.131,8.85,-7.019,16.052
0.985,0.042,0.143,11.963,-8.118,17.883
0.988,0.031,0.153,14.404,-9.888,19.714
0.993,0.026,0.159,15.686,-11.841,21.79
0.991,0.016,0.164,16.296,-14.526,23.926
0.982,0.006,0.165,15.991,-17.334,25.574
0.97,0.006,0.162,14.954,-19.165,26.489
0.959,0.018,0.169,13.611,-19.714,27.1
0.952,0.028,0.176,12.512,-18.677,26.917
0.95,0.035,0.185,11.536,-17.029,26.184
0.947,0.037,0.19,10.254,-15.076,25.33
0.943,0.038,0.195,8.423,-12.634,24.109
0.942,0.039,0.201,6.714,-10.132,22.888
0.935,0.036,0.204,4.822,-7.812,22.095
0.933,0.036,0.209,2.075,-5.066,21.851
0.939,0.038,0.214,-0.916,-2.502,21.423
1.228,-0.745,-1.379,-231.689,54.321,-29.053
1.305,-0.694,-1.643,-229.126,42.236,-22.339
1.337,-0.53,-1.899,-203.43,30.945,-10.254
1.382,-0.296,-2.041,-150.024,23.499,4.089
1.404,-0.019,-2.079,-71.35,14.587,19.104
1.387,0.203,-2.082,34.607,-1.465,32.349
1.336,0.235,-1.922,165.466,-17.639,45.349
1.291,0.003,-1.552,298.645,-24.719,57.373
1.229,-0.173,-1.242,405.762,-25.024,67.566
1.121,-0.235,-1.083,490.295,-21.729,74.158
1.039,-0.332,-0.923,565.063,-9.705,78.735
0.992,-0.451,-0.818,630.432,0.793,78.43
1.538,-3.384,2.374,697.693,2.075,61.89
4.0,-1.927,4.0,334.167,-21.423,-67.2
-2.857,2.697,-2.057,-504.883,-235.596,105.774
-2.087,2.93,-2.923,-398.437,-301.514,155.518
0.005,1.948,-1.575,-125.61,-104.309,89.294
0.546,1.125,0.183,46.753,19.47,28.259
0.43,0.466,0.876,143.616,91.187,-17.09
0.827,0.066,0.993,160.645,123.047,-53.772
1.38,0.34,0.499,154.358,108.887,-61.462
1.22,0.043,0.067,186.462,47.607,-66.772
0.885,-0.231,-0.009,215.698,29.48,-62.927
0.823,-0.216,0.068,227.844,21.423,-50.903
1.0,-0.312,0.183,235.657,20.691,-32.898
1.14,-0.356,0.324,235.962,23.804,-15.991
1.203,-0.426,0.473,217.59,17.883,2.686
1.209,-0.486,0.54,189.88,2.93,20.508
1.145,-0.526,0.523,155.579,-20.325,32.715
1.038,-0.498,0.47,119.202,-43.945,38.33
0.939,-0.405,0.414,83.496,-60.974,40.955
0.883,-0.329,0.376,52.002,-66.284,44.8
0.822,-0.219,0.339,26.245,-63.904,43.64
0.725,-0.149,0.279,8.362,-60.486,33.386
0.622,-0.122,0.217,-1.648,-52.368,16.846
0.564,-0.112,0.221,-8.118,-34.241,-1.221
0.592,-0.031,0.28,-15.137,-15.869,-21.79
0.648,-0.0,0.287,-22.339,-4.272,-38.818
0.711,-0.046,0.268,-29.053,6.226,-50.964
0.738,-0.063,0.224,-36.682,17.517,-59.814
0.808,-0.04,0.219,-43.823,31.494,-64.331
0.915,-0.028,0.252,-50.659,43.457,-65.002
0.972,-0.02,0.234,-56.396,49.316,-63.782
1.034,0.021,0.225,-60.181,52.429,-61.584
1.027,0.016,0.155,-61.157,52.795,-58.777
1.061,0.022,0.188,-61.218,53.833,-58.777
1.087,0.103,0.143,-61.035,49.316,-58.716
1.077,0.102,0.122,-57.251,45.471,-54.321
1.116,0.139,0.126,-53.101,40.833,-50.659
1.066,0.12,0.087,-46.936,34.851,-46.875
1.211,0.14,0.083,-41.199,32.715,-43.152
1.121,0.127,0.07,-34.668,26.55,-38.513
1.093,0.133,0.071,-28.442,20.203,-34.424
1.175,0.132,0.073,-22.827,13.611,-30.945
1.147,0.135,0.069,-17.883,8.118,-27.161
1.118,0.12,0.06,-14.648,2.319,-23.315
1.113,0.151,0.094,-11.78,-1.648,-18.738
1.098,0.119,0.038,-8.85,-6.287,-12.451
1.069,0.125,0.084,-7.08,-5.432,-9.155
1.057,0.141,0.086,-5.554,-5.188,-7.324
1.037,0.107,0.055,-3.967,-5.981,-5.554
0.998,0.122,0.065,-3.113,-3.296,-4.7
0.964,0.108,0.028,-1.648,-0.305,-2.93
0.951,0.105,0.034,-0.916,6.714,-1.038
0.965,0.106,0.059,-0.244,13.733,0.244
0.994,0.095,0.07,-0.488,17.822,0.916
1.046,0.104,0.084,-1.892,17.639,1.282
1.053,0.093,0.078,-3.784,13.062,2.991
1.051,0.103,0.066,-6.042,6.653,5.554
1.043,0.107,0.052,-7.751,-0.061,9.399
1.02,0.11,0.025,-8.911,-5.859,12.268
0.994,0.108,0.006,-9.338,-8.179,13.855
0.964,0.105,-0.009,-9.46,-6.653,13.672
0.953,0.095,-0.03,-8.85,-2.808,11.902
0.951,0.082,-0.038,-8.606,4.028,8.972
0.95,0.068,-0.05,-8.057,11.902,4.883
0.961,0.058,-0.055,-7.385,20.02,0.366
0.999,0.053,-0.046,-6.714,27.954,-2.808
1.036,0.038,-0.035,-5.981,34.241,-4.456
1.061,0.02,-0.031,-5.432,37.903,-5.493
1.078,0.01,-0.027,-5.981,39.795,-5.737
1.081,0.004,-0.029,-6.714,39.978,-4.761
1.073,-0.003,-0.032,-7.324,39.185,-3.54
1.063,-0.002,-0.027,-8.118,38.086,-3.052
1.053,0.007,-0.03,-8.24,36.316,-2.136
1.037,0.005,-0.03,-7.629,33.325,-0.122
1.02,0.005,-0.023,-6.775,29.785,1.831
1.0,0.001,-0.024,-5.371,24.963,3.601
0.978,-0.013,-0.023,-3.723,20.142,4.639
0.957,-0.035,-0.018,-2.869,15.625,4.395
0.944,-0.055,-0.008,-3.174,11.536,3.235
0.935,-0.07,-0.004,-5.066,8.118,2.319
0.934,-0.086,-0.008,-8.606,5.554,2.869
0.937,-0.091,-0.007,-13.245,4.211,4.211
0.942,-0.084,-0.012,-18.86,4.028,5.127
0.945,-0.079,-0.022,-23.987,5.432,4.761
0.958,-0.065,-0.029,-28.076,8.057,2.563
0.98,-0.038,-0.03,-31.311,11.963,-1.038
0.995,-0.01,-0.031,-32.898,16.479,-4.517
1.004,0.01,-0.037,-32.593,20.874,-7.874
1.02,0.027,-0.04,-30.64,25.94,-10.315
1.042,0.04,-0.037,-27.893,30.64,-11.169
1.057,0.041,-0.034,-24.414,34.668,-10.62
1.077,0.028,-0.032,-20.935,37.537,-9.094
1.085,0.003,-0.027,-17.761,38.574,-7.141
1.099,-0.008,-0.02,-16.785,37.109,-5.066
1.103,-0.005,-0.016,-17.639,33.997,-2.808
1.09,-0.003,-0.014,-19.104,30.151,0.854
1.081,0.004,-0.022,-20.813,24.902,4.7
1.063,0.015,-0.033,-22.4,19.775,7.69
1.032,0.028,-0.048,-23.56,15.442,9.583
1.005,0.04,-0.064,-23.743,12.451,10.864
0.982,0.048,-0.075,-23.315,11.108,11.597
0.969,0.052,-0.082,-22.583,10.498,11.963
0.959,0.051,-0.089,-21.423,10.62,11.536
0.959,0.044,-0.095,-21.057,10.864,11.047
0.961,0.037,-0.1,-20.996,10.62,10.498
0.989,0.038,-0.101,-21.729,10.437,10.193
1.023,0.045,-0.096,-22.4,9.521,10.498
0.912,-1.008,-1.187,-152.893,5.249,-0.732
0.929,-1.206,-1.416,-164.429,-6.897,1.77
0.902,-1.327,-1.705,-170.044,-20.508,5.676
0.867,-1.317,-2.031,-160.278,-30.212,10.803
0.846,-1.191,-2.353,-125.366,-33.447,17.7
0.863,-0.917,-2.548,-64.636,-29.114,28.259
0.928,-0.516,-2.512,24.048,-23.56,41.87
1.013,-0.244,-2.329,147.095,-27.527,53.528
1.105,-0.347,-1.935,287.109,-39.856,64.026
1.072,-0.556,-1.536,407.104,-51.086,71.716
0.928,-0.493,-1.375,496.338,-58.716,74.341
0.833,-0.324,-1.24,578.735,-56.274,72.51
0.862,-0.253,-1.036,664.246,-43.823,70.068
0.959,-0.344,-0.838,752.686,-32.41,64.392
-2.306,-4.0,4.0,776.978,33.63,28.992
3.803,0.095,3.219,-429.932,598.572,-85.083
0.751,4.0,-2.991,-683.167,-12.024,186.218
1.758,3.999,-1.817,-391.357,-187.927,146.484
1.247,1.677,0.324,-53.65,-174.805,62.561
0.6,1.199,0.445,60.73,-132.69,82.153
0.745,0.891,-0.654,131.042,-59.204,100.159
0.965,0.072,-0.584,162.842,-53.772,89.722
1.0,-0.016,0.006,173.035,-51.392,68.909
0.899,-0.081,-0.027,219.299,-87.402,42.053
0.684,-0.297,-0.418,254.456,-133.606,34.424
0.5,-0.49,-0.619,264.16,-125.305,37.109
0.498,-0.677,-0.577,267.578,-59.998,31.433
0.518,-0.811,-0.413,256.958,3.235,19.104
0.537,-0.853,-0.3,230.896,50.415,6.226
0.721,-0.835,-0.153,191.528,86.792,-3.662
0.898,-0.735,0.015,141.357,105.408,-12.451
0.991,-0.526,0.097,90.088,104.065,-18.433
0.877,-0.451,-0.032,52.063,91.98,-21.545
0.933,-0.344,0.098,23.682,84.717,-30.334
0.908,-0.117,0.179,-4.578,62.195,-35.767
0.881,0.048,0.112,-21.973,23.437,-32.593
0.809,0.007,-0.051,-33.081,-8.179,-25.33
0.698,0.033,-0.05,-40.039,-19.714,-27.527
0.965,0.067,0.063,-42.542,-28.748,-32.654
0.812,0.14,-0.075,-40.466,-43.579,-35.278
0.712,0.056,-0.098,-38.086,-47.485,-32.837
0.786,0.06,-0.053,-38.513,-41.809,-36.194
0.76,0.021,-0.106,-36.499,-36.438,-42.114
0.74,-0.008,-0.141,-36.621,-25.696,-49.622
0.798,-0.028,-0.103,-38.452,-12.329,-57.251
0.844,-0.068,-0.109,-40.955,-0.793,-64.148
0.833,-0.111,-0.157,-44.678,9.705,-72.144
0.842,-0.139,-0.178,-49.805,22.522,-79.529
0.906,-0.129,-0.174,-55.664,34.607,-85.327
0.975,-0.121,-0.172,-60.852,43.762,-87.646
1.0,-0.125,-0.187,-65.002,49.377,-86.548
1.019,-0.134,-0.215,-68.848,51.636,-83.435
1.056,-0.116,-0.238,-72.021,51.392,-79.529
1.088,-0.089,-0.251,-73.669,48.279,-74.463
1.113,-0.07,-0.265,-73.059,41.809,-68.542
1.161,-0.039,-0.261,-71.167,33.447,-62.683
1.166,-0.014,-0.279,-67.017,22.888,-56.763
1.139,-0.003,-0.302,-60.852,12.146,-50.72
1.144,0.016,-0.291,-54.443,2.808,-44.861
1.157,0.031,-0.277,-47.302,-6.042,-38.879
1.159,0.003,-0.279,-39.185,-14.465,-33.691
1.159,-0.026,-0.275,-33.02,-20.874,-31.067
1.161,-0.046,-0.274,-28.198,-25.513,-30.396
1.153,-0.066,-0.273,-24.841,-27.893,-29.663
1.155,-0.082,-0.259,-23.132,-27.71,-28.625
1.163,-0.084,-0.234,-22.4,-26.978,-27.771
1.152,-0.083,-0.235,-21.79,-26.611,-26.855
1.133,-0.087,-0.23,-21.545,-24.536,-26.062
1.118,-0.079,-0.223,-21.301,-21.606,-25.818
1.11,-0.087,-0.237,-19.409,-18.494,-24.841
1.121,-0.097,-0.216,-17.7,-14.221,-23.193
1.134,-0.103,-0.2,-16.968,-11.536,-21.545
1.145,-0.122,-0.193,-16.663,-9.827,-19.714
1.147,-0.127,-0.188,-18.311,-8.484,-17.151
1.151,-0.126,-0.193,-19.897,-8.423,-12.939
1.148,-0.123,-0.193,-21.301,-9.155,-7.507
1.131,-0.119,-0.194,-22.4,-10.315,-2.747
1.096,-0.113,-0.204,-22.522,-11.536,1.099
1.052,-0.117,-0.22,-22.034,-11.047,4.211
1.044,-0.119,-0.228,-20.813,-8.118,6.042
1.039,-0.135,-0.224,-18.799,-3.784,6.104
1.001,-0.141,-0.208,-17.09,-0.366,4.456
1.083,-0.096,-0.167,-16.052,-0.305,3.174
1.06,-0.116,-0.197,-13.611,-4.395,4.578
1.036,-0.126,-0.181,-12.268,-7.08,7.202
1.068,-0.117,-0.182,-11.047,-10.376,10.803
1.042,-0.133,-0.165,-9.094,-13.0,14.526
1.021,-0.129,-0.171,-8.423,-16.724,17.09
1.019,-0.132,-0.158,-6.714,-19.043,18.25
0.995,-0.123,-0.161,-5.188,-20.264,18.555
0.972,-0.118,-0.161,-3.113,-19.897,18.738
0.973,-0.123,-0.146,-0.549,-17.578,19.104
0.972,-0.131,-0.136,1.526,-14.526,18.616
0.964,-0.142,-0.126,3.357,-10.986,17.334
0.975,-0.14,-0.097,4.517,-7.629,15.869
0.975,-0.161,-0.102,5.371,-5.493,15.259
0.981,-0.157,-0.078,4.761,-2.258,14.954
0.991,-0.164,-0.063,3.479,-0.977,15.625
0.998,-0.172,-0.07,1.77,-1.038,16.235
0.994,-0.181,-0.057,-0.366,-1.099,16.785
0.992,-0.181,-0.056,-3.296,-1.831,16.602
0.985,-0.193,-0.065,-5.981,-2.319,15.93
0.966,-0.189,-0.071,-9.46,-1.343,14.465
0.96,-0.177,-0.075,-12.573,0.671,13.062
0.965,-0.171,-0.078,-14.465,4.211,11.78
0.973,-0.164,-0.081,-15.93,8.301,10.437
0.974,-0.153,-0.082,-16.602,12.634,9.399
0.979,-0.143,-0.087,-16.174,17.029,8.789
0.997,-0.14,-0.082,-15.259,20.996,8.911
1.013,-0.149,-0.074,-13.916,23.926,9.155
1.027,-0.162,-0.068,-13.0,25.391,9.521
1.038,-0.167,-0.062,-13.0,24.963,9.827
1.046,-0.166,-0.057,-13.184,23.499,10.132
1.054,-0.164,-0.052,-13.367,20.813,11.047
1.057,-0.161,-0.048,-13.611,17.212,12.756
1.052,-0.155,-0.047,-13.428,12.695,14.526
1.038,-0.152,-0.044,-13.123,8.301,16.663
1.02,-0.15,-0.044,-12.939,4.517,18.799
1.003,-0.147,-0.042,-12.939,1.404,20.325
0.621,-0.761,-1.449,-119.629,30.945,45.776
0.612,-0.857,-1.662,-109.009,38.452,36.499
0.665,-0.899,-1.856,-89.844,44.983,30.212
0.711,-0.82,-2.073,-53.467,45.166,26.306
0.745,-0.588,-2.265,7.263,41.382,23.804
0.774,-0.284,-2.312,94.177,33.691,22.461
0.805,-0.124,-2.159,206.97,18.86,22.461
0.85,-0.24,-1.819,330.872,7.996,25.879
0.826,-0.331,-1.431,434.875,3.052,32.043
0.715,-0.147,-1.198,516.785,0.366,37.292
0.668,0.049,-1.002,602.966,-0.671,41.138
-1.785,-3.101,3.028,693.665,-2.93,45.532
2.703,-4.0,4.0,-82.825,569.763,-55.908
1.255,4.0,-2.582,-761.047,115.662,-181.702
2.727,4.0,-2.165,-514.099,-353.882,-95.886
1.708,3.674,-0.074,-76.05,-166.931,-37.903
1.27,2.095,0.537,192.017,-73.547,61.096
0.883,1.337,-0.929,287.781,-89.661,107.483
1.163,0.54,-0.624,350.098,-77.82,41.626
1.126,0.044,0.028,403.809,-84.961,-0.549
1.222,-0.174,-0.248,423.889,-99.976,-11.841
1.23,-0.514,-0.389,412.476,-82.336,-9.399
1.073,-1.076,-0.149,392.029,-25.269,-13.916
0.917,-1.419,0.246,334.412,30.396,-28.748
0.863,-1.255,0.282,241.76,63.354,-47.241
0.997,-0.969,0.254,143.494,79.895,-59.143
0.992,-0.783,0.065,48.096,67.566,-54.321
0.967,-0.539,0.006,-29.907,49.866,-50.415
0.738,-0.256,-0.166,-79.163,27.222,-53.345
0.722,-0.053,-0.175,-98.877,17.517,-57.19
0.75,-0.018,-0.127,-109.009,14.709,-58.655
1.036,0.245,0.125,-110.046,9.155,-66.406
0.96,0.31,-0.039,-104.065,-12.878,-59.998
0.812,0.26,-0.095,-86.182,-25.818,-55.542
0.871,0.099,-0.364,-72.876,-22.095,-54.443
1.031,0.233,0.086,-59.57,-8.606,-64.331
0.98,0.149,-0.205,-46.387,-19.043,-62.5
1.05,0.025,-0.112,-33.875,-5.798,-61.035
1.142,0.016,-0.11,-31.921,-3.052,-61.707
1.1,-0.041,-0.147,-31.555,-0.305,-60.608
1.082,-0.07,-0.182,-35.95,2.502,-58.289
1.171,-0.097,-0.165,-42.114,7.629,-54.382
1.205,-0.053,-0.156,-48.889,9.827,-51.697
1.148,-0.079,-0.203,-54.382,7.935,-47.729
1.135,-0.05,-0.212,-60.791,8.911,-45.471
1.119,-0.016,-0.242,-64.941,11.047,-43.274
1.1,0.05,-0.255,-65.857,14.832,-40.466
1.107,0.079,-0.24,-63.965,18.433,-35.645
1.102,0.086,-0.246,-60.059,18.433,-32.288
1.099,0.099,-0.253,-55.054,16.052,-30.884
1.085,0.119,-0.26,-49.866,12.695,-30.396
1.062,0.128,-0.268,-43.579,8.728,-29.175
1.048,0.115,-0.27,-36.926,5.066,-27.588
1.038,0.094,-0.266,-31.372,2.441,-26.55
1.054,0.094,-0.247,-27.588,0.671,-26.428
1.071,0.106,-0.231,-24.475,-2.136,-25.208
1.071,0.108,-0.227,-20.752,-6.287,-22.339
1.072,0.107,-0.214,-17.09,-9.827,-18.86
1.085,0.109,-0.185,-13.489,-12.207,-15.625
1.09,0.109,-0.163,-10.62,-14.404,-12.939
1.087,0.104,-0.146,-7.629,-15.625,-10.559
1.084,0.098,-0.13,-4.883,-15.747,-8.301
1.082,0.087,-0.113,-2.747,-14.587,-5.981
1.077,0.074,-0.093,-1.526,-12.573,-4.028
1.069,0.067,-0.077,-1.282,-10.071,-3.052
1.066,0.059,-0.063,-2.258,-6.958,-2.502
1.063,0.054,-0.054,-3.967,-3.54,-2.258
1.064,0.051,-0.045,-5.615,-0.122,-2.502
1.066,0.043,-0.042,-7.874,3.479,-2.38
1.072,0.038,-0.051,-10.559,6.287,-1.587
1.083,0.039,-0.054,-13.123,8.362,0.366
1.111,0.037,-0.05,-15.686,10.193,2.686
1.125,0.041,-0.052,-17.761,10.681,4.456
1.114,0.044,-0.062,-19.165,9.766,5.615
1.107,0.043,-0.07,-19.592,8.362,6.653
1.105,0.045,-0.075,-19.165,6.653,7.446
1.098,0.041,-0.083,-17.7,5.249,8.484
1.083,0.031,-0.084,-16.174,4.761,9.399
1.073,0.026,-0.089,-14.526,4.272,10.498
1.073,0.023,-0.086,-12.756,3.601,12.329
1.071,0.022,-0.081,-11.169,2.563,13.977
1.065,0.023,-0.079,-8.789,0.854,15.442
1.05,0.02,-0.083,-6.104,-0.977,17.09
1.039,0.015,-0.08,-3.418,-2.441,18.555
1.028,0.01,-0.068,-0.61,-3.54,19.897
1.022,0.001,-0.06,1.587,-4.456,20.691
1.011,-0.005,-0.052,3.235,-5.005,20.813
1.003,-0.01,-0.046,5.005,-5.615,20.874
1.006,-0.013,-0.034,5.859,-6.104,21.484
1.007,-0.011,-0.019,6.348,-6.958,22.217
1.005,-0.009,-0.001,6.897,-8.179,22.705
1.007,-0.016,0.008,7.385,-9.521,23.254
1.001,-0.019,0.013,7.629,-11.047,23.743
1.0,-0.021,0.021,7.751,-12.451,24.841
1.012,-0.03,0.035,6.714,-13.367,26.367
1.02,-0.034,0.046,5.249,-14.221,27.71
1.018,-0.036,0.049,2.93,-15.686,29.175
1.012,-0.036,0.047,0.427,-17.273,30.457
1.004,-0.036,0.043,-2.441,-18.066,31.128
0.989,-0.037,0.033,-5.188,-18.372,31.189
0.969,-0.032,0.019,-8.301,-17.639,30.762
0.96,-0.03,0.009,-11.597,-15.93,29.541
0.947,-0.029,-0.001,-14.587,-13.062,28.32
0.935,-0.021,-0.015,-18.066,-9.521,27.161
0.937,-0.009,-0.024,-21.301,-5.798,25.574
0.943,-0.003,-0.038,-23.682,-1.831,23.804
0.953,0.005,-0.051,-26.001,1.343,21.973
0.969,0.011,-0.061,-27.161,3.418,20.447
0.982,0.014,-0.072,-28.259,3.723,19.348
0.987,0.017,-0.083,-29.602,3.235,18.494
0.986,0.01,-0.1,-30.762,2.686,18.066
0.984,0.007,-0.118,-32.654,2.258,18.372
0.987,0.008,-0.13,-35.217,2.686,19.043
0.991,0.009,-0.144,-37.964,3.479,19.165
0.986,0.006,-0.166,-41.199,5.005,18.433
0.989,0.004,-0.187,-44.983,7.324,17.212
0.992,0.006,-0.208,-49.072,9.644,15.808
0.988,0.004,-0.229,-53.528,11.536,13.55
0.977,0.005,-0.255,-58.533,13.672,10.315
0.956,-0.88,-1.262,-153.748,24.963,-45.959
0.962,-0.9,-1.452,-154.358,29.175,-40.71
1.032,-0.819,-1.601,-140.625,35.706,-31.25
1.154,-0.596,-1.727,-106.201,36.194,-17.822
1.243,-0.28,-1.83,-42.419,24.231,-2.808
1.249,0.034,-1.875,49.011,4.639,13.245
1.204,0.186,-1.715,161.499,-13.916,30.762
1.211,0.049,-1.357,281.311,-27.039,49.561
1.153,-0.101,-1.039,384.766,-35.583,67.261
0.998,-0.095,-0.851,470.703,-41.321,80.322
0.873,-0.069,-0.744,549.744,-41.626,88.867
0.844,-0.103,-0.631,624.146,-37.537,93.689
0.88,-0.208,-0.488,696.838,-31.738,90.454
-1.996,-4.0,4.0,759.46,-9.46,62.317
4.0,-1.134,4.0,-96.008,416.016,-88.928
0.316,4.0,-1.306,-527.954,73.486,125.488
0.006,3.955,-1.83,-381.958,-158.081,149.78
1.013,1.573,-0.139,-92.407,-143.616,52.917
1.07,0.907,0.666,47.852,-128.906,39.795
0.703,0.549,0.361,96.375,-73.853,57.19
0.77,0.154,0.168,119.141,29.968,54.81
0.882,0.012,0.231,132.507,61.89,31.433
0.949,0.079,0.159,155.518,21.118,18.921
1.045,-0.099,-0.113,189.148,-42.725,24.78
0.934,-0.464,-0.231,204.102,-79.285,36.133
0.62,-0.667,-0.223,191.956,-76.599,40.222
0.43,-0.818,-0.184,170.776,-44.495,33.875
0.453,-0.837,-0.118,136.414,-7.874,17.944
0.63,-0.754,0.0,88.257,17.212,3.296
0.762,-0.578,0.071,37.903,27.527,-9.766
0.789,-0.424,0.093,-2.441,25.391,-21.79
0.767,-0.271,0.097,-33.691,16.602,-31.738
0.731,-0.157,0.067,-57.8,6.897,-35.889
0.721,-0.072,0.037,-72.876,2.197,-37.048
0.708,0.002,-0.01,-80.627,1.831,-39.49
0.569,-0.049,-0.189,-79.956,8.423,-46.265
0.738,0.056,0.033,-76.538,28.503,-63.354
0.907,0.223,0.084,-74.951,28.931,-69.946
0.924,0.134,-0.001,-63.782,19.897,-65.43
0.916,0.039,-0.044,-57.8,14.099,-61.646
0.921,0.024,-0.054,-53.955,11.23,-60.364
0.954,-0.052,-0.046,-50.842,11.902,-60.059
1.038,-0.03,-0.042,-51.025,11.353,-59.875
1.063,-0.072,-0.035,-52.124,7.019,-57.922
1.03,-0.085,-0.048,-55.725,-1.709,-57.739
1.069,-0.052,-0.076,-61.401,-7.874,-55.664
0.997,-0.082,-0.158,-65.308,-11.719,-53.528
0.969,-0.066,-0.185,-69.214,-7.935,-54.932
0.966,0.019,-0.139,-72.754,0.427,-55.481
1.089,-0.039,-0.187,-71.472,3.845,-53.65
1.02,-0.044,-0.252,-71.167,7.019,-58.533
1.036,0.016,-0.179,-72.876,14.587,-61.89
1.106,0.042,-0.187,-70.801,17.639,-61.951
1.128,0.023,-0.234,-67.383,17.517,-60.364
1.102,0.037,-0.218,-64.392,18.982,-59.265
1.118,0.07,-0.232,-61.157,18.799,-56.519
1.16,0.05,-0.192,-55.908,18.799,-52.551
1.218,0.052,-0.178,-51.208,15.198,-50.232
1.209,0.062,-0.163,-45.959,7.263,-49.011
1.19,0.043,-0.148,-42.114,-1.648,-46.143
1.159,0.021,-0.166,-39.185,-9.521,-42.847
1.156,-0.002,-0.142,-36.926,-14.648,-39.49
1.18,-0.015,-0.126,-35.706,-19.043,-36.621
1.177,-0.022,-0.12,-34.912,-22.766,-33.691
1.151,-0.021,-0.126,-35.095,-24.963,-29.358
1.132,-0.027,-0.127,-35.339,-25.146,-24.231
1.117,-0.023,-0.124,-35.522,-22.827,-19.714
1.101,-0.019,-0.116,-35.034,-18.494,-15.869
1.08,-0.027,-0.113,-33.813,-12.451,-13.611
1.073,-0.028,-0.107,-32.776,-5.676,-12.512
1.079,-0.029,-0.097,-32.104,0.549,-11.841
1.08,-0.026,-0.087,-31.311,5.371,-11.414
1.085,-0.034,-0.081,-30.884,8.057,-10.803
1.096,-0.041,-0.073,-30.09,8.789,-10.071
1.097,-0.047,-0.07,-30.029,7.568,-9.155
1.086,-0.054,-0.074,-29.907,5.31,-7.69
1.068,-0.055,-0.077,-29.663,3.357,-5.981
1.05,-0.054,-0.077,-28.87,2.869,-4.578
1.032,-0.054,-0.085,-27.344,3.479,-3.357
1.021,-0.071,-0.063,-25.635,5.554,-2.625
1.036,-0.049,-0.045,-24.597,6.104,-1.831
1.054,-0.06,-0.038,-22.4,4.517,0.549
1.027,-0.062,-0.034,-21.423,1.892,2.991
1.01,-0.074,-0.056,-20.264,-0.122,6.104
1.003,-0.085,-0.038,-19.348,0.916,8.484
0.998,-0.088,-0.024,-18.921,2.197,8.85
1.012,-0.08,-0.009,-18.127,3.052,8.179
1.016,-0.085,-0.002,-17.456,3.052,7.812
1.002,-0.103,-0.008,-16.968,2.197,7.629
1.001,-0.114,-0.006,-17.395,2.075,6.897
0.994,-0.112,-0.003,-18.616,2.197,6.042
0.979,-0.116,-0.007,-20.386,2.502,5.127
0.963,-0.113,-0.013,-21.912,3.479,4.211
0.958,-0.111,-0.019,-23.56,5.31,3.845
0.964,-0.108,-0.022,-24.719,7.324,3.662
0.97,-0.103,-0.024,-25.33,8.972,4.028
0.982,-0.102,-0.026,-25.33,10.01,4.517
0.992,-0.107,-0.032,-24.963,10.193,4.883
0.993,-0.107,-0.04,-24.17,9.827,5.005
0.993,-0.101,-0.046,-23.743,9.644,5.493
0.996,-0.103,-0.053,-22.339,9.766,5.92
0.997,-0.104,-0.058,-20.63,10.01,6.165
0.996,-0.105,-0.058,-19.165,10.071,6.47
0.995,-0.11,-0.062,-18.188,9.827,6.653
1.002,-0.11,-0.063,-17.212,9.644,6.653
1.01,-0.109,-0.061,-16.418,9.033,6.653
1.012,-0.114,-0.059,-15.442,7.69,6.897
1.01,-0.121,-0.059,-15.076,6.165,7.629
1.015,-0.141,-0.061,-14.954,4.456,9.277
1.024,-0.168,-0.066,-16.663,2.38,11.658
1.025,-0.182,-0.075,-21.79,0.061,14.526
1.024,-0.188,-0.094,-29.053,-1.099,16.785
1.015,-0.185,-0.107,-38.391,-1.404,17.822
1.0,-0.171,-0.12,-49.255,-0.549,17.395
0.979,-0.147,-0.131,-61.89,1.953,15.015
0.969,-0.118,-0.141,-74.585,5.798,11.047
0.961,-0.098,-0.178,-85.938,10.437,6.653
0.963,-0.082,-0.229,-95.886,14.832,3.174
0.972,-0.07,-0.287,-103.943,19.714,0.427
1.026,-0.598,-1.095,-106.873,27.405,23.254
1.02,-0.656,-1.229,-84.717,26.978,29.968
1.023,-0.678,-1.343,-52.917,26.855,38.574
1.041,-0.644,-1.407,-10.437,26.733,48.523
1.078,-0.598,-1.458,43.152,24.048,58.594
1.115,-0.589,-1.492,111.023,16.479,69.214
1.138,-0.585,-1.462,188.538,6.165,78.186
1.152,-0.581,-1.354,268.372,-4.15,85.876
1.155,-0.621,-1.201,346.68,-16.113,94.482
1.129,-0.654,-1.043,416.504,-27.466,101.196
1.087,-0.618,-0.874,477.417,-30.762,104.37
1.081,-0.553,-0.67,533.203,-29.541,103.943
1.099,-0.501,-0.516,587.036,-32.898,101.746
1.123,-0.5,-0.391,641.846,-40.466,96.863
1.155,-0.576,-0.184,696.899,-49.133,87.769
-3.267,-4.0,4.0,653.748,42.969,68.298
3.116,-1.269,3.999,-356.201,743.286,-59.204
0.8,4.0,-2.256,-600.647,106.323,110.352
1.317,3.635,-1.615,-442.017,-102.966,99.609
1.238,1.881,-0.305,-156.677,-78.369,41.809
0.76,1.571,0.602,-13.794,-90.637,39.49
0.861,1.23,0.425,65.369,-64.392,55.115
1.31,0.588,0.394,110.718,-45.105,69.214
1.289,0.375,0.293,141.296,-69.336,63.293
1.155,0.316,0.169,181.03,-108.521,58.655
1.025,0.136,-0.052,222.717,-169.006,56.824
0.789,-0.146,-0.3,248.962,-205.627,55.664
0.539,-0.453,-0.285,264.465,-174.377,50.293
0.268,-0.699,-0.27,256.653,-114.197,45.776
0.18,-0.954,-0.273,229.492,-46.021,35.339
0.366,-1.095,-0.128,180.115,20.874,13.428
0.614,-1.015,0.026,110.107,63.782,-11.536
0.728,-0.79,0.088,41.26,85.144,-34.973
0.761,-0.548,0.158,-17.517,94.055,-52.856
0.745,-0.335,0.15,-65.43,89.661,-62.317
0.735,-0.221,0.084,-96.741,79.773,-66.65
0.742,-0.146,0.03,-114.624,72.205,-72.693
0.765,-0.028,0.01,-122.986,66.223,-79.163
0.762,0.061,0.014,-122.375,58.533,-83.618
0.868,0.153,0.024,-114.868,48.462,-86.06
0.881,0.146,-0.049,-102.112,37.17,-85.083
0.891,0.109,-0.052,-88.562,33.203,-83.13
0.91,0.089,-0.051,-77.637,31.494,-81.055
0.954,0.013,-0.084,-67.749,30.64,-78.491
1.033,-0.013,-0.058,-62.195,29.175,-75.317
1.05,-0.081,-0.117,-61.096,22.583,-68.726
1.135,-0.139,-0.041,-63.477,16.052,-64.453
1.093,-0.098,-0.139,-68.726,2.075,-63.66
1.056,-0.159,-0.155,-72.937,-5.92,-60.425
1.054,-0.151,-0.193,-79.407,-9.888,-60.059
0.981,-0.131,-0.279,-84.778,-11.597,-61.768
0.961,-0.157,-0.29,-90.21,-3.784,-62.622
0.918,-0.122,-0.317,-97.107,5.188,-66.406
0.932,-0.099,-0.3,-100.342,15.991,-70.862
0.976,-0.144,-0.318,-101.868,26.062,-75.684
1.039,-0.155,-0.372,-103.76,34.729,-83.679
1.01,-0.093,-0.359,-107.605,41.138,-90.576
1.102,-0.08,-0.288,-109.436,43.823,-90.881
1.156,-0.026,-0.29,-107.361,36.194,-90.149
1.124,-0.03,-0.369,-101.013,26.917,-84.717
1.095,-0.082,-0.415,-96.68,23.926,-77.82
1.119,-0.052,-0.346,-94.666,25.269,-73.914
1.167,0.034,-0.26,-88.562,23.926,-68.665
1.179,-0.047,-0.396,-76.294,17.761,-58.105
1.279,-0.099,-0.179,-68.726,17.212,-50.781
1.247,-0.094,-0.295,-65.125,4.211,-45.349
1.19,-0.119,-0.296,-57.8,-3.845,-36.499
1.228,-0.145,-0.249,-55.847,-9.705,-27.161
1.25,-0.167,-0.262,-53.955,-15.686,-21.057
1.238,-0.164,-0.244,-51.086,-20.386,-18.127
1.186,-0.156,-0.261,-48.889,-23.987,-15.198
1.122,-0.161,-0.273,-46.204,-23.499,-11.841
1.098,-0.159,-0.27,-44.495,-18.677,-8.362
1.082,-0.15,-0.257,-42.358,-10.62,-5.127
1.06,-0.153,-0.252,-39.978,-1.648,-2.563
1.067,-0.162,-0.24,-38.757,7.019,-0.183
1.083,-0.169,-0.217,-37.537,13.672,1.648
1.084,-0.175,-0.22,-36.743,15.991,2.808
1.069,-0.177,-0.218,-36.133,16.113,3.54
1.065,-0.17,-0.208,-35.4,14.587,4.272
1.076,-0.169,-0.205,-34.668,12.085,5.432
1.056,-0.168,-0.208,-33.752,8.972,7.019
1.043,-0.177,-0.209,-32.776,6.104,8.545
1.037,-0.165,-0.207,-32.043,3.784,9.705
1.025,-0.161,-0.205,-30.579,2.136,10.864
1.014,-0.163,-0.203,-28.687,1.282,11.963
1.01,-0.166,-0.202,-26.611,1.16,12.817
1.01,-0.161,-0.194,-24.292,2.075,13.489
1.008,-0.152,-0.182,-21.912,2.93,14.038
1.009,-0.153,-0.174,-18.799,3.479,14.954
1.014,-0.159,-0.161,-15.564,3.54,15.625
1.014,-0.166,-0.146,-12.817,3.357,16.113
1.01,-0.171,-0.137,-10.742,2.991,16.663
1.01,-0.18,-0.134,-9.094,1.953,17.334
1.013,-0.182,-0.125,-7.812,0.732,17.883
1.014,-0.19,-0.111,-6.531,-0.549,18.372
1.01,-0.196,-0.104,-5.493,-2.075,18.616
1.003,-0.195,-0.103,-4.944,-4.211,18.738
0.995,-0.191,-0.098,-4.7,-6.042,19.348
0.986,-0.188,-0.092,-4.395,-7.507,19.531
0.975,-0.189,-0.088,-3.662,-8.118,20.02
0.968,-0.19,-0.087,-3.235,-8.179,21.118
0.966,-0.187,-0.085,-2.991,-7.812,22.095
0.959,-0.183,-0.083,-2.869,-7.446,22.522
0.945,-0.18,-0.081,-2.869,-7.141,22.522
0.94,-0.174,-0.078,-2.38,-6.592,22.644
0.94,-0.163,-0.068,-2.136,-6.042,22.705
0.942,-0.157,-0.058,-1.648,-5.432,22.888
0.947,-0.156,-0.05,-0.977,-5.859,22.949
0.962,-0.161,-0.046,-1.038,-7.263,23.56
0.975,-0.163,-0.043,-1.709,-9.644,24.475
0.974,-0.164,-0.043,-2.991,-12.878,25.208
0.965,-0.159,-0.05,-4.639,-16.479,25.696
0.952,-0.152,-0.058,-6.47,-19.531,25.818
0.939,-0.148,-0.068,-8.606,-21.362,25.269
0.926,-0.145,-0.078,-10.498,-21.24,23.865
0.915,-0.143,-0.088,-12.451,-19.47,21.912
0.914,-0.145,-0.094,-14.16,-16.296,19.165
0.925,-0.148,-0.1,-16.357,-11.963,16.235
1.009,-0.553,-1.232,-157.166,30.334,35.583
1.045,-0.516,-1.381,-130.737,34.241,43.701
1.085,-0.418,-1.514,-88.928,36.072,52.734
1.115,-0.259,-1.612,-29.297,33.63,62.378
1.154,-0.109,-1.671,49.805,24.109,73.181
1.162,-0.07,-1.625,146.729,11.108,84.9
1.13,-0.163,-1.47,249.756,1.465,96.13
1.091,-0.276,-1.278,343.445,-3.357,106.201
1.047,-0.336,-1.091,421.448,-5.432,113.586
1.012,-0.336,-0.875,490.906,-2.075,116.577
0.984,-0.292,-0.643,556.458,1.953,114.807
0.978,-0.245,-0.43,620.056,1.892,106.506
1.012,-0.271,-0.231,687.683,-3.296,88.745
-1.886,-4.0,4.0,721.313,13.794,48.34
4.0,-1.521,4.0,-38.269,371.704,-117.371
1.297,4.0,-1.6,-530.579,-111.755,142.7
-0.213,3.154,-1.913,-350.586,-228.577,160.95
-0.059,0.937,-0.441,-49.988,-104.309,72.693
-0.091,0.999,0.695,51.575,-66.65,54.321
-0.302,0.85,0.439,101.44,-30.396,27.588
0.386,-0.019,0.406,139.648,63.721,-7.996
1.089,-0.306,0.553,148.193,117.554,-31.128
1.353,-0.165,0.502,156.86,101.074,-35.4
1.266,-0.151,0.286,169.8,51.819,-25.94
1.035,-0.461,0.119,180.542,4.15,-9.888
0.814,-0.854,0.06,175.354,-21.118,4.272
0.684,-1.077,0.056,146.362,-22.217,7.385
0.645,-1.02,0.078,97.107,-9.827,-2.197
0.744,-0.853,0.165,40.955,4.883,-13.977
0.881,-0.595,0.357,-7.141,7.324,-26.978
0.899,-0.369,0.238,-40.955,-20.203,-34.851
0.738,-0.337,0.197,-62.744,-39.185,-36.926
0.604,-0.325,0.102,-80.2,-53.345,-44.189
0.499,-0.154,-0.05,-91.187,-51.941,-51.514
0.705,-0.112,0.222,-94.971,-36.438,-52.063
0.714,-0.094,0.123,-94.238,-41.016,-57.434
0.736,-0.124,0.081,-88.501,-41.565,-64.575
0.813,-0.041,0.109,-85.327,-38.452,-72.327
0.827,-0.175,0.012,-80.566,-37.292,-74.097
0.87,-0.128,0.089,-79.59,-29.236,-80.2
0.891,-0.208,0.067,-80.017,-26.367,-82.581
0.979,-0.256,0.037,-82.581,-19.775,-88.928
1.004,-0.225,0.032,-87.524,-12.817,-94.971
0.927,-0.228,-0.018,-93.262,-5.981,-96.191
0.991,-0.254,-0.023,-100.159,5.249,-95.276
1.08,-0.254,-0.022,-107.361,14.465,-94.177
1.023,-0.253,-0.081,-113.159,19.592,-94.543
1.057,-0.211,-0.098,-117.859,26.184,-94.91
1.082,-0.182,-0.097,-121.155,31.189,-92.102
1.053,-0.164,-0.13,-121.521,34.973,-88.623
1.044,-0.149,-0.163,-121.399,38.147,-85.571
1.047,-0.138,-0.178,-119.019,42.542,-82.214
1.031,-0.115,-0.282,-116.455,46.387,-78.369
1.143,-0.171,-0.16,-112.61,56.091,-73.975
1.236,-0.046,-0.104,-109.497,54.688,-72.876
1.224,-0.138,-0.174,-100.891,39.917,-66.589
1.208,-0.065,-0.186,-97.168,32.043,-62.317
1.232,-0.114,-0.125,-91.797,20.508,-54.932
1.194,-0.103,-0.214,-86.609,10.986,-50.903
1.172,-0.097,-0.189,-80.2,4.944,-46.57
1.169,-0.114,-0.156,-74.158,1.16,-43.213
1.161,-0.132,-0.154,-69.336,-0.732,-40.833
1.144,-0.142,-0.157,-65.674,-1.16,-38.879
1.126,-0.147,-0.163,-63.232,0.061,-36.316
1.103,-0.159,-0.165,-61.462,3.174,-33.264
1.093,-0.163,-0.16,-60.608,8.24,-31.006
1.073,-0.167,-0.153,-59.814,13.916,-28.992
1.063,-0.169,-0.157,-59.692,20.508,-27.161
1.076,-0.166,-0.153,-59.265,26.611,-25.696
1.087,-0.166,-0.142,-59.021,31.86,-24.536
1.093,-0.158,-0.117,-59.265,35.461,-23.682
1.104,-0.152,-0.116,-59.875,35.767,-22.278
1.105,-0.14,-0.115,-59.509,34.973,-19.958
1.085,-0.134,-0.11,-59.265,33.691,-16.541
1.084,-0.143,-0.119,-58.838,30.396,-12.634
1.086,-0.159,-0.125,-58.533,26.794,-8.85
1.066,-0.151,-0.136,-58.533,22.522,-5.249
1.047,-0.15,-0.145,-58.594,18.677,-2.625
1.004,-0.169,-0.166,-58.167,15.747,-0.977
0.969,-0.204,-0.208,-58.289,15.625,-2.075
1.063,-0.144,-0.162,-58.838,18.005,-5.981
1.004,-0.107,-0.167,-56.641,17.578,-7.385
0.967,-0.124,-0.176,-51.941,17.151,-5.493
0.974,-0.109,-0.228,-47.852,17.151,-3.906
1.004,-0.109,-0.164,-42.603,21.79,-2.869
1.0,-0.107,-0.188,-37.292,23.56,-2.563
1.002,-0.112,-0.182,-30.762,26.184,-2.686
1.003,-0.122,-0.167,-25.146,27.771,-3.113
1.01,-0.13,-0.163,-20.142,28.809,-3.357
1.016,-0.14,-0.155,-15.076,28.992,-3.296
1.034,-0.156,-0.142,-10.864,28.015,-2.563
1.053,-0.165,-0.128,-7.874,24.597,-0.793
1.063,-0.173,-0.114,-5.92,18.982,1.282
1.065,-0.175,-0.104,-4.822,11.597,3.113
1.059,-0.175,-0.099,-3.723,3.54,5.249
1.048,-0.171,-0.094,-2.014,-4.211,7.935
1.027,-0.168,-0.094,-0.244,-10.864,10.803
1.002,-0.161,-0.097,1.709,-16.174,13.184
0.987,-0.159,-0.103,4.089,-19.165,14.709
0.971,-0.158,-0.1,7.385,-20.081,15.076
0.964,-0.164,-0.09,10.986,-19.897,14.832
0.958,-0.178,-0.078,14.832,-19.287,14.282
0.953,-0.185,-0.069,16.357,-17.944,14.099
0.953,-0.181,-0.054,17.7,-16.602,14.16
0.953,-0.181,-0.045,18.86,-15.076,14.465
0.949,-0.18,-0.039,19.958,-13.794,14.709
0.953,-0.175,-0.029,20.874,-12.024,14.954
0.953,-0.178,-0.024,22.156,-10.62,14.709
0.949,-0.181,-0.021,22.217,-9.583,14.343
0.946,-0.188,-0.022,22.522,-8.789,13.916
0.952,-0.203,-0.021,22.339,-8.118,13.794
0.955,-0.214,-0.021,21.057,-7.263,13.489
0.953,-0.216,-0.025,18.921,-6.714,13.367
0.955,-0.212,-0.034,16.296,-6.348,13.55
0.953,-0.206,-0.047,12.939,-4.944,14.099
0.945,-0.192,-0.061,9.766,-2.747,14.771
0.946,-0.174,-0.083,6.836,-0.366,16.052
0.947,-0.167,-0.11,4.456,2.258,17.395
0.944,-0.174,-0.139,2.075,4.822,18.494
0.97,-0.86,-1.031,-160.034,12.512,18.738
0.976,-0.858,-1.168,-160.156,10.803,18.799
1.016,-0.811,-1.266,-148.682,11.414,21.24
1.068,-0.737,-1.325,-122.253,9.521,27.771
1.122,-0.684,-1.38,-77.271,2.991,39.185
1.139,-0.613,-1.484,-14.221,-7.385,54.993
1.127,-0.492,-1.553,66.162,-17.334,72.144
1.156,-0.371,-1.416,159.973,-23.682,87.28
1.211,-0.387,-1.155,259.827,-30.579,98.45
1.203,-0.495,-0.986,359.192,-41.809,107.544
1.149,-0.551,-0.88,445.374,-54.382,113.342
1.098,-0.558,-0.761,519.104,-60.059,114.136
1.069,-0.588,-0.62,586.975,-58.899,111.084
1.065,-0.661,-0.511,649.475,-57.617,104.858
1.087,-0.8,-0.368,709.473,-59.448,93.323
-3.497,-4.0,4.0,731.384,-29.175,67.078
3.917,-1.343,4.0,-113.159,559.509,-66.956
0.999,3.999,-1.255,-546.875,143.982,148.682
1.303,2.678,-1.7,-468.201,-106.995,164.917
1.385,1.49,-1.116,-193.054,-99.182,108.765
0.767,1.731,0.114,-38.147,-109.558,109.253
0.238,1.427,0.341,52.246,-93.201,99.121
0.491,0.309,0.409,150.33,-20.813,86.426
0.941,-0.064,0.824,168.823,25.085,60.73
1.093,0.139,0.615,188.416,3.174,35.95
1.126,0.194,0.261,220.459,-64.209,30.09
0.845,0.023,-0.058,258.24,-119.446,31.311
0.494,-0.236,-0.094,286.987,-120.972,24.353
0.258,-0.463,-0.04,301.697,-86.365,19.287
0.135,-0.542,-0.102,298.218,-35.645,14.282
0.267,-0.727,-0.125,283.63,28.137,0.977
0.553,-0.802,0.16,254.761,83.069,-22.339
0.757,-0.666,0.304,210.205,95.52,-39.978
0.83,-0.651,0.332,162.964,93.384,-48.218
0.854,-0.54,0.348,114.319,84.656,-60.303
0.821,-0.42,0.255,66.223,73.792,-61.279
0.753,-0.378,0.166,27.832,67.078,-58.472
0.715,-0.306,0.099,-1.16,61.096,-64.575
0.757,-0.202,0.139,-24.658,53.589,-71.167
0.851,-0.221,0.17,-40.771,39.001,-74.585
0.802,-0.242,0.032,-52.063,19.714,-82.153
0.878,-0.198,0.125,-64.026,11.841,-89.233
0.79,-0.101,0.015,-75.806,-2.014,-88.806
1.018,-0.217,0.1,-84.595,-2.686,-76.843
1.05,-0.198,0.049,-94.666,-7.751,-73.547
1.005,-0.163,0.025,-102.417,-13.245,-71.838
0.941,-0.137,0.0,-110.84,-14.771,-69.458
0.926,-0.175,-0.042,-117.493,-12.451,-67.688
0.938,-0.146,-0.09,-123.474,-6.104,-70.862
0.884,-0.15,-0.128,-127.563,5.127,-75.012
0.87,-0.153,-0.167,-130.127,20.691,-80.566
0.883,-0.146,-0.197,-132.263,39.795,-85.205
0.902,-0.145,-0.225,-133.972,61.218,-87.158
0.93,-0.145,-0.245,-134.644,82.153,-87.524
0.947,-0.131,-0.272,-134.46,101.563,-86.67
0.94,-0.109,-0.303,-133.362,119.263,-84.29
0.974,-0.125,-0.352,-130.981,136.414,-80.505
1.04,-0.138,-0.341,-128.601,151.917,-78.125
1.064,-0.138,-0.348,-125.61,162.109,-78.064
1.139,-0.166,-0.327,-121.643,166.992,-78.369
1.188,-0.148,-0.349,-118.286,164.856,-78.186
1.215,-0.163,-0.34,-114.563,158.386,-74.036
1.279,-0.155,-0.292,-110.901,145.752,-67.139
1.342,-0.213,-0.332,-105.042,124.39,-59.143
1.319,-0.189,-0.316,-99.854,101.746,-53.589
1.288,-0.19,-0.342,-94.788,76.599,-45.898
1.273,-0.182,-0.328,-89.294,54.871,-36.865
1.231,-0.177,-0.355,-82.214,33.325,-27.344
1.189,-0.187,-0.361,-73.792,15.442,-17.395
1.148,-0.205,-0.379,-65.063,0.671,-8.85
1.086,-0.211,-0.402,-55.725,-9.766,-2.869
1.023,-0.222,-0.43,-46.509,-15.198,2.075
0.968,-0.226,-0.451,-38.269,-15.198,6.531
0.941,-0.235,-0.448,-30.029,-10.681,10.498
0.938,-0.243,-0.436,-22.217,-4.211,14.221
0.939,-0.258,-0.423,-15.259,2.075,17.151
0.948,-0.264,-0.404,-8.911,7.507,18.982
0.956,-0.271,-0.383,-3.296,10.986,20.203
0.961,-0.272,-0.371,1.77,10.742,21.179
0.972,-0.262,-0.368,6.714,7.751,22.095
0.951,-0.266,-0.351,11.536,3.845,23.987
0.939,-0.26,-0.355,15.991,-0.61,26.55
0.922,-0.26,-0.345,19.714,-3.845,29.419
0.922,-0.255,-0.333,23.132,-6.226,31.372
0.935,-0.246,-0.313,27.222,-8.118,32.776
0.944,-0.257,-0.301,32.043,-10.376,33.997
0.959,-0.279,-0.292,36.377,-13.733,35.095
0.971,-0.292,-0.281,39.307,-17.456,36.072
0.991,-0.302,-0.267,41.687,-21.484,36.682
0.999,-0.316,-0.259,43.213,-25.33,37.109
1.0,-0.336,-0.259,44.128,-29.053,37.17
1.018,-0.349,-0.26,44.434,-31.616,37.354
1.03,-0.352,-0.254,44.128,-33.752,37.109
1.027,-0.35,-0.256,44.067,-35.4,36.255
1.015,-0.34,-0.258,44.617,-35.156,35.706
1.012,-0.325,-0.246,44.434,-33.325,35.828
1.002,-0.309,-0.233,44.373,-31.25,36.438
0.984,-0.291,-0.222,44.617,-29.541,36.865
0.973,-0.267,-0.21,44.678,-27.893,37.537
0.969,-0.242,-0.195,44.556,-27.161,38.391
0.958,-0.222,-0.186,44.739,-27.954,39.246
0.941,-0.209,-0.18,44.617,-29.968,39.917
0.932,-0.198,-0.174,43.823,-32.349,40.161
0.912,-0.184,-0.175,42.969,-34.058,40.283
0.913,-0.176,-0.177,42.358,-34.729,40.71
0.917,-0.182,-0.177,41.443,-34.119,40.771
0.911,-0.183,-0.177,39.49,-32.654,39.185
0.908,-0.172,-0.186,37.17,-30.579,36.316
0.904,-0.178,-0.199,35.095,-27.405,32.471
0.896,-0.175,-0.206,32.532,-22.766,27.1
0.896,-0.174,-0.217,30.212,-16.602,21.423
0.898,-0.166,-0.222,28.015,-9.155,15.381
0.897,-0.148,-0.223,25.757,-1.221,9.766
0.911,-0.136,-0.225,24.231,7.141,5.371
0.946,-0.12,-0.217,23.682,15.198,2.563
0.972,-0.105,-0.201,23.132,20.752,1.465
0.997,-0.098,-0.189,23.315,22.766,1.892
1.012,-0.097,-0.178,23.56,21.118,3.662
1.021,-0.099,-0.168,23.193,16.663,6.348
0.943,-0.76,-1.164,-205.627,26.733,15.686
1.004,-0.802,-1.3,-209.29,32.043,11.108
1.061,-0.805,-1.435,-203.369,32.654,9.094
1.072,-0.757,-1.557,-189.392,29.358,9.338
1.037,-0.642,-1.651,-163.208,26.978,10.376
1.021,-0.479,-1.708,-121.582,27.588,14.465
1.038,-0.292,-1.758,-59.998,25.879,23.682
1.041,-0.132,-1.805,25.818,17.09,35.217
1.062,-0.117,-1.739,133.545,5.493,48.279
1.072,-0.242,-1.561,246.094,-7.629,59.998
1.051,-0.38,-1.37,349.792,-19.592,69.763
0.989,-0.416,-1.16,438.782,-26.917,77.515
0.908,-0.365,-1.004,518.616,-32.471,81.909
0.866,-0.316,-0.831,595.764,-33.752,81.909
0.867,-0.339,-0.61,673.645,-33.264,76.538
0.906,-0.432,-0.425,751.343,-36.072,63.293
-0.144,-3.942,3.55,829.102,-40.466,35.095
4.0,-3.99,4.0,17.883,333.435,5.066
1.049,3.983,-0.813,-648.071,209.717,153.015
0.961,4.0,-1.434,-467.773,-123.779,197.998
1.056,2.481,-0.522,-218.628,-82.825,83.74
0.912,1.691,0.623,-66.284,-70.435,65.735
0.721,1.445,0.229,24.17,-70.801,91.125
0.844,0.976,-0.205,91.309,-88.745,81.055
0.909,0.523,-0.047,139.465,-107.361,79.834
0.794,0.439,0.087,179.199,-103.149,74.829
0.68,0.285,0.027,218.018,-117.737,62.744
0.577,0.165,-0.189,242.859,-137.451,49.194
0.408,-0.009,-0.329,267.761,-121.033,34.058
0.285,-0.248,-0.368,284.119,-63.965,18.25
0.291,-0.596,-0.337,288.452,7.141,3.601
0.417,-0.866,-0.251,268.433,73.364,-16.174
0.619,-1.001,-0.016,219.666,120.605,-39.734
0.809,-0.868,0.112,150.085,140.076,-60.852
0.911,-0.654,0.146,79.529,133.911,-72.266
0.854,-0.526,0.075,15.991,114.563,-78.552
0.769,-0.378,0.003,-38.086,93.872,-84.351
0.918,-0.393,0.071,-80.383,81.482,-87.769
0.947,-0.02,0.11,-115.601,59.631,-90.21
0.975,-0.006,-0.004,-135.01,25.513,-70.74
0.943,0.003,-0.047,-144.226,7.08,-61.279
0.864,0.066,-0.244,-147.644,-7.629,-57.068
0.951,0.051,-0.11,-142.822,-6.348,-56.03
0.924,0.235,-0.102,-136.414,-10.315,-57.678
0.894,0.142,-0.272,-120.3,-20.874,-53.101
0.838,0.184,-0.246,-107.605,-12.146,-52.734
0.916,0.109,-0.271,-94.055,-6.958,-49.133
0.994,0.039,-0.279,-82.703,3.235,-47.974
0.988,0.048,-0.262,-75.989,11.23,-47.668
0.994,-0.095,-0.28,-70.496,16.357,-48.157
1.032,-0.058,-0.282,-70.74,21.606,-55.298
1.026,-0.097,-0.301,-72.632,26.489,-57.312
1.023,-0.075,-0.283,-75.806,31.799,-59.448
1.066,-0.111,-0.31,-80.872,32.776,-57.678
1.089,-0.103,-0.351,-85.327,33.264,-56.152
1.097,-0.093,-0.367,-90.332,35.034,-52.429
1.018,-0.035,-0.373,-94.971,35.461,-48.34
1.105,-0.067,-0.44,-95.825,36.499,-42.847
1.19,-0.063,-0.363,-96.863,39.917,-42.603
1.168,0.03,-0.363,-97.351,35.034,-44.128
1.087,0.056,-0.387,-91.98,25.696,-40.771
1.166,-0.012,-0.454,-85.266,20.142,-35.767
1.107,0.038,-0.447,-80.078,18.921,-35.4
1.123,0.031,-0.405,-73.181,16.785,-34.668
1.137,0.042,-0.411,-65.674,14.404,-33.02
1.154,0.016,-0.38,-57.8,10.864,-30.09
1.151,0.013,-0.372,-51.453,5.005,-27.954
1.128,-0.005,-0.383,-45.105,0.427,-24.231
1.107,-0.019,-0.378,-39.795,-1.892,-20.264
1.097,-0.039,-0.368,-35.645,-3.296,-16.357
1.085,-0.061,-0.36,-32.593,-2.991,-13.55
1.073,-0.062,-0.346,-31.189,-1.404,-12.207
1.064,-0.062,-0.332,-30.09,0.671,-11.169
1.064,-0.06,-0.326,-28.809,2.38,-9.583
1.069,-0.071,-0.332,-27.405,3.296,-7.202
1.078,-0.097,-0.326,-26.306,4.211,-4.944
1.061,-0.106,-0.33,-27.344,3.967,-3.601
1.073,-0.08,-0.288,-28.137,2.747,-3.113
1.079,-0.066,-0.302,-27.771,-0.793,-2.075
1.027,-0.077,-0.325,-25.757,-2.869,-0.793
1.016,-0.047,-0.319,-24.353,-3.235,0.366
0.995,-0.065,-0.34,-20.752,-2.563,2.197
0.975,-0.058,-0.326,-17.334,0.427,3.052
0.988,-0.06,-0.328,-13.367,3.601,3.845
1.0,-0.064,-0.302,-8.545,7.446,4.028
1.004,-0.079,-0.289,-4.272,9.46,4.211
1.019,-0.091,-0.28,-0.61,9.644,4.517
1.015,-0.097,-0.268,2.502,8.667,4.639
1.032,-0.101,-0.242,4.395,6.287,4.7
1.041,-0.103,-0.235,6.714,2.258,5.371
1.039,-0.1,-0.221,8.972,-1.709,6.836
1.033,-0.114,-0.208,10.437,-6.531,9.277
1.022,-0.122,-0.198,11.78,-10.62,11.353
1.011,-0.124,-0.188,12.512,-13.062,12.939
1.0,-0.13,-0.179,12.085,-14.282,14.465
0.987,-0.135,-0.173,11.536,-14.343,15.808
0.978,-0.135,-0.169,10.498,-13.062,16.235
0.969,-0.134,-0.167,9.338,-10.681,16.418
0.963,-0.132,-0.158,8.606,-8.179,16.296
0.965,-0.13,-0.153,7.69,-5.859,16.235
0.968,-0.129,-0.146,6.714,-4.395,16.113
0.968,-0.131,-0.144,5.92,-3.601,16.174
0.964,-0.135,-0.146,4.639,-3.54,16.052
0.959,-0.135,-0.147,2.869,-3.906,15.869
0.951,-0.137,-0.15,0.854,-4.211,15.625
0.944,-0.132,-0.157,-1.099,-4.028,15.198
0.937,-0.129,-0.163,-3.174,-3.601,14.343
0.933,-0.125,-0.171,-4.578,-2.747,13.245
0.934,-0.119,-0.176,-5.676,-1.526,11.78
0.933,-0.114,-0.179,-6.226,-0.305,10.315
0.933,-0.113,-0.184,-6.409,1.587,9.216
0.944,-0.112,-0.186,-7.141,3.723,8.667
0.96,-0.111,-0.182,-7.996,5.432,8.606
0.97,-0.111,-0.18,-8.911,6.287,9.094
0.979,-0.115,-0.186,-9.888,5.981,9.583
0.984,-0.127,-0.194,-10.986,4.578,10.315
0.987,-0.13,-0.192,-12.817,2.869,11.23
0.995,-0.129,-0.189,-16.113,1.221,12.329
0.994,-0.12,-0.188,-19.653,-0.366,13.062
1.105,-0.398,-1.146,-126.77,-6.531,29.968
1.049,-0.354,-1.267,-94.666,-15.747,44.8
1.002,-0.25,-1.384,-50.415,-21.973,60.486
0.964,-0.174,-1.444,6.592,-25.024,77.698
0.926,-0.167,-1.506,78.247,-25.818,95.276
0.946,-0.269,-1.49,159.973,-24.841,111.206
0.98,-0.43,-1.349,239.685,-22.705,126.465
0.984,-0.528,-1.233,307.739,-21.118,140.991
0.993,-0.531,-1.116,365.723,-19.531,150.94
1.025,-0.477,-0.958,418.03,-14.465,152.039
1.069,-0.41,-0.823,470.215,-6.409,143.86
1.07,-0.364,-0.687,520.02,0.732,129.517
1.061,-0.368,-0.504,568.237,9.155,110.413
1.065,-0.412,-0.304,613.403,18.25,85.388
1.053,-0.665,0.068,655.396,23.193,57.007
0.289,-4.0,4.0,485.84,157.349,23.56
1.941,0.195,3.157,-575.989,597.595,12.024
0.87,4.0,-1.595,-561.157,58.289,142.212
1.377,3.492,-1.236,-399.17,-46.936,72.449
0.979,1.927,0.137,-162.964,-17.09,20.264
1.094,1.62,0.569,-27.954,14.832,54.443
1.631,1.597,0.158,30.701,-47.852,84.534
1.533,0.834,-0.139,113.892,-173.34,103.271
0.928,0.309,-0.135,174.194,-210.205,120.3
0.655,0.24,0.122,202.942,-208.679,114.746
0.28,0.247,0.084,219.116,-218.201,99.854
0.246,0.177,-0.171,234.985,-192.383,88.318
0.432,-0.254,0.023,250.916,-120.3,75.806
0.323,-0.219,-0.279,245.667,-75.623,49.316
0.303,-0.475,-0.288,240.967,-9.033,36.438
0.562,-0.684,0.03,220.276,56.763,15.015
0.753,-0.771,0.177,173.889,82.214,-6.042
0.797,-0.687,0.233,120.422,90.576,-30.884
0.813,-0.499,0.215,66.162,85.815,-56.641
0.775,-0.319,0.131,19.958,75.378,-71.594
0.73,-0.235,0.025,-16.418,69.336,-77.271
0.653,-0.25,-0.031,-43.335,69.153,-86.121
0.768,-0.012,0.092,-66.833,61.279,-103.149
0.687,0.101,-0.079,-77.759,43.213,-107.849
0.631,0.1,-0.103,-75.684,43.762,-110.84
0.72,0.062,-0.153,-74.28,45.288,-114.746
0.737,0.058,-0.13,-69.885,52.917,-118.835
0.863,0.077,-0.135,-64.88,58.655,-120.361
1.002,0.043,-0.018,-58.96,62.561,-117.31
1.041,0.063,-0.047,-54.688,53.955,-114.197
1.011,0.062,-0.079,-51.697,44.189,-107.483
1.08,-0.022,-0.033,-50.415,35.156,-101.013
1.114,-0.039,-0.103,-51.27,24.353,-100.037
1.105,-0.067,-0.102,-52.734,16.418,-100.708
1.057,-0.078,-0.149,-56.458,10.498,-101.563
1.021,-0.11,-0.189,-60.608,9.521,-102.234
1.028,-0.138,-0.247,-66.345,14.221,-101.44
1.06,-0.142,-0.277,-74.158,21.729,-96.985
1.085,-0.124,-0.271,-82.458,28.015,-89.783
1.095,-0.109,-0.294,-87.891,31.738,-83.374
1.1,-0.108,-0.327,-91.797,35.828,-78.491
1.09,-0.082,-0.337,-94.849,40.771,-75.378
1.068,-0.059,-0.361,-95.764,44.983,-73.12
1.08,-0.034,-0.372,-93.75,50.293,-70.984
1.132,-0.022,-0.366,-90.393,54.382,-66.956
1.181,-0.016,-0.357,-85.876,54.077,-60.669
1.213,-0.025,-0.344,-80.933,49.011,-54.321
1.237,-0.034,-0.336,-75.867,40.222,-48.401
1.246,-0.047,-0.338,-71.594,29.541,-42.542
1.24,-0.059,-0.342,-67.383,17.7,-36.926
1.202,-0.068,-0.352,-63.66,6.958,-31.128
1.168,-0.078,-0.357,-60.73,-0.183,-24.78
1.158,-0.085,-0.345,-58.838,-4.333,-18.127
1.146,-0.09,-0.331,-57.678,-6.653,-12.085
1.121,-0.088,-0.328,-56.946,-7.874,-6.897
1.099,-0.081,-0.328,-55.786,-8.362,-3.54
1.075,-0.079,-0.335,-54.138,-7.385,-1.465
1.049,-0.083,-0.346,-51.697,-5.005,-0.427
1.028,-0.081,-0.349,-48.584,-1.038,-0.427
1.014,-0.079,-0.347,-45.288,4.395,-0.854
1.007,-0.08,-0.341,-42.419,10.742,-1.404
1.011,-0.089,-0.334,-39.368,16.418,-1.709
1.015,-0.102,-0.333,-36.865,20.752,-2.197
1.027,-0.112,-0.328,-35.034,24.109,-1.831
1.042,-0.113,-0.316,-33.997,25.208,-0.183
1.053,-0.112,-0.3,-33.752,23.621,2.197
1.057,-0.111,-0.29,-33.325,19.653,4.517
1.054,-0.117,-0.288,-32.043,14.038,6.165
1.043,-0.118,-0.295,-30.457,8.057,7.019
1.004,-0.109,-0.309,-28.809,3.235,8.301
0.995,-0.099,-0.315,-25.818,1.221,11.536
1.001,-0.09,-0.301,-22.4,1.526,15.747
1.001,-0.092,-0.287,-19.104,2.502,19.348
1.003,-0.103,-0.276,-15.198,2.686,21.301
1.002,-0.109,-0.266,-11.353,1.587,21.057
1.001,-0.113,-0.257,-7.324,-0.488,19.165
0.994,-0.119,-0.244,-3.54,-2.93,16.663
0.978,-0.126,-0.234,-0.916,-4.517,14.648
0.961,-0.13,-0.228,0.977,-4.761,13.733
0.962,-0.131,-0.219,2.563,-3.357,14.221
0.967,-0.132,-0.202,3.601,-1.343,15.198
0.973,-0.137,-0.186,4.761,0.549,15.442
0.975,-0.14,-0.172,5.676,1.831,14.587
0.973,-0.143,-0.165,6.226,2.502,13.367
0.966,-0.147,-0.162,6.897,2.808,12.085
0.96,-0.154,-0.162,6.958,3.052,10.925
0.959,-0.156,-0.157,7.019,3.845,10.559
0.972,-0.155,-0.143,6.653,4.761,11.047
0.984,-0.152,-0.128,6.165,5.005,11.841
0.988,-0.148,-0.124,5.493,4.15,12.268
0.984,-0.143,-0.123,5.371,2.197,12.634
0.983,-0.141,-0.12,5.615,-0.427,12.756
0.977,-0.14,-0.118,6.226,-2.991,12.756
0.969,-0.143,-0.117,6.653,-5.188,12.756
0.96,-0.145,-0.12,7.08,-7.019,12.817
0.956,-0.146,-0.122,6.897,-7.69,13.245
0.954,-0.141,-0.121,6.653,-7.996,13.55
0.953,-0.136,-0.119,5.981,-8.179,13.733
0.951,-0.135,-0.122,5.127,-8.545,13.367
0.945,-0.131,-0.127,4.7,-8.667,12.329
0.935,-0.123,-0.13,4.028,-8.301,11.169
0.94,-0.123,-0.135,2.869,-7.69,10.62
0.943,-0.125,-0.138,1.282,-7.141,10.376
0.941,-0.124,-0.145,-0.671,-6.531,10.62
1.029,-0.654,-1.113,-148.437,-7.874,41.382
1.067,-0.758,-1.247,-162.231,-4.456,44.556
1.101,-0.777,-1.355,-172.058,-1.282,48.584
1.147,-0.689,-1.42,-172.791,2.38,52.49
1.188,-0.506,-1.432,-159.302,6.042,55.054
1.198,-0.291,-1.441,-126.831,7.385,58.35
1.194,-0.098,-1.439,-75.439,5.615,65.308
1.172,0.036,-1.42,-8.423,2.014,74.829
1.144,0.079,-1.387,73.181,-1.709,84.473
1.114,0.032,-1.278,162.17,-3.906,93.201
1.091,-0.084,-1.135,248.169,-2.563,99.731
1.057,-0.179,-1.006,322.693,-2.258,104.309
1.018,-0.245,-0.886,385.01,-2.38,107.666
0.985,-0.323,-0.738,439.148,0.061,109.497
0.946,-0.374,-0.535,483.887,4.456,108.887
0.899,-0.391,-0.325,522.583,5.371,104.919
0.849,-0.377,-0.174,560.73,-2.747,97.656
0.686,-0.762,0.067,597.961,-16.968,88.684
-0.391,-4.0,4.0,460.144,83.862,32.776
3.954,0.539,3.539,-442.566,363.464,-44.617
1.259,4.0,-2.619,-648.071,-341.675,183.044
-0.206,2.596,-2.348,-370.728,-242.187,91.309
-0.829,1.116,-0.706,-112.976,-43.823,70.007
-0.542,1.408,0.16,-6.836,31.067,77.515
0.409,1.196,0.45,75.378,108.276,47.241
1.329,0.478,0.661,128.662,133.057,33.264
1.481,0.326,0.512,157.776,92.957,18.494
1.251,0.665,0.317,176.025,39.795,22.644
0.868,0.401,0.013,217.529,-26.123,32.166
0.613,0.142,-0.187,258.24,-61.462,22.217
0.59,-0.134,-0.087,290.833,-58.472,13.916
0.579,-0.285,-0.117,306.396,-38.696,0.122
0.806,-0.619,0.174,304.993,-11.902,-5.798
0.847,-0.783,0.17,272.888,2.319,-7.935
0.77,-0.858,0.202,218.079,18.677,-3.418
0.749,-0.893,0.281,149.048,39.978,1.953
0.88,-0.722,0.341,72.876,44.922,-7.019
0.721,-0.549,0.221,3.357,32.654,-21.545
0.84,-0.326,0.134,-56.641,20.142,-35.156
0.89,-0.177,0.058,-102.539,10.498,-42.603
0.613,-0.245,-0.083,-132.751,2.38,-54.321
0.618,-0.016,-0.166,-154.846,2.014,-76.05
0.728,0.007,-0.125,-167.236,7.019,-84.961
0.789,0.099,-0.174,-171.265,15.076,-91.858
0.874,0.114,-0.114,-166.809,25.208,-94.91
0.845,0.142,-0.179,-157.776,31.982,-97.778
0.861,0.136,-0.175,-146.79,44.434,-98.267
0.947,0.147,-0.16,-137.512,55.603,-95.764
1.009,0.124,-0.178,-127.258,62.683,-90.637
1.129,0.083,-0.165,-117.249,65.308,-85.571
1.162,0.056,-0.177,-110.107,61.462,-81.116
1.138,0.008,-0.223,-104.797,54.504,-76.294
1.127,-0.012,-0.264,-102.844,48.95,-72.632
1.122,-0.033,-0.281,-103.149,46.204,-69.214
1.123,-0.023,-0.303,-103.76,43.152,-66.345
1.105,-0.095,-0.347,-103.699,42.358,-62.866
1.107,-0.072,-0.39,-106.384,45.288,-61.462
1.145,-0.052,-0.375,-108.032,46.448,-59.387
1.152,-0.034,-0.371,-108.704,44.922,-56.702
1.126,-0.033,-0.399,-108.887,41.077,-53.528
1.086,-0.031,-0.436,-108.032,38.208,-51.636
1.074,-0.022,-0.45,-106.628,37.781,-50.659
1.085,-0.005,-0.443,-104.919,37.231,-49.133
1.122,0.001,-0.431,-101.44,34.18,-46.448
1.153,-0.004,-0.42,-96.924,27.588,-42.603
1.157,-0.009,-0.419,-91.98,18.127,-38.94
1.149,-0.007,-0.424,-86.304,7.69,-35.95
1.132,-0.007,-0.429,-80.627,-1.587,-32.715
1.11,-0.021,-0.442,-74.219,-9.094,-28.748
1.078,-0.036,-0.45,-67.81,-13.245,-24.963
1.056,-0.044,-0.448,-61.951,-13.794,-20.996
1.044,-0.056,-0.441,-56.702,-11.169,-17.029
1.035,-0.065,-0.428,-51.331,-6.47,-14.099
1.032,-0.074,-0.418,-46.936,-0.671,-11.963
1.039,-0.086,-0.408,-43.03,4.395,-9.827
1.061,-0.102,-0.396,-39.795,8.423,-7.202
1.067,-0.114,-0.381,-38.147,10.193,-5.371
1.062,-0.109,-0.365,-37.354,10.132,-3.845
1.063,-0.103,-0.363,-36.316,7.874,-1.77
1.051,-0.106,-0.359,-34.729,5.493,1.709
1.03,-0.102,-0.353,-33.691,2.686,4.944
1.014,-0.099,-0.357,-32.471,0.366,7.202
0.988,-0.096,-0.361,-30.701,-0.61,8.423
0.972,-0.089,-0.36,-28.442,-0.549,8.911
0.958,-0.085,-0.357,-25.208,0.305,9.155
0.955,-0.087,-0.349,-22.278,2.014,9.094
0.957,-0.094,-0.343,-19.165,3.052,7.996
0.946,-0.097,-0.337,-16.113,3.784,6.592
0.938,-0.097,-0.334,-13.306,4.7,5.615
0.937,-0.097,-0.327,-10.864,5.737,5.493
0.941,-0.099,-0.318,-7.935,6.775,5.31
0.948,-0.102,-0.304,-5.432,7.568,5.127
0.962,-0.106,-0.29,-3.235,7.446,4.578
0.975,-0.108,-0.277,-1.099,5.981,4.456
0.978,-0.111,-0.27,0.732,3.052,4.822
0.982,-0.11,-0.264,2.502,0.061,5.371
0.981,-0.112,-0.258,4.456,-2.197,6.042
0.974,-0.114,-0.254,5.981,-3.662,6.775
0.972,-0.118,-0.248,7.324,-4.089,6.958
0.975,-0.128,-0.245,8.362,-3.784,6.836
0.966,-0.132,-0.245,8.911,-2.747,6.042
0.961,-0.13,-0.241,9.277,-1.16,5.493
0.971,-0.135,-0.233,9.583,0.916,5.188
0.985,-0.139,-0.223,9.46,2.991,4.822
0.993,-0.141,-0.215,9.094,4.272,4.822
1.0,-0.139,-0.209,8.484,4.456,4.944
1.001,-0.138,-0.204,7.812,3.662,5.249
0.999,-0.133,-0.204,7.324,2.502,5.981
0.992,-0.127,-0.206,7.141,2.075,6.592
0.992,-0.12,-0.204,7.141,2.014,7.385
0.99,-0.12,-0.204,7.507,2.075,7.935
0.983,-0.124,-0.207,7.935,1.831,7.996
0.975,-0.123,-0.21,7.629,2.014,7.751
0.969,-0.12,-0.208,7.385,1.953,7.446
0.962,-0.117,-0.211,6.714,2.197,7.324
0.959,-0.112,-0.215,5.737,2.686,7.263
0.959,-0.105,-0.222,4.456,3.235,7.202
0.953,-0.095,-0.234,3.113,3.479,7.202
0.948,-0.089,-0.249,2.075,3.723,7.263
0.999,-0.736,-1.041,-176.575,-26.367,3.479
0.946,-0.707,-1.185,-179.565,-31.555,-0.916
0.912,-0.636,-1.325,-167.969,-31.25,-2.441
0.912,-0.544,-1.423,-142.761,-26.917,0.61
0.909,-0.425,-1.493,-102.966,-22.339,8.667
0.9,-0.282,-1.512,-48.523,-18.25,21.301
0.908,-0.132,-1.435,18.433,-15.442,34.851
0.954,-0.047,-1.276,100.098,-17.822,48.767
1.008,-0.077,-1.125,190.43,-28.015,63.599
1.004,-0.157,-1.011,279.663,-39.978,77.637
0.998,-0.202,-0.901,356.934,-49.805,90.149
0.999,-0.213,-0.792,423.889,-55.298,101.807
1.0,-0.214,-0.646,485.474,-57.129,111.328
1.032,-0.255,-0.489,542.725,-60.547,116.76
1.069,-0.341,-0.334,596.375,-67.078,116.089
1.1,-0.488,-0.188,645.203,-75.928,108.032
-0.056,-2.645,1.233,690.308,-87.402,93.018
2.143,-4.0,4.0,190.613,335.144,17.456
0.918,2.33,0.117,-548.096,494.141,13.733
1.894,3.901,-1.41,-476.501,-34.058,108.643
2.356,2.322,-0.901,-316.467,-92.651,46.082
1.224,1.416,0.124,-140.259,-95.703,24.048
0.498,1.262,0.052,-45.349,-96.252,47.058
0.747,1.12,-0.24,32.776,-70.801,58.533
1.159,0.639,-0.103,89.966,-77.881,54.81
1.104,0.265,0.046,134.216,-98.45,55.237
0.851,0.244,0.096,164.978,-112.854,60.669
0.68,0.195,-0.001,187.256,-114.685,60.547
0.62,0.017,-0.098,210.937,-101.807,51.575
0.584,-0.124,-0.152,226.99,-79.102,37.964
0.525,-0.253,-0.161,235.291,-47.363,22.705
0.492,-0.404,-0.092,234.436,-12.207,8.301
0.516,-0.583,-0.03,219.116,23.01,1.404
0.572,-0.75,0.001,185.242,56.58,-0.244
0.771,-0.812,0.135,135.315,88.44,-6.348
0.97,-0.645,0.177,79.224,99.67,-17.822
0.94,-0.53,0.09,27.649,90.21,-21.362
0.953,-0.461,0.075,-19.714,72.205,-21.973
0.853,-0.405,-0.087,-62.927,47.485,-24.17
0.664,-0.285,-0.223,-97.412,33.997,-32.593
0.951,-0.153,0.046,-124.695,31.982,-40.894
0.945,0.05,-0.039,-139.343,12.451,-47.363
0.846,0.033,-0.12,-138.55,1.892,-49.316
0.994,0.09,0.01,-137.634,-0.671,-55.237
0.799,0.158,-0.181,-131.409,-13.611,-59.753
0.674,0.083,-0.252,-120.117,-8.118,-60.486
0.927,0.063,-0.159,-112.976,8.667,-64.27
0.859,0.124,-0.192,-102.6,17.944,-70.068
0.838,0.066,-0.234,-91.248,26.062,-69.397
0.934,0.001,-0.211,-85.388,37.476,-67.322
0.979,-0.053,-0.228,-82.642,44.312,-67.505
1.009,-0.074,-0.255,-83.191,48.157,-66.772
1.012,-0.095,-0.281,-85.693,50.049,-63.232
1.1,-0.087,-0.21,-89.172,50.171,-58.777
1.116,-0.101,-0.307,-93.567,41.565,-53.162
1.102,-0.111,-0.28,-97.656,33.142,-50.11
1.054,-0.123,-0.345,-103.455,22.522,-49.805
0.975,-0.115,-0.426,-106.323,19.165,-50.903
1.0,-0.081,-0.42,-107.422,22.278,-51.636
1.068,-0.016,-0.387,-106.628,25.085,-50.903
1.007,-0.009,-0.427,-102.112,24.109,-47.668
0.936,-0.042,-0.481,-96.802,26.062,-45.776
0.972,-0.03,-0.475,-92.59,33.386,-48.157
1.1,-0.012,-0.425,-87.097,39.673,-49.988
1.168,-0.021,-0.399,-78.918,37.231,-48.767
1.207,-0.051,-0.405,-70.007,26.306,-45.654
1.223,-0.069,-0.403,-62.866,12.939,-40.466
1.228,-0.061,-0.388,-58.289,1.16,-34.363
1.216,-0.057,-0.385,-52.734,-8.85,-28.076
1.182,-0.084,-0.391,-46.753,-16.235,-22.522
1.148,-0.101,-0.382,-41.931,-20.508,-18.799
1.114,-0.092,-0.409,-37.415,-21.912,-15.32
1.071,-0.113,-0.408,-32.654,-18.066,-10.437
1.066,-0.097,-0.379,-30.029,-12.146,-5.615
1.085,-0.101,-0.368,-26.428,-7.141,-1.526
1.086,-0.104,-0.342,-22.4,-2.686,1.465
1.076,-0.099,-0.327,-18.86,-1.526,3.113
1.051,-0.105,-0.334,-14.709,-1.587,4.272
1.026,-0.113,-0.341,-10.803,-1.038,5.432
1.015,-0.12,-0.329,-7.568,0.854,6.897
1.01,-0.133,-0.313,-5.249,3.113,8.423
1.01,-0.146,-0.295,-4.395,4.7,9.216
1.018,-0.144,-0.273,-4.639,4.883,9.46
1.018,-0.138,-0.264,-4.944,2.319,9.583
1.003,-0.136,-0.264,-4.822,-1.465,9.827
0.991,-0.134,-0.266,-4.822,-5.005,10.01
0.975,-0.137,-0.267,-4.395,-7.996,10.315
0.96,-0.132,-0.261,-4.333,-9.46,10.559
0.951,-0.121,-0.247,-3.845,-9.644,10.498
0.943,-0.114,-0.239,-2.808,-9.338,10.01
0.935,-0.113,-0.232,-0.916,-7.996,9.033
0.929,-0.113,-0.227,0.854,-5.432,7.812
0.934,-0.115,-0.214,2.93,-2.38,6.836
0.947,-0.123,-0.199,4.395,0.244,6.348
0.959,-0.129,-0.186,5.371,2.258,6.165
0.973,-0.133,-0.173,5.798,3.296,6.409
0.988,-0.137,-0.161,5.676,3.418,7.263
0.994,-0.143,-0.155,5.432,2.563,8.118
0.993,-0.153,-0.154,4.7,1.16,8.606
0.993,-0.16,-0.152,3.723,-0.061,9.094
0.989,-0.162,-0.15,2.258,-0.305,9.46
0.981,-0.167,-0.152,0.854,0.122,9.827
0.975,-0.167,-0.154,-1.221,0.977,10.315
0.978,-0.164,-0.155,-3.296,2.075,10.742
0.98,-0.162,-0.158,-4.639,2.991,10.864
0.977,-0.156,-0.163,-5.615,3.723,10.62
0.976,-0.15,-0.169,-5.798,4.211,10.376
0.975,-0.148,-0.172,-5.615,4.272,10.254
0.977,-0.145,-0.17,-5.615,4.578,9.766
0.974,-0.143,-0.173,-5.188,4.333,9.216
0.973,-0.148,-0.175,-4.333,4.089,8.911
0.972,-0.153,-0.174,-4.272,3.296,8.85
0.972,-0.152,-0.173,-4.639,2.747,8.667
0.97,-0.151,-0.173,-4.7,2.258,8.362
0.966,-0.156,-0.18,-5.432,2.258,8.545
0.964,-0.154,-0.187,-6.47,2.563,9.033
0.969,-0.152,-0.188,-7.446,3.174,9.888
0.974,-0.147,-0.191,-8.728,3.479,10.559
0.975,-0.142,-0.194,-10.254,3.235,10.986
1.0,-0.844,-1.12,-151.245,-8.85,-8.911
0.987,-0.807,-1.279,-143.066,-9.155,-6.531
0.978,-0.658,-1.43,-120.667,-8.057,-1.343
0.971,-0.431,-1.57,-77.637,-8.606,8.85
0.996,-0.202,-1.624,-13.733,-11.23,24.475
1.046,-0.019,-1.539,66.711,-16.907,44.495
1.085,0.006,-1.405,163.818,-28.137,66.04
1.089,-0.123,-1.228,264.099,-43.701,87.28
1.041,-0.22,-1.063,347.778,-58.228,106.14
0.974,-0.208,-0.924,417.419,-66.528,118.835
0.985,-0.173,-0.764,482.239,-65.857,123.779
1.042,-0.203,-0.589,545.837,-62.866,122.253
1.099,-0.333,-0.436,606.506,-60.425,115.112
1.143,-0.558,-0.285,658.63,-59.021,103.088
1.172,-1.072,0.117,698.547,-59.387,90.576
-2.617,-4.0,3.927,656.189,-23.621,84.412
1.897,-3.896,4.0,-139.587,623.779,27.649
1.728,2.427,-0.118,-458.008,346.985,69.763
2.558,3.49,-1.193,-469.971,-128.357,59.631
2.379,1.956,-0.565,-274.048,-158.569,27.954
1.155,1.155,0.189,-127.93,-155.151,52.795
0.335,1.09,0.037,-63.232,-177.368,71.472
0.17,0.963,-0.245,6.042,-151.733,71.777
0.54,0.505,-0.084,61.401,-96.863,60.181
0.791,0.224,0.005,100.586,-66.956,54.871
0.805,0.166,0.006,128.235,-59.57,58.167
0.744,0.067,0.031,149.78,-54.504,58.411
0.665,-0.055,-0.013,166.87,-52.002,47.302
0.585,-0.198,-0.079,176.758,-41.504,33.325
0.48,-0.292,-0.135,178.406,-14.221,17.334
0.478,-0.4,-0.124,170.837,24.17,3.601
0.509,-0.539,-0.159,153.198,63.232,-7.935
0.708,-0.591,-0.02,125.854,94.849,-24.292
0.872,-0.519,0.016,88.684,100.891,-37.048
0.896,-0.5,-0.003,51.453,97.046,-41.748
0.931,-0.422,0.054,13.062,91.248,-45.654
0.868,-0.361,0.013,-23.01,74.097,-46.448
0.89,-0.297,-0.04,-52.429,53.894,-49.805
0.892,-0.235,-0.082,-76.538,34.485,-52.551
0.841,-0.15,-0.112,-93.506,18.982,-55.115
0.836,-0.109,-0.169,-104.187,8.667,-56.335
0.809,-0.02,-0.088,-110.657,6.958,-56.763
0.889,0.02,-0.16,-113.647,3.296,-52.124
0.73,0.008,-0.278,-108.276,3.479,-51.758
0.959,-0.023,-0.105,-106.201,18.433,-53.467
0.92,0.081,-0.228,-100.647,18.738,-59.509
0.89,0.016,-0.206,-91.431,26.428,-58.472
0.986,-0.035,-0.219,-86.182,32.837,-59.204
0.995,-0.078,-0.266,-81.238,37.354,-62.195
1.036,-0.088,-0.287,-81.055,42.664,-62.5
1.028,-0.115,-0.296,-82.275,47.18,-59.57
1.093,-0.125,-0.273,-84.717,49.377,-56.03
1.14,-0.104,-0.257,-87.769,46.143,-52.795
1.078,-0.116,-0.357,-90.515,39.368,-48.95
1.063,-0.139,-0.38,-93.689,38.818,-46.387
1.147,-0.077,-0.331,-97.412,38.33,-44.434
1.166,-0.092,-0.418,-95.215,30.273,-41.931
1.143,-0.061,-0.375,-93.079,26.001,-40.588
1.124,-0.038,-0.403,-91.248,17.578,-37.964
1.077,-0.047,-0.438,-85.571,13.489,-36.194
1.085,-0.028,-0.439,-80.322,13.489,-34.79
1.112,-0.037,-0.414,-73.547,12.756,-32.593
1.119,-0.049,-0.417,-65.613,9.827,-30.396
1.113,-0.055,-0.403,-59.57,7.629,-28.137
1.102,-0.053,-0.386,-55.359,5.859,-26.611
1.101,-0.055,-0.372,-50.964,3.845,-25.818
1.102,-0.055,-0.364,-46.265,1.221,-25.33
1.079,-0.055,-0.37,-41.199,-2.014,-24.048
1.056,-0.059,-0.371,-36.438,-4.272,-21.362
1.057,-0.057,-0.354,-32.532,-4.517,-17.822
1.067,-0.056,-0.338,-28.503,-4.395,-14.343
1.07,-0.061,-0.322,-24.353,-4.028,-11.963
1.073,-0.076,-0.307,-20.569,-4.028,-10.193
1.083,-0.11,-0.307,-17.029,-4.944,-8.423
1.078,-0.143,-0.314,-15.625,-5.92,-5.859
1.064,-0.164,-0.312,-16.418,-5.798,-3.052
1.059,-0.156,-0.296,-18.799,-4.883,-0.427
1.058,-0.142,-0.287,-20.874,-3.418,2.319
1.047,-0.132,-0.286,-21.545,-1.953,4.578
1.032,-0.119,-0.293,-21.484,-1.404,5.981
1.021,-0.115,-0.299,-20.02,-0.671,7.568
1.01,-0.112,-0.294,-18.311,-0.122,8.972
1.0,-0.11,-0.283,-15.869,0.366,9.705
0.997,-0.109,-0.274,-13.245,1.038,9.705
0.991,-0.11,-0.266,-10.681,1.343,9.521
0.978,-0.112,-0.263,-7.507,1.465,9.46
0.974,-0.12,-0.258,-5.127,2.136,9.888
0.975,-0.132,-0.248,-3.113,2.808,10.742
0.981,-0.137,-0.23,-1.709,3.54,11.475
0.985,-0.144,-0.217,-0.977,3.479,12.207
0.986,-0.143,-0.206,-1.282,2.319,12.817
0.979,-0.146,-0.197,-1.038,0.427,12.878
0.976,-0.152,-0.194,-1.404,-1.16,12.878
0.972,-0.161,-0.195,-1.648,-2.502,12.512
0.963,-0.168,-0.194,-2.258,-2.625,11.902
0.965,-0.171,-0.189,-3.174,-1.648,11.414
0.972,-0.175,-0.184,-4.211,0.0,11.108
0.974,-0.178,-0.184,-5.066,1.526,10.681
0.977,-0.179,-0.184,-6.226,3.479,10.498
0.982,-0.174,-0.179,-7.141,4.761,10.62
0.99,-0.174,-0.172,-7.69,5.554,11.23
0.993,-0.171,-0.168,-8.362,5.676,11.963
0.986,-0.167,-0.168,-8.728,5.005,13.0
0.984,-0.163,-0.168,-8.545,4.15,14.099
0.98,-0.164,-0.171,-8.667,3.418,14.893
0.972,-0.161,-0.172,-8.118,2.869,14.771
0.964,-0.161,-0.175,-7.935,2.502,14.648
0.961,-0.162,-0.176,-7.751,2.625,14.465
0.964,-0.158,-0.167,-8.057,2.502,14.16
0.96,-0.153,-0.165,-8.301,2.258,13.916
0.952,-0.153,-0.172,-8.85,1.77,13.733
0.95,-0.154,-0.176,-9.094,1.343,13.367
0.95,-0.153,-0.179,-9.583,0.977,12.939
0.951,-0.152,-0.18,-10.071,0.793,12.634
0.95,-0.149,-0.186,-10.681,0.427,11.902
0.949,-0.146,-0.193,-11.169,-0.061,11.597
0.954,-0.144,-0.199,-11.719,-0.427,11.23
0.955,-0.141,-0.207,-11.902,-0.793,10.803
0.958,-0.136,-0.213,-11.841,-1.038,10.376
2.192,-4.0,4.0,-61.707,501.465,75.317
1.3,3.813,-0.03,-555.237,287.292,36.987
1.569,4.0,-1.069,-461.853,-104.797,59.509
1.22,2.816,-0.77,-232.91,18.738,5.737
0.894,1.482,0.236,-28.32,41.87,1.282
0.988,1.29,0.521,62.927,80.322,20.02
1.242,1.018,0.48,117.981,54.382,13.245
1.248,0.508,0.216,163.513,-18.25,22.888
1.21,0.254,0.195,191.04,-49.255,26.062
0.688,0.169,-0.071,211.731,-78.491,19.043
0.57,0.24,-0.048,232.605,-81.177,12.634
0.423,-0.095,-0.246,243.103,-64.392,11.353
0.47,-0.632,-0.175,242.798,-15.259,-4.883
0.557,-0.885,-0.056,208.069,38.147,-19.653
0.9,-1.09,0.108,141.235,72.754,-16.663
1.017,-1.072,0.036,56.824,75.562,-20.386
0.922,-0.868,-0.06,-32.043,59.082,-23.926
0.819,-0.684,0.025,-111.267,45.349,-26.855
0.846,-0.304,-0.004,-173.523,28.442,-34.363
0.854,-0.084,-0.023,-210.693,19.348,-33.081
0.758,0.073,-0.084,-229.309,16.052,-33.813
0.715,0.184,-0.17,-230.957,16.968,-37.17
0.725,0.258,-0.242,-218.018,22.583,-43.457
0.728,0.298,-0.324,-196.838,28.625,-51.147
0.755,0.28,-0.356,-170.41,38.269,-58.228
0.809,0.231,-0.353,-144.653,49.377,-64.026
0.88,0.164,-0.34,-122.62,59.387,-67.505
0.965,0.073,-0.295,-106.384,64.819,-67.627
1.047,-0.003,-0.262,-96.924,62.439,-65.491
1.097,-0.068,-0.252,-93.933,53.284,-61.89
1.121,-0.126,-0.269,-96.191,40.771,-56.58
1.132,-0.161,-0.312,-102.722,25.818,-49.744
1.113,-0.172,-0.361,-110.84,11.902,-42.603
1.09,-0.157,-0.407,-119.812,2.502,-35.645
1.054,-0.148,-0.458,-126.709,-2.625,-29.846
1.005,-0.13,-0.504,-131.042,-3.784,-26.55
0.981,-0.111,-0.536,-133.179,-0.61,-24.414
0.971,-0.098,-0.55,-134.033,5.737,-24.109
0.977,-0.07,-0.566,-133.118,12.573,-24.414
0.983,-0.044,-0.582,-129.822,17.578,-24.17
0.994,-0.03,-0.588,-124.146,19.592,-23.804
1.0,-0.024,-0.584,-117.31,18.86,-23.987
1.004,-0.025,-0.583,-109.375,16.174,-25.757
1.018,-0.025,-0.598,-101.379,11.841,-28.32
1.006,-0.022,-0.627,-92.346,7.812,-29.48
1.014,-0.021,-0.629,-82.458,4.883,-28.381
1.044,-0.012,-0.589,-73.425,2.075,-25.513
1.05,-0.01,-0.558,-65.125,-0.977,-21.973
1.045,-0.024,-0.55,-56.458,-3.601,-18.616
1.046,-0.049,-0.55,-49.072,-5.432,-16.479
1.052,-0.063,-0.544,-43.03,-6.287,-15.137
1.044,-0.072,-0.544,-37.598,-6.958,-13.672
1.049,-0.085,-0.538,-32.043,-7.507,-10.803
1.06,-0.084,-0.516,-28.015,-7.874,-6.897
1.059,-0.078,-0.49,-25.024,-8.362,-3.601
1.045,-0.075,-0.477,-22.095,-9.644,-1.038
1.025,-0.075,-0.473,-19.836,-10.925,1.221
0.996,-0.074,-0.474,-17.212,-11.169,2.258
0.959,-0.074,-0.482,-14.404,-9.46,2.869
0.951,-0.079,-0.476,-11.475,-5.981,3.845
0.955,-0.083,-0.448,-9.766,-1.831,4.639
0.963,-0.077,-0.422,-8.667,1.465,4.333
0.969,-0.074,-0.41,-7.996,3.357,3.662
0.97,-0.071,-0.404,-6.775,3.54,2.686
0.956,-0.068,-0.403,-5.31,2.319,2.075
0.953,-0.061,-0.393,-3.967,1.526,2.502
0.956,-0.054,-0.375,-2.197,0.854,3.723
0.953,-0.052,-0.365,0.183,0.061,4.883
0.948,-0.053,-0.361,1.831,-0.916,5.798
0.942,-0.054,-0.36,4.028,-1.77,6.104
0.938,-0.051,-0.352,6.592,-1.648,5.92
0.939,-0.052,-0.34,8.85,-1.648,5.676
0.943,-0.057,-0.328,11.169,-1.465,4.944
0.947,-0.064,-0.316,12.939,-1.343,4.089
0.953,-0.064,-0.301,13.794,-1.282,3.174
0.966,-0.072,-0.288,14.465,-1.892,2.38
0.962,-0.082,-0.29,14.587,-2.869,1.831
0.954,-0.091,-0.29,14.099,-2.991,2.38
0.96,-0.097,-0.278,13.062,-2.197,3.845
0.967,-0.095,-0.265,11.047,-0.793,5.005
0.97,-0.089,-0.257,9.033,0.61,5.737
0.967,-0.087,-0.258,7.629,1.404,5.859
0.962,-0.084,-0.262,6.714,1.709,5.676
0.961,-0.086,-0.262,6.226,1.831,5.005
0.96,-0.092,-0.263,6.531,2.136,4.333
0.962,-0.094,-0.256,6.042,2.869,4.15
0.97,-0.089,-0.248,5.31,3.723,4.211
0.976,-0.088,-0.24,4.944,3.601,4.456
0.975,-0.091,-0.242,4.333,2.747,4.883
