aX,aY,aZ,gX,gY,gZ
4.0,-0.877,0.428,-28.259,-65.186,-44.312
4.0,0.379,2.058,-79.224,-153.32,-3.357
3.639,-0.622,1.525,-47.974,-261.902,152.893
3.076,-0.611,0.736,-57.312,-278.503,269.165
1.632,-0.305,0.064,-49.988,-196.228,294.373
0.307,-0.026,-0.161,-30.273,-98.267,237.915
-0.346,0.109,-0.17,-14.221,-12.085,194.031
-0.379,-0.01,-0.208,-10.803,52.795,175.964
-0.416,-0.085,-0.268,-12.207,99.243,164.734
-0.268,-0.114,-0.27,-21.179,131.226,158.691
-0.085,-0.115,-0.03,-27.283,156.86,160.95
0.009,-0.182,0.001,-22.705,163.757,158.936
0.027,-0.114,-0.114,-20.691,166.565,150.208
0.016,-0.025,-0.023,-24.231,166.931,144.348
0.001,0.053,-0.032,-23.56,152.1,137.634
-0.011,0.057,-0.055,-16.541,136.658,132.751
-0.008,0.108,0.013,-10.254,125.0,125.427
0.046,0.163,0.081,-4.456,111.572,116.638
0.098,0.16,0.11,2.502,96.252,105.286
0.108,0.208,0.135,8.728,80.444,89.539
0.158,0.209,0.139,14.526,62.012,74.402
0.227,0.186,0.124,19.592,43.213,56.641
0.275,0.187,0.114,24.353,25.269,35.217
0.345,0.178,0.097,28.931,7.751,13.855
0.427,0.15,0.081,32.288,-6.958,-5.737
0.495,0.127,0.068,33.63,-19.531,-23.499
0.57,0.093,0.065,33.325,-30.151,-37.354
0.693,0.051,0.075,30.884,-37.903,-46.448
0.785,0.032,0.068,26.245,-45.715,-51.819
0.845,0.019,0.048,21.301,-53.101,-52.734
0.873,0.025,0.047,17.517,-57.251,-49.438
0.893,0.031,0.043,14.893,-58.289,-43.274
0.887,0.04,0.023,13.55,-55.542,-36.255
0.864,0.062,0.004,13.184,-47.546,-30.334
0.843,0.065,-0.017,13.794,-33.569,-25.452
0.814,0.071,-0.035,14.465,-14.465,-23.865
0.805,0.088,-0.034,14.404,7.568,-25.208
0.82,0.079,-0.044,14.893,29.907,-28.076
0.867,0.082,-0.032,14.954,50.598,-32.166
0.924,0.081,-0.017,14.526,66.711,-35.706
0.979,0.08,-0.0,13.916,76.111,-38.208
1.029,0.076,0.014,13.367,79.163,-39.673
1.079,0.071,0.033,12.207,76.355,-40.1
1.112,0.064,0.051,11.597,67.871,-40.283
1.128,0.058,0.061,10.681,55.786,-39.917
1.128,0.055,0.069,9.827,41.87,-39.246
1.107,0.057,0.072,9.216,28.137,-38.513
1.078,0.055,0.068,8.789,16.296,-37.231
1.053,0.05,0.062,7.996,7.324,-35.461
1.028,0.043,0.054,7.019,1.099,-33.691
1.003,0.034,0.041,5.798,-2.136,-31.86
0.989,0.031,0.032,4.089,-3.296,-30.09
0.97,0.03,0.022,2.136,-2.563,-28.503
0.93,0.022,0.002,0.305,-0.61,-27.039
0.896,0.029,0.0,-2.197,3.906,-26.428
0.81,0.031,-0.021,-4.028,10.132,-26.306
0.815,0.093,0.009,-5.737,18.738,-25.146
1.056,-0.168,-0.088,-5.798,28.503,-20.63
1.058,0.012,-0.076,-9.094,34.79,-26.062
0.979,-0.014,0.043,-10.864,30.029,-27.405
1.056,0.015,-0.041,-15.259,24.414,-24.475
1.2,-0.036,-0.025,-16.602,19.836,-22.949
1.077,0.015,-0.008,-18.799,13.0,-24.597
1.134,0.016,0.019,-18.005,4.883,-22.827
1.088,-0.009,-0.035,-16.846,-3.601,-20.63
1.093,0.015,-0.016,-16.052,-7.019,-19.287
1.042,0.001,-0.043,-14.099,-10.498,-17.273
1.001,-0.001,-0.036,-12.207,-11.047,-16.357
1.0,0.014,-0.043,-11.414,-10.071,-16.602
0.996,0.0,-0.033,-10.01,-6.287,-15.564
1.001,-0.003,-0.027,-9.033,-3.357,-15.442
0.988,-0.01,-0.034,-8.667,-0.916,-15.686
0.989,-0.013,-0.026,-9.155,2.319,-16.235
1.001,-0.002,-0.021,-10.01,4.822,-17.456
1.01,0.003,-0.014,-10.01,6.775,-17.761
1.036,0.002,-0.013,-9.949,7.629,-17.639
1.059,0.007,-0.011,-9.338,7.385,-17.151
1.061,0.001,-0.017,-8.911,5.737,-16.174
1.055,0.011,-0.02,-8.057,3.479,-15.259
1.043,0.019,-0.022,-7.202,1.648,-13.672
1.033,0.019,-0.024,-5.859,1.282,-12.146
1.033,0.006,-0.024,-4.761,2.197,-11.108
1.06,-0.005,-0.025,-3.845,3.174,-11.353
1.061,-0.011,-0.032,-4.15,3.845,-12.146
1.049,-0.004,-0.025,-4.517,4.211,-12.878
1.036,0.008,-0.038,-4.761,3.845,-12.39
1.082,-0.016,-0.04,-4.578,4.639,-11.108
1.092,-0.002,-0.048,-5.31,5.493,-11.414
1.071,0.008,-0.042,-5.249,5.493,-11.292
1.091,-0.006,-0.064,-5.066,5.066,-9.399
1.079,0.011,-0.062,-4.639,5.371,-8.362
1.057,0.007,-0.072,-3.967,6.409,-6.653
1.066,0.009,-0.072,-2.563,8.057,-5.127
1.036,0.006,-0.086,-1.038,9.644,-4.15
1.015,-0.015,-0.097,0.916,12.817,-3.723
1.07,0.015,-0.05,1.709,17.212,-3.662
0.889,-0.009,-0.141,3.723,18.555,-2.625
1.109,-0.02,-0.052,4.639,24.536,0.122
1.172,-0.051,-0.061,5.188,22.949,-0.427
0.99,-0.011,-0.073,4.517,17.822,-2.625
1.082,-0.018,-0.054,4.395,12.512,0.244
1.035,-0.032,-0.12,3.967,9.521,2.136
1.012,0.002,-0.067,4.211,7.263,2.747
1.001,0.012,-0.063,3.906,4.089,4.517
0.997,0.008,-0.064,3.967,0.793,6.653
0.984,0.008,-0.066,4.028,-2.319,8.057
0.957,0.004,-0.069,3.723,-4.883,8.545
0.933,0.003,-0.079,3.357,-6.348,8.301
0.928,-0.003,-0.087,2.747,-5.859,7.202
0.938,-0.011,-0.09,1.77,-4.333,5.493
0.95,-0.016,-0.097,0.732,-2.502,3.601
0.967,-0.019,-0.101,0.061,-1.282,2.136
0.98,-0.017,-0.107,-0.671,-0.305,1.648
0.981,-0.01,-0.112,-1.343,0.671,1.709
0.974,-0.001,-0.116,-1.587,1.526,2.441
0.957,0.008,-0.122,-1.709,2.93,3.845
0.937,0.016,-0.129,-1.648,4.211,5.676
0.914,0.02,-0.134,-1.343,6.409,7.202
0.893,0.025,-0.137,-1.526,9.094,8.24
4.0,0.642,1.523,-53.65,5.432,-32.043
4.0,-0.805,1.992,-28.931,5.066,127.014
4.0,-0.61,1.527,-39.063,-63.538,223.999
2.42,-0.541,0.488,-67.383,-46.753,238.037
0.988,-0.355,0.054,-59.265,14.038,219.116
0.509,-0.182,-0.04,-44.434,68.237,181.763
0.257,-0.334,-0.271,-36.133,101.868,161.316
-0.141,-0.258,-0.357,-25.391,132.629,147.156
-0.199,-0.514,-0.494,-23.376,156.799,151.978
0.105,-0.495,-0.517,-31.128,180.542,142.151
-0.022,-0.25,-0.312,-31.128,201.477,122.681
-0.012,-0.207,-0.254,-21.24,209.534,120.178
0.086,-0.257,-0.184,-16.602,191.101,118.713
0.217,-0.163,-0.134,-20.203,160.706,114.929
0.169,-0.143,-0.172,-17.944,130.554,112.305
0.102,-0.095,-0.194,-13.245,104.919,106.201
0.037,-0.061,-0.181,-6.592,84.9,96.68
0.048,-0.011,-0.168,1.099,68.115,85.266
0.049,-0.001,-0.151,9.46,53.65,73.12
0.064,0.019,-0.156,17.578,38.391,58.289
0.115,0.039,-0.165,25.818,23.132,41.809
0.154,0.028,-0.169,33.386,9.583,25.391
0.189,0.002,-0.19,38.147,-3.479,8.179
0.245,-0.013,-0.216,39.856,-14.099,-8.24
0.286,-0.033,-0.225,39.673,-22.278,-22.522
0.357,-0.033,-0.236,38.269,-29.602,-34.119
0.379,-0.075,-0.244,36.255,-35.217,-41.565
0.441,-0.09,-0.249,31.616,-38.879,-46.448
0.466,-0.129,-0.274,25.879,-41.443,-48.645
0.572,-0.142,-0.281,19.714,-41.321,-49.683
0.657,-0.172,-0.294,13.0,-39.917,-49.561
0.731,-0.193,-0.306,6.104,-38.635,-49.133
0.769,-0.191,-0.317,-0.488,-38.147,-49.255
0.837,-0.169,-0.333,-6.348,-37.476,-49.744
0.887,-0.129,-0.336,-9.094,-35.583,-49.5
0.915,-0.096,-0.328,-8.545,-33.203,-48.035
0.93,-0.063,-0.31,-5.31,-31.067,-46.692
0.929,-0.05,-0.293,-0.488,-28.748,-44.922
0.925,-0.048,-0.271,4.883,-25.818,-43.64
0.932,-0.054,-0.241,9.888,-22.522,-42.725
0.941,-0.071,-0.206,14.526,-20.569,-42.603
0.962,-0.092,-0.167,17.578,-21.118,-43.03
1.0,-0.115,-0.132,18.616,-24.902,-43.884
1.054,-0.147,-0.099,18.738,-32.349,-45.41
1.051,-0.157,-0.084,16.785,-43.03,-47.974
1.065,-0.159,-0.076,14.038,-54.443,-50.842
1.089,-0.169,-0.088,11.414,-64.148,-52.795
1.07,-0.174,-0.097,8.972,-71.899,-53.711
1.065,-0.166,-0.105,7.202,-76.111,-53.223
1.053,-0.163,-0.097,6.958,-77.026,-51.636
1.043,-0.174,-0.092,7.385,-75.806,-49.316
1.025,-0.167,-0.07,7.812,-73.242,-47.058
0.982,-0.158,-0.06,9.216,-70.251,-44.006
0.967,-0.168,-0.047,10.498,-65.491,-40.955
0.979,-0.153,-0.016,11.475,-59.509,-39.246
0.891,-0.166,-0.017,13.184,-55.725,-38.513
0.932,-0.208,-0.005,13.611,-50.903,-38.086
0.937,-0.2,-0.014,12.085,-46.204,-40.222
0.925,-0.218,-0.007,10.681,-40.955,-42.48
0.948,-0.207,0.002,9.521,-37.537,-44.617
0.976,-0.209,0.021,8.301,-34.851,-44.861
0.986,-0.211,0.018,7.263,-33.691,-43.152
0.98,-0.21,0.019,6.042,-32.837,-40.588
0.974,-0.218,0.013,5.432,-31.494,-37.476
0.974,-0.226,0.01,5.371,-29.358,-35.278
0.973,-0.224,0.013,5.92,-26.306,-33.997
0.96,-0.222,0.012,6.531,-23.376,-33.691
0.942,-0.221,0.017,7.69,-20.996,-33.447
0.921,-0.228,0.02,8.606,-18.738,-32.898
0.905,-0.24,0.026,9.338,-16.846,-32.227
0.912,-0.254,0.041,10.254,-15.503,-31.677
0.929,-0.264,0.051,10.925,-15.869,-32.104
0.933,-0.265,0.063,11.597,-17.395,-33.508
0.943,-0.278,0.07,12.695,-19.531,-34.851
0.965,-0.298,0.068,12.39,-21.729,-35.156
0.973,-0.31,0.06,11.658,-23.437,-35.156
0.961,-0.315,0.056,10.681,-23.56,-34.729
0.962,-0.332,0.051,10.01,-21.79,-33.508
0.977,-0.358,0.05,8.789,-18.738,-32.471
0.98,-0.377,0.044,7.385,-14.404,-32.776
0.969,-0.388,0.038,5.92,-9.216,-34.729
0.964,-0.396,0.034,4.944,-3.418,-37.17
1.002,-0.424,0.039,3.479,2.38,-39.673
1.073,-0.449,0.045,1.587,6.836,-41.87
1.116,-0.443,0.051,-0.427,8.484,-43.945
1.135,-0.427,0.058,-0.977,7.141,-44.189
1.155,-0.419,0.062,-0.916,4.089,-41.87
1.169,-0.419,0.061,0.122,-0.488,-37.964
1.161,-0.413,0.054,1.099,-4.944,-34.18
1.146,-0.409,0.042,1.953,-7.324,-30.151
1.138,-0.415,0.033,2.258,-7.996,-25.391
1.13,-0.416,0.026,1.404,-7.324,-19.287
1.106,-0.409,0.023,-0.366,-6.042,-12.268
1.073,-0.392,0.019,-2.197,-4.578,-4.944
1.036,-0.379,0.015,-3.723,-2.563,1.648
1.004,-0.373,0.016,-4.761,-0.61,7.324
0.976,-0.363,0.019,-5.127,0.671,10.376
0.952,-0.357,0.018,-5.615,1.282,11.841
0.939,-0.354,0.02,-5.676,1.343,13.0
0.934,-0.357,0.02,-5.371,0.244,13.794
0.931,-0.364,0.023,-5.554,-1.465,14.587
0.931,-0.38,0.016,-5.981,-4.089,14.954
0.929,-0.391,0.012,-7.08,-6.104,14.587
0.932,-0.406,0.005,-8.789,-7.568,13.672
0.938,-0.418,0.001,-10.132,-8.423,11.841
0.94,-0.426,-0.003,-11.475,-8.484,9.521
0.954,-0.436,-0.009,-12.695,-7.507,7.08
0.964,-0.44,-0.012,-13.611,-5.981,4.211
0.972,-0.44,-0.016,-13.672,-3.601,1.282
0.997,-0.436,-0.015,-13.611,-0.61,-1.16
1.014,-0.428,-0.013,-13.0,1.892,-2.686
1.028,-0.419,-0.012,-12.085,3.784,-3.418
1.033,-0.403,-0.013,-10.925,5.432,-3.601
1.025,-0.382,-0.012,-8.972,6.592,-3.235
1.011,-0.368,-0.01,-6.958,7.568,-2.319
0.998,-0.354,-0.01,-5.493,8.545,-0.122
0.97,-0.338,-0.012,-3.906,9.521,2.014
0.935,-0.322,-0.012,-2.258,10.742,3.54
0.904,-0.31,-0.011,-0.549,12.146,4.517
4.0,0.205,1.522,-16.663,-21.667,33.508
4.0,-0.819,1.396,-27.588,-54.321,197.876
3.033,-0.583,0.94,-62.744,-144.043,275.513
1.271,-0.455,0.164,-78.613,-100.464,290.161
0.321,-0.096,-0.28,-54.382,-13.245,257.751
-0.182,0.062,-0.35,-13.489,81.604,190.247
0.005,0.077,-0.26,6.226,155.701,137.207
-0.31,-0.025,-0.338,6.165,193.481,120.789
-0.273,-0.134,-0.329,0.305,217.529,125.732
-0.153,-0.325,-0.186,-13.733,226.685,137.39
0.008,-0.287,-0.046,-21.179,220.764,134.094
0.01,-0.162,-0.087,-19.409,203.979,128.235
0.1,-0.14,-0.083,-21.79,179.382,131.531
0.02,-0.139,-0.052,-22.278,150.879,134.827
0.009,-0.073,-0.082,-20.264,118.042,129.639
0.029,-0.037,-0.031,-16.541,89.233,122.864
0.002,0.017,0.012,-12.329,60.913,111.084
-0.013,0.078,0.016,-5.981,33.691,95.032
-0.018,0.09,0.021,2.441,10.986,77.454
-0.003,0.098,0.009,10.925,-9.827,58.533
0.004,0.105,-0.004,18.799,-28.687,38.879
0.052,0.117,-0.01,25.757,-44.739,19.775
0.103,0.068,-0.016,33.203,-57.312,2.869
0.174,0.022,-0.037,37.842,-68.054,-13.184
0.261,-0.015,-0.06,39.185,-75.562,-28.076
0.297,-0.078,-0.095,36.926,-80.078,-40.466
0.368,-0.081,-0.123,31.494,-82.031,-52.246
0.468,-0.083,-0.13,25.879,-78.918,-60.303
0.549,-0.11,-0.129,20.569,-71.716,-63.904
0.642,-0.126,-0.131,13.428,-63.843,-64.636
0.738,-0.123,-0.13,5.859,-56.396,-63.171
0.818,-0.112,-0.139,-1.221,-47.974,-59.448
0.868,-0.101,-0.152,-7.141,-38.33,-53.589
0.895,-0.085,-0.165,-12.146,-27.405,-47.18
0.924,-0.057,-0.181,-15.625,-15.625,-41.931
0.93,-0.029,-0.186,-18.127,-3.601,-38.33
0.934,-0.008,-0.185,-19.043,8.118,-36.865
0.942,0.008,-0.177,-19.043,18.677,-37.292
0.972,0.012,-0.164,-18.433,25.818,-39.246
1.013,0.005,-0.154,-17.09,28.442,-42.542
1.043,0.002,-0.137,-14.954,26.489,-47.363
1.061,-0.003,-0.124,-12.146,19.653,-52.246
1.071,-0.01,-0.113,-9.216,9.888,-56.641
1.072,-0.01,-0.101,-6.042,-0.916,-59.753
1.062,-0.018,-0.1,-3.235,-11.719,-61.707
1.048,-0.041,-0.102,-0.61,-21.24,-62.805
1.031,-0.064,-0.111,0.671,-27.832,-63.538
0.994,-0.059,-0.118,1.709,-31.799,-63.843
0.976,-0.046,-0.113,3.174,-32.349,-63.171
1.037,-0.083,-0.111,4.944,-30.273,-61.035
1.013,-0.085,-0.104,5.798,-27.405,-59.814
0.97,-0.166,-0.167,6.104,-23.926,-58.777
0.963,-0.05,-0.057,4.15,-17.578,-59.814
0.943,-0.109,-0.097,3.357,-14.526,-57.556
1.054,-0.19,-0.099,1.404,-6.531,-56.641
1.031,-0.118,-0.083,-1.587,-4.395,-57.373
1.05,-0.144,-0.047,-1.953,-5.371,-52.551
1.085,-0.146,-0.037,-3.723,-11.23,-48.523
1.057,-0.161,-0.05,-4.822,-19.714,-46.143
1.033,-0.179,-0.07,-6.042,-26.794,-44.983
1.002,-0.178,-0.084,-7.019,-30.945,-44.495
0.986,-0.177,-0.08,-8.057,-32.104,-43.579
0.95,-0.184,-0.085,-8.972,-32.043,-42.419
0.915,-0.178,-0.073,-9.521,-30.884,-41.199
0.873,-0.182,-0.07,-9.46,-28.809,-39.673
0.829,-0.191,-0.066,-8.728,-26.672,-39.185
0.803,-0.204,-0.063,-8.911,-23.926,-40.283
0.787,-0.218,-0.059,-8.789,-20.996,-43.091
0.805,-0.233,-0.056,-8.85,-18.677,-47.241
0.813,-0.229,-0.054,-9.521,-18.372,-52.124
0.795,-0.213,-0.05,-9.399,-20.081,-56.641
0.762,-0.197,-0.051,-8.362,-23.437,-60.12
0.716,-0.196,-0.058,-7.08,-27.1,-63.049
0.686,-0.213,-0.071,-5.188,-29.419,-66.711
0.668,-0.245,-0.082,-2.991,-28.503,-71.899
0.702,-0.298,-0.087,-1.709,-23.682,-77.454
0.809,-0.376,-0.094,-2.014,-17.029,-82.764
0.907,-0.421,-0.091,-3.601,-10.803,-87.952
0.955,-0.429,-0.078,-5.798,-7.141,-91.37
0.989,-0.43,-0.065,-6.348,-6.104,-92.896
1.02,-0.425,-0.046,-4.822,-6.592,-93.323
1.052,-0.422,-0.025,-1.282,-8.85,-94.421
1.124,-0.454,-0.016,3.906,-12.939,-97.168
1.184,-0.45,-0.008,9.033,-18.616,-101.868
1.216,-0.43,0.005,15.076,-25.879,-106.018
1.285,-0.464,0.017,20.691,-33.264,-103.394
1.345,-0.5,0.028,22.4,-39.551,-92.773
1.364,-0.515,0.027,20.813,-45.715,-77.393
1.355,-0.52,0.003,18.127,-50.537,-60.669
1.326,-0.529,-0.005,14.465,-51.27,-44.983
1.272,-0.524,-0.016,9.583,-47.424,-30.884
1.201,-0.511,-0.022,5.737,-39.124,-18.86
1.13,-0.501,-0.024,2.625,-27.832,-9.338
1.078,-0.494,-0.018,0.61,-14.16,-2.686
1.06,-0.489,-0.001,-1.16,0.183,1.404
1.067,-0.49,0.012,-3.357,12.512,3.174
1.072,-0.5,0.019,-5.249,21.729,3.418
1.11,-0.512,0.029,-6.287,26.367,3.174
1.155,-0.53,0.042,-7.629,25.574,3.052
1.183,-0.548,0.047,-8.24,19.47,2.93
1.199,-0.564,0.05,-8.545,9.338,2.197
1.208,-0.584,0.052,-8.972,-2.014,1.953
1.206,-0.601,0.043,-9.827,-12.939,2.014
1.203,-0.615,0.027,-10.803,-22.278,2.93
1.218,-0.637,-0.006,-11.353,-30.09,5.554
1.209,-0.662,-0.01,-15.32,-35.889,9.521
1.151,-0.64,0.039,-25.574,-38.025,12.817
1.106,-0.593,0.05,-37.17,-36.194,15.137
1.047,-0.529,0.066,-45.593,-31.372,17.456
0.98,-0.441,0.105,-51.208,-24.231,19.287
0.921,-0.36,0.12,-52.307,-15.503,19.897
0.878,-0.304,0.089,-48.523,-7.141,20.447
0.831,-0.264,0.047,-39.49,0.427,21.606
0.807,-0.264,0.032,-28.137,8.545,23.437
0.807,-0.289,0.032,-17.09,15.259,25.085
0.804,-0.293,0.065,-10.315,18.25,26.245
0.812,-0.294,0.084,-6.958,17.7,26.917
0.813,-0.292,0.082,-6.287,13.916,26.978
0.807,-0.302,0.068,-6.47,8.484,27.466
4.0,0.383,2.394,59.387,3.906,-225.22
4.0,-0.049,2.823,63.293,-11.963,-133.667
4.0,-0.966,1.805,55.481,-63.049,75.317
2.864,-1.026,0.427,10.864,-57.739,198.792
1.063,-0.306,0.148,12.085,27.527,225.464
-0.123,-0.528,-0.125,18.066,74.524,230.408
0.401,-1.072,-0.337,14.893,86.792,234.131
0.861,-0.63,0.036,-12.268,74.28,219.604
0.339,-0.533,0.185,-41.382,15.442,219.604
1.218,-0.738,0.345,-60.181,-65.796,234.558
0.668,-0.745,0.046,-64.697,-165.527,218.14
0.291,-0.585,-0.162,-73.303,-256.775,199.89
0.331,-0.514,-0.264,-82.214,-319.763,191.833
0.015,-0.407,-0.456,-78.735,-356.628,171.082
-0.379,-0.388,-0.625,-71.228,-364.441,151.733
-0.469,-0.267,-0.609,-68.787,-344.482,135.315
-0.552,-0.174,-0.593,-60.73,-306.641,119.324
-0.63,-0.13,-0.578,-47.974,-258.85,105.164
-0.642,-0.065,-0.526,-35.767,-206.482,92.773
-0.621,0.0,-0.471,-22.4,-153.076,81.055
-0.596,0.039,-0.421,-8.667,-101.868,69.092
-0.526,0.067,-0.356,4.761,-53.772,56.091
-0.412,0.095,-0.268,17.761,-13.123,42.969
-0.288,0.095,-0.207,30.457,17.09,30.151
-0.168,0.098,-0.118,41.199,37.842,17.029
-0.048,0.054,-0.054,51.147,48.096,5.249
0.078,0.006,0.021,58.96,50.415,-6.226
0.179,-0.059,0.062,64.941,46.143,-18.433
0.331,-0.102,0.175,67.871,38.208,-30.029
0.459,-0.185,0.203,70.007,25.208,-39.856
0.595,-0.225,0.283,68.848,10.803,-47.241
0.711,-0.279,0.321,66.406,-5.798,-51.27
0.767,-0.297,0.354,61.768,-21.057,-52.368
0.811,-0.307,0.371,56.641,-34.363,-49.622
0.852,-0.299,0.39,50.964,-43.274,-45.41
0.865,-0.269,0.404,46.753,-47.852,-41.87
0.832,-0.238,0.401,45.288,-48.218,-40.161
0.804,-0.21,0.399,45.471,-42.725,-39.734
0.815,-0.191,0.413,46.936,-32.41,-39.612
0.824,-0.173,0.431,49.805,-20.02,-40.71
0.842,-0.167,0.455,52.917,-7.629,-41.504
0.895,-0.173,0.489,55.603,2.747,-40.71
0.957,-0.176,0.529,57.983,8.24,-39.368
0.989,-0.175,0.567,58.899,6.714,-38.269
1.003,-0.176,0.595,59.57,-1.282,-37.415
1.004,-0.185,0.613,60.547,-12.878,-37.781
0.976,-0.188,0.626,61.523,-25.513,-39.978
0.938,-0.192,0.634,62.378,-35.217,-42.175
0.909,-0.205,0.635,62.561,-40.1,-42.175
0.881,-0.218,0.639,60.974,-40.283,-39.49
0.858,-0.223,0.646,57.617,-36.377,-36.743
0.838,-0.225,0.659,53.65,-29.297,-34.302
0.836,-0.226,0.673,49.316,-20.386,-32.166
0.846,-0.211,0.693,46.021,-11.841,-31.494
0.873,-0.213,0.711,44.189,-5.493,-32.104
0.897,-0.218,0.728,42.236,-2.808,-32.288
0.901,-0.219,0.736,40.039,-4.211,-32.104
0.885,-0.22,0.734,37.659,-8.057,-32.41
0.843,-0.224,0.717,35.095,-11.108,-32.898
0.814,-0.228,0.699,31.372,-11.414,-33.142
0.78,-0.234,0.676,28.259,-7.935,-33.875
0.75,-0.217,0.666,25.085,-0.427,-35.156
0.698,-0.214,0.636,23.132,10.437,-36.072
0.708,-0.231,0.627,22.156,25.635,-36.377
0.774,-0.245,0.652,21.423,41.992,-37.354
0.846,-0.255,0.677,20.325,54.199,-38.33
0.889,-0.253,0.703,17.761,59.265,-36.865
0.912,-0.264,0.697,13.428,58.716,-33.386
0.916,-0.264,0.687,8.972,56.213,-30.212
0.902,-0.262,0.665,4.761,53.894,-28.076
0.895,-0.254,0.651,0.916,52.246,-26.245
0.9,-0.247,0.635,-1.77,51.025,-24.78
0.911,-0.244,0.627,-3.235,49.561,-24.353
0.932,-0.238,0.624,-4.578,46.936,-23.682
0.952,-0.24,0.618,-4.517,42.358,-23.376
0.966,-0.237,0.615,-3.662,36.316,-23.132
0.987,-0.229,0.615,-2.258,29.541,-22.705
1.01,-0.23,0.61,0.61,22.278,-22.644
1.036,-0.24,0.609,4.639,14.404,-22.705
1.053,-0.241,0.617,7.263,5.981,-21.667
1.057,-0.252,0.614,9.644,-2.686,-19.775
1.052,-0.273,0.595,11.169,-10.254,-17.639
1.039,-0.277,0.584,11.78,-15.869,-15.991
1.031,-0.281,0.588,11.23,-18.616,-14.465
1.036,-0.29,0.59,10.559,-20.142,-11.597
1.035,-0.285,0.592,8.667,-21.729,-7.446
1.016,-0.267,0.599,6.47,-24.597,-2.869
0.986,-0.272,0.575,4.333,-29.114,2.563
0.94,-0.262,0.549,1.953,-33.691,7.874
0.884,-0.26,0.537,0.244,-37.292,11.047
0.833,-0.265,0.507,-1.343,-39.429,12.695
0.773,-0.264,0.477,-3.784,-40.039,13.672
0.732,-0.257,0.455,-6.897,-38.33,14.343
0.705,-0.25,0.446,-10.376,-35.217,14.771
0.687,-0.242,0.434,-13.611,-31.86,14.832
0.668,-0.249,0.421,-16.296,-28.809,14.709
0.66,-0.255,0.412,-19.409,-25.146,14.587
0.655,-0.251,0.414,-22.4,-21.362,14.099
0.653,-0.236,0.427,-25.085,-17.212,13.184
0.662,-0.233,0.425,-26.428,-12.939,11.536
0.684,-0.247,0.421,-25.94,-8.972,9.705
0.712,-0.255,0.43,-24.597,-5.859,7.996
0.757,-0.263,0.45,-23.132,-3.296,6.409
0.81,-0.275,0.474,-20.447,-2.075,4.639
0.856,-0.303,0.489,-16.052,-2.441,2.258
0.895,-0.328,0.511,-11.78,-3.601,-0.305
0.932,-0.351,0.534,-8.057,-5.371,-2.014
0.959,-0.373,0.546,-5.371,-7.69,-2.563
0.974,-0.383,0.547,-4.944,-10.01,-2.38
0.972,-0.378,0.548,-5.371,-11.902,-2.075
0.943,-0.367,0.531,-6.042,-12.939,-1.709
0.897,-0.352,0.506,-7.446,-12.146,-1.038
0.851,-0.32,0.491,-9.155,-9.277,-0.427
0.807,-0.294,0.466,-10.437,-4.517,0.366
0.769,-0.274,0.445,-11.047,1.282,1.465
0.744,-0.256,0.437,-11.23,7.202,2.258
0.733,-0.246,0.432,-10.193,11.963,2.686
0.722,-0.241,0.424,-8.301,14.526,3.113
0.715,-0.234,0.422,-6.653,14.771,3.479
3.605,-2.481,4.0,-119.263,-213.623,17.761
1.709,-1.237,4.0,-342.59,-213.501,85.327
-0.756,-0.6,1.915,-368.53,-122.742,126.221
-0.756,0.313,1.469,-361.938,-12.329,154.724
-0.037,0.073,0.542,-278.137,60.486,134.644
-0.107,0.315,0.486,-192.871,101.99,73.303
0.123,0.016,0.209,-129.944,116.15,36.072
0.025,-0.137,-0.183,-98.816,101.746,15.381
0.164,-0.36,-0.357,-104.492,76.416,10.62
0.04,-0.238,-0.248,-127.075,53.589,9.705
0.041,-0.167,-0.387,-138.672,27.71,21.912
-0.102,-0.19,-0.505,-145.691,7.874,36.194
-0.148,-0.045,-0.428,-151.245,-5.615,52.124
-0.199,-0.189,-0.656,-151.367,-17.273,67.932
-0.32,0.014,-0.457,-150.696,-11.658,66.345
-0.31,0.062,-0.564,-141.235,-13.611,65.735
-0.332,0.093,-0.57,-123.474,-12.146,61.157
-0.352,0.306,-0.455,-104.431,-7.202,48.706
-0.316,0.347,-0.448,-70.679,-8.545,38.696
-0.296,0.387,-0.407,-31.555,-8.179,25.696
-0.278,0.418,-0.314,10.071,-7.141,8.85
-0.23,0.361,-0.206,54.565,-5.92,-7.874
-0.127,0.257,-0.06,97.656,-5.005,-23.865
-0.006,0.141,0.084,133.972,-6.287,-37.537
0.073,0.007,0.222,163.452,-11.169,-47.302
0.153,-0.131,0.364,183.533,-17.273,-49.866
0.231,-0.243,0.517,191.65,-22.278,-43.701
0.263,-0.345,0.667,188.477,-24.17,-30.945
0.258,-0.444,0.773,175.537,-22.156,-15.137
0.236,-0.503,0.861,154.724,-16.296,-2.563
0.227,-0.52,0.945,130.31,-5.981,0.854
0.238,-0.507,1.013,105.896,9.338,-5.127
0.254,-0.45,1.058,85.205,27.954,-16.663
0.313,-0.36,1.091,69.214,46.997,-26.611
0.409,-0.288,1.114,59.143,63.354,-31.799
0.506,-0.255,1.142,55.298,74.585,-33.63
0.586,-0.25,1.153,54.993,78.796,-33.386
0.661,-0.247,1.183,55.542,77.026,-31.86
0.717,-0.257,1.202,56.824,69.702,-30.518
0.689,-0.284,1.176,57.922,59.082,-30.579
0.704,-0.246,1.236,56.58,50.72,-31.006
0.833,-0.238,1.305,56.396,40.405,-28.32
0.804,-0.342,1.199,57.922,23.865,-24.841
0.704,-0.26,1.217,54.016,11.902,-25.574
0.631,-0.242,1.172,51.208,3.54,-24.841
0.557,-0.247,1.104,51.025,2.686,-24.292
0.57,-0.218,1.126,49.866,6.348,-24.17
0.584,-0.242,1.083,49.377,6.592,-21.851
0.555,-0.225,1.098,47.241,4.333,-19.287
0.527,-0.222,1.078,44.861,-0.732,-15.991
0.483,-0.227,1.06,43.579,-6.104,-14.099
0.436,-0.222,1.038,42.236,-10.803,-13.489
0.377,-0.229,1.007,40.039,-14.343,-12.756
0.342,-0.233,0.99,37.231,-15.259,-11.841
0.31,-0.236,0.971,34.424,-13.733,-11.963
0.284,-0.236,0.945,31.311,-10.925,-13.306
0.269,-0.24,0.922,28.198,-7.202,-15.381
0.278,-0.236,0.906,25.146,-2.136,-17.761
0.288,-0.23,0.886,21.729,3.235,-19.958
0.305,-0.229,0.869,19.165,7.996,-21.545
0.331,-0.227,0.864,16.968,12.451,-22.522
0.354,-0.227,0.863,15.625,16.113,-23.132
0.371,-0.229,0.861,15.747,18.677,-23.376
0.389,-0.239,0.854,16.174,20.325,-23.254
0.399,-0.255,0.843,15.564,21.179,-23.132
0.413,-0.267,0.84,14.404,21.606,-23.132
0.419,-0.278,0.831,13.489,21.118,-22.827
0.417,-0.288,0.811,11.902,20.63,-22.4
0.41,-0.295,0.787,10.071,20.508,-21.545
0.404,-0.294,0.765,7.629,21.301,-21.057
0.411,-0.285,0.752,5.493,22.949,-21.423
0.418,-0.276,0.741,5.005,24.719,-22.827
0.434,-0.273,0.735,5.981,26.367,-23.987
0.468,-0.272,0.736,7.568,27.466,-23.926
0.508,-0.275,0.754,10.254,26.855,-23.56
0.547,-0.282,0.774,13.977,23.865,-23.315
0.565,-0.302,0.78,17.639,19.104,-22.278
0.568,-0.321,0.782,19.775,13.855,-19.714
0.572,-0.335,0.791,20.02,9.216,-16.113
0.558,-0.346,0.787,19.47,5.371,-13.184
0.535,-0.352,0.776,18.494,2.808,-11.536
0.526,-0.356,0.769,17.029,1.648,-10.132
0.512,-0.351,0.755,15.198,0.671,-9.338
0.504,-0.344,0.738,14.16,-0.061,-8.423
0.512,-0.342,0.736,14.465,0.122,-7.202
0.528,-0.348,0.751,16.724,-0.061,-6.287
0.532,-0.356,0.761,20.752,-0.183,-5.432
0.531,-0.379,0.765,24.841,-0.305,-4.211
0.532,-0.408,0.771,28.564,-0.061,-2.563
0.538,-0.426,0.787,31.006,1.099,-0.671
0.547,-0.441,0.808,33.02,2.319,-0.061
0.559,-0.454,0.829,34.79,3.54,-0.549
0.567,-0.458,0.851,36.133,4.456,-1.892
0.574,-0.444,0.88,36.56,4.7,-2.93
0.591,-0.437,0.886,37.048,3.845,-3.235
0.593,-0.447,0.883,37.537,2.136,-2.93
0.592,-0.456,0.888,36.072,0.122,-1.709
0.585,-0.457,0.891,33.02,-1.892,-0.183
0.566,-0.457,0.882,28.809,-3.784,1.038
0.553,-0.455,0.867,22.827,-4.822,2.808
0.531,-0.451,0.845,16.418,-5.249,4.761
0.509,-0.439,0.828,9.399,-4.761,6.287
0.492,-0.424,0.803,2.93,-3.601,7.629
0.478,-0.405,0.782,-2.808,-2.136,8.667
0.473,-0.39,0.765,-6.531,-1.221,9.46
0.471,-0.388,0.749,-9.155,-0.977,10.01
0.465,-0.391,0.737,-10.193,-1.465,10.559
0.46,-0.388,0.733,-10.864,-2.625,10.986
0.452,-0.389,0.724,-10.315,-3.967,10.986
0.447,-0.396,0.721,-8.911,-4.944,10.803
0.444,-0.406,0.723,-6.836,-5.432,10.315
0.44,-0.415,0.725,-4.944,-5.249,9.216
0.443,-0.427,0.732,-3.296,-4.089,7.629
0.456,-0.441,0.745,-1.465,-1.953,6.104
0.472,-0.45,0.764,0.061,0.366,4.639
0.494,-0.464,0.783,1.587,2.136,3.235
0.526,-0.475,0.81,3.845,3.052,2.563
0.557,-0.485,0.834,5.676,2.563,2.625
0.569,-0.492,0.854,7.202,0.488,2.991
1.742,-2.248,4.0,47.791,-22.766,-57.983
2.563,-2.052,4.0,-131.531,67.81,-33.813
1.203,-0.442,3.723,-301.636,110.84,92.834
1.061,-0.358,2.567,-306.824,136.353,106.14
0.695,-0.329,1.03,-237.793,100.037,88.196
0.55,-0.292,0.435,-191.589,73.669,71.472
0.564,-0.283,0.181,-173.95,58.472,58.838
0.434,-0.336,-0.042,-165.039,22.766,45.715
0.162,-0.329,-0.42,-160.583,-8.667,39.673
0.216,-0.317,-0.267,-156.372,-11.414,39.063
0.237,-0.195,-0.011,-152.71,-21.606,37.537
-0.096,-0.226,-0.614,-142.151,-57.617,39.856
0.027,-0.268,-0.391,-137.756,-57.983,48.584
-0.032,-0.2,-0.375,-136.047,-59.265,49.5
-0.199,-0.191,-0.482,-125.671,-60.669,51.575
-0.218,-0.123,-0.448,-117.432,-52.856,54.016
-0.259,-0.011,-0.429,-105.957,-40.588,52.795
-0.335,0.05,-0.438,-86.548,-24.963,49.988
-0.277,0.125,-0.327,-64.941,-7.385,47.119
-0.178,0.162,-0.247,-39.429,4.456,42.48
-0.135,0.158,-0.175,-12.451,9.277,36.621
-0.093,0.157,-0.08,10.376,9.216,30.273
-0.034,0.163,0.023,31.189,5.554,24.902
0.005,0.145,0.098,52.124,-1.282,19.531
0.017,0.113,0.164,70.374,-8.972,14.709
0.042,0.08,0.265,84.778,-15.015,10.803
0.078,0.014,0.353,97.412,-20.996,7.202
0.123,-0.054,0.453,108.215,-25.208,2.747
0.175,-0.135,0.575,116.638,-26.123,-1.648
0.243,-0.209,0.718,123.962,-24.353,-4.944
0.305,-0.276,0.864,129.639,-21.484,-6.287
0.353,-0.343,0.962,130.981,-19.958,-4.272
0.38,-0.425,1.019,126.709,-18.188,-0.549
0.371,-0.477,1.06,116.394,-14.16,1.709
0.35,-0.487,1.084,101.074,-8.057,-0.061
0.33,-0.462,1.089,84.106,0.061,-4.028
0.326,-0.427,1.089,67.444,9.46,-9.155
0.315,-0.379,1.058,53.345,19.226,-14.526
0.277,-0.329,1.013,42.664,28.809,-18.677
0.329,-0.24,1.04,35.522,38.818,-20.325
0.44,-0.232,1.048,33.264,42.664,-18.188
0.444,-0.267,0.994,33.936,37.109,-15.869
0.466,-0.247,1.009,33.691,29.419,-14.832
0.444,-0.243,0.994,34.79,18.616,-14.343
0.414,-0.238,1.0,36.499,6.592,-14.16
0.42,-0.257,0.974,37.048,-5.127,-12.878
0.357,-0.268,0.944,36.56,-14.221,-12.512
0.29,-0.265,0.918,35.095,-18.311,-12.024
0.239,-0.256,0.912,33.997,-16.113,-12.695
0.231,-0.256,0.91,33.813,-9.766,-14.404
0.242,-0.261,0.906,34.546,-2.258,-16.174
0.269,-0.263,0.926,34.18,4.639,-17.273
0.314,-0.272,0.942,33.447,9.033,-18.25
0.33,-0.278,0.936,32.837,9.521,-19.287
0.321,-0.268,0.927,31.494,8.362,-20.142
0.296,-0.251,0.909,30.518,7.385,-20.996
0.293,-0.242,0.903,30.273,7.812,-21.545
0.316,-0.243,0.91,29.602,8.423,-21.423
0.347,-0.257,0.909,28.748,7.324,-20.935
0.346,-0.257,0.902,26.978,4.822,-21.179
0.333,-0.247,0.891,24.597,2.38,-21.729
0.326,-0.239,0.88,22.278,1.038,-22.034
0.332,-0.232,0.869,20.935,0.793,-22.339
0.339,-0.227,0.857,19.836,1.648,-22.095
0.349,-0.222,0.854,19.531,3.54,-21.851
0.358,-0.219,0.854,20.325,6.287,-21.362
0.375,-0.226,0.854,21.057,9.338,-20.142
0.395,-0.234,0.859,21.484,12.634,-18.738
0.422,-0.244,0.87,21.606,15.442,-17.212
0.449,-0.256,0.882,21.118,16.968,-15.747
0.473,-0.266,0.893,21.179,16.296,-14.282
0.489,-0.273,0.903,21.667,14.404,-12.207
0.491,-0.286,0.908,23.193,12.024,-9.766
0.507,-0.307,0.924,25.696,9.46,-7.446
0.53,-0.332,0.947,28.931,6.775,-6.165
0.54,-0.345,0.966,32.715,4.028,-5.92
0.541,-0.35,0.975,36.743,1.221,-5.676
0.551,-0.362,0.992,40.405,-0.671,-4.822
0.572,-0.38,1.011,43.091,-2.014,-3.54
0.571,-0.399,1.018,44.8,-3.54,-2.625
0.56,-0.416,1.023,44.006,-4.517,-0.671
0.553,-0.426,1.022,40.344,-4.883,2.319
0.535,-0.434,1.002,34.302,-5.493,5.859
0.506,-0.441,0.968,25.574,-6.348,9.521
0.469,-0.438,0.912,14.832,-6.592,12.573
0.428,-0.407,0.859,4.028,-5.554,14.832
0.384,-0.365,0.804,-5.676,-3.418,15.93
0.344,-0.324,0.743,-12.207,0.549,16.052
0.318,-0.281,0.7,-15.503,7.019,15.808
0.319,-0.248,0.671,-15.625,14.587,15.991
0.333,-0.239,0.645,-13.306,21.606,16.418
0.385,-0.241,0.663,-10.071,27.649,16.663
0.411,-0.258,0.672,-6.226,30.151,15.808
0.438,-0.259,0.702,-2.991,30.09,14.221
0.494,-0.282,0.736,0.122,27.527,13.55
0.533,-0.3,0.785,2.869,22.217,12.695
0.605,-0.325,0.856,5.737,13.184,12.878
0.636,-0.363,0.901,9.338,0.061,13.0
0.625,-0.396,0.93,12.634,-13.123,13.245
0.572,-0.415,0.94,15.259,-23.926,13.428
0.509,-0.431,0.946,17.273,-28.931,13.245
0.468,-0.451,0.945,18.066,-27.527,12.085
0.435,-0.465,0.933,16.968,-21.667,10.315
0.411,-0.469,0.924,13.367,-13.0,8.667
0.399,-0.457,0.906,7.08,-3.54,7.69
0.394,-0.432,0.882,0.854,5.188,6.653
0.389,-0.4,0.845,-5.432,12.085,5.615
0.381,-0.367,0.806,-10.62,16.785,4.822
0.379,-0.337,0.766,-14.526,18.982,4.211
0.383,-0.315,0.736,-17.273,18.799,4.089
0.384,-0.291,0.714,-18.86,16.113,4.211
0.379,-0.272,0.699,-18.188,11.353,4.211
0.374,-0.26,0.691,-15.869,5.554,3.906
0.36,-0.254,0.688,-12.329,0.244,2.93
0.349,-0.255,0.693,-7.629,-3.784,1.77
0.344,-0.267,0.712,-2.991,-5.676,0.549
0.344,-0.291,0.73,1.221,-5.493,-0.793
0.351,-0.32,0.754,5.066,-3.723,-2.38
0.368,-0.347,0.787,6.897,-0.61,-3.479
1.925,-2.433,4.0,-123.962,226.013,-59.143
2.648,-0.706,4.0,-303.65,282.104,58.105
1.744,-0.216,3.326,-347.29,203.735,67.749
1.129,-0.21,1.687,-280.64,111.816,37.354
1.069,-0.368,1.024,-222.961,55.176,37.537
0.859,-0.355,0.447,-198.669,-4.639,24.292
0.52,-0.182,0.101,-175.476,-52.124,6.836
0.439,-0.244,-0.057,-162.231,-80.627,9.277
0.26,-0.274,-0.29,-142.517,-93.811,13.672
0.081,-0.182,-0.332,-130.432,-93.567,20.752
0.088,-0.193,-0.336,-121.094,-92.896,32.41
-0.067,-0.258,-0.458,-110.229,-88.257,39.246
-0.13,-0.269,-0.428,-106.14,-70.007,45.471
-0.151,-0.254,-0.427,-104.126,-52.307,48.157
-0.184,-0.204,-0.424,-101.074,-35.767,46.631
-0.19,-0.141,-0.398,-97.778,-19.653,43.152
-0.192,-0.055,-0.376,-92.041,-5.615,38.269
-0.173,0.034,-0.338,-81.604,5.676,33.264
-0.126,0.114,-0.279,-66.528,13.733,28.992
-0.075,0.181,-0.211,-46.082,17.212,24.963
-0.029,0.224,-0.138,-23.132,16.174,21.484
0.011,0.231,-0.062,0.977,10.864,18.738
0.041,0.222,0.01,24.658,1.892,16.296
0.061,0.21,0.086,46.509,-8.911,13.855
0.05,0.182,0.137,66.467,-20.264,11.047
0.019,0.129,0.168,84.839,-28.137,7.324
0.058,0.082,0.374,101.563,-29.358,1.77
0.188,0.016,0.516,119.995,-33.264,-4.7
0.231,-0.117,0.585,138.55,-39.185,-10.62
0.243,-0.233,0.705,148.437,-39.063,-13.794
0.305,-0.305,0.857,151.306,-35.4,-13.0
0.351,-0.383,0.935,150.024,-33.081,-9.583
0.354,-0.462,0.974,143.25,-28.687,-6.836
0.353,-0.503,1.023,130.554,-18.86,-7.324
0.363,-0.506,1.062,113.77,-6.47,-9.277
0.379,-0.486,1.073,94.238,6.042,-10.742
0.393,-0.451,1.056,74.036,18.494,-10.986
0.442,-0.39,1.066,55.115,30.212,-10.925
0.487,-0.317,1.059,41.809,37.17,-10.986
0.527,-0.271,1.053,34.912,37.842,-10.925
0.541,-0.23,1.047,32.898,33.447,-10.376
0.537,-0.204,1.039,34.607,25.085,-8.545
0.509,-0.202,1.017,38.879,14.709,-5.676
0.459,-0.206,0.993,42.908,5.493,-3.479
0.394,-0.215,0.965,45.044,-1.465,-2.258
0.341,-0.218,0.948,45.288,-4.7,-1.343
0.304,-0.21,0.947,45.105,-5.005,-1.892
0.272,-0.208,0.937,45.776,-2.808,-3.357
0.256,-0.213,0.935,46.936,1.038,-5.371
0.259,-0.224,0.939,47.668,5.432,-7.568
0.268,-0.239,0.948,47.546,9.216,-9.155
0.281,-0.253,0.953,45.898,11.23,-10.071
0.299,-0.261,0.962,44.006,10.986,-11.292
0.318,-0.265,0.971,41.382,10.01,-13.184
0.329,-0.274,0.962,39.246,7.263,-14.893
0.326,-0.278,0.949,36.682,3.845,-15.686
0.319,-0.277,0.933,34.18,1.404,-16.235
0.299,-0.275,0.91,32.166,0.977,-17.09
0.277,-0.271,0.884,30.823,3.296,-17.883
0.273,-0.264,0.872,29.602,8.484,-18.433
0.285,-0.262,0.872,29.358,15.015,-19.104
0.314,-0.268,0.877,30.029,20.63,-20.081
0.346,-0.28,0.884,30.151,24.17,-20.813
0.361,-0.285,0.886,30.09,25.208,-21.851
0.392,-0.281,0.896,29.541,24.109,-22.705
0.423,-0.289,0.896,28.625,20.691,-22.583
0.432,-0.293,0.894,27.527,15.869,-21.79
0.427,-0.291,0.887,26.001,10.986,-20.142
0.427,-0.297,0.882,24.719,7.08,-18.127
0.427,-0.304,0.877,23.56,4.272,-16.296
0.425,-0.3,0.872,22.461,2.502,-14.648
0.422,-0.304,0.858,22.156,1.892,-13.123
0.418,-0.312,0.848,22.888,1.77,-12.024
0.416,-0.328,0.847,24.231,2.991,-10.864
0.428,-0.35,0.856,25.391,4.822,-9.521
0.443,-0.377,0.865,26.978,6.287,-8.667
0.459,-0.394,0.881,28.015,6.531,-8.118
0.488,-0.394,0.914,30.334,6.042,-8.118
0.521,-0.392,0.958,34.424,4.456,-8.667
0.544,-0.404,0.986,40.222,1.343,-9.583
0.567,-0.429,1.007,44.8,-2.258,-9.705
0.59,-0.447,1.034,46.997,-5.859,-7.935
0.586,-0.463,1.045,45.349,-9.521,-4.211
0.557,-0.476,1.024,40.283,-13.123,0.061
0.518,-0.485,0.995,32.166,-15.076,4.456
0.476,-0.486,0.951,21.362,-14.038,7.324
0.437,-0.471,0.9,9.155,-10.62,9.155
0.409,-0.437,0.848,-2.319,-5.92,10.01
0.391,-0.403,0.801,-12.085,-0.732,10.559
0.381,-0.371,0.764,-17.578,4.272,10.437
0.379,-0.345,0.73,-19.043,8.545,10.559
0.378,-0.336,0.709,-17.334,11.047,10.681
0.384,-0.337,0.702,-13.855,12.451,10.742
0.393,-0.349,0.708,-8.728,12.695,10.498
0.408,-0.369,0.722,-2.808,12.268,9.644
0.432,-0.396,0.739,2.441,10.437,8.545
0.459,-0.431,0.755,6.47,7.874,7.446
0.478,-0.454,0.786,8.606,5.005,6.348
0.499,-0.482,0.816,9.521,1.465,5.554
0.514,-0.501,0.845,9.338,-2.014,5.249
0.516,-0.512,0.867,7.751,-5.005,5.127
0.507,-0.517,0.878,6.226,-6.897,4.333
0.5,-0.511,0.886,4.639,-7.263,3.662
0.489,-0.501,0.882,3.601,-6.226,3.54
0.478,-0.487,0.866,2.991,-3.967,3.54
0.464,-0.475,0.848,2.136,-0.61,4.456
0.452,-0.457,0.828,0.427,3.479,5.432
0.447,-0.437,0.808,-0.793,7.385,6.104
0.44,-0.414,0.786,-1.465,10.193,7.019
0.432,-0.392,0.757,-2.563,12.146,8.118
0.42,-0.372,0.729,-3.052,13.123,9.216
0.409,-0.352,0.707,-4.028,13.367,10.62
0.398,-0.332,0.689,-4.761,12.878,11.841
0.395,-0.316,0.674,-4.7,11.719,12.268
0.397,-0.302,0.67,-3.906,9.705,12.39
0.4,-0.295,0.669,-2.075,6.775,11.963
0.401,-0.294,0.669,0.305,3.357,11.169
0.396,-0.295,0.676,2.93,0.427,10.315
0.393,-0.298,0.686,6.104,-1.221,9.277
3.831,-2.903,4.0,82.581,46.143,-89.417
3.863,-2.075,4.0,-167.114,35.522,-34.851
1.059,0.208,3.999,-357.91,85.388,96.802
0.786,-0.368,2.08,-327.271,116.272,95.581
0.655,-0.785,0.624,-222.961,132.568,64.209
0.767,-0.533,0.34,-181.03,118.591,13.245
0.169,-0.461,-0.223,-196.96,73.486,10.376
0.406,-0.681,-0.005,-204.285,54.626,28.442
0.381,-0.378,-0.215,-203.857,17.212,29.297
0.081,-0.376,-0.516,-195.435,-12.451,41.504
0.072,-0.369,-0.39,-195.374,-14.648,59.692
0.088,-0.273,-0.334,-190.186,-18.921,73.486
0.056,-0.328,-0.414,-176.697,-24.292,83.313
-0.101,-0.298,-0.486,-167.48,-23.743,86.731
-0.109,-0.233,-0.417,-160.767,-18.738,88.928
-0.097,-0.18,-0.419,-148.804,-16.663,87.463
-0.197,-0.116,-0.461,-134.583,-15.991,82.825
-0.204,-0.013,-0.414,-120.728,-13.245,78.43
-0.201,0.077,-0.388,-101.196,-12.085,73.669
-0.209,0.145,-0.359,-77.209,-13.062,68.42
-0.173,0.208,-0.305,-51.27,-15.686,63.049
-0.143,0.257,-0.248,-22.644,-20.447,56.091
-0.132,0.265,-0.198,6.958,-26.611,47.668
-0.141,0.241,-0.158,35.583,-33.203,38.452
-0.123,0.177,-0.086,61.279,-37.354,28.564
-0.191,0.156,0.0,84.534,-37.659,16.785
-0.11,0.124,0.149,105.713,-37.048,6.897
-0.064,0.018,0.194,127.625,-39.368,-0.854
-0.055,-0.059,0.295,143.25,-36.865,-6.897
-0.036,-0.129,0.427,154.663,-28.87,-11.108
0.022,-0.211,0.568,162.781,-15.564,-12.146
0.139,-0.296,0.707,166.565,-1.221,-10.559
0.261,-0.388,0.81,163.757,10.681,-8.362
0.346,-0.445,0.902,155.457,19.226,-7.751
0.41,-0.457,0.984,141.785,24.597,-9.094
0.454,-0.433,1.037,125.244,27.1,-10.925
0.472,-0.4,1.045,107.666,26.917,-12.39
0.487,-0.338,1.057,91.064,26.489,-13.916
0.492,-0.278,1.041,78.003,25.33,-15.625
0.505,-0.229,1.037,68.97,23.926,-17.334
0.51,-0.193,1.027,64.453,21.606,-19.165
0.505,-0.169,1.006,63.477,17.395,-20.508
0.516,-0.164,1.02,64.148,12.268,-20.691
0.508,-0.153,1.012,66.345,5.249,-19.958
0.495,-0.161,1.012,69.824,-3.174,-18.921
0.448,-0.175,0.997,72.754,-10.132,-17.456
0.383,-0.182,0.982,74.219,-14.221,-15.991
0.342,-0.191,0.991,74.585,-14.465,-14.954
0.326,-0.208,0.991,74.402,-12.329,-14.709
0.285,-0.231,0.964,73.547,-8.423,-16.235
0.255,-0.232,0.96,70.801,-1.953,-19.165
0.267,-0.23,0.964,67.078,5.249,-22.4
0.292,-0.235,0.956,64.331,11.414,-25.33
0.307,-0.236,0.947,61.768,16.418,-28.015
0.326,-0.241,0.941,59.631,20.325,-30.273
0.361,-0.254,0.942,57.8,23.499,-31.677
0.382,-0.258,0.928,55.786,25.513,-32.471
0.4,-0.251,0.916,52.673,26.978,-32.227
0.416,-0.243,0.893,49.255,28.015,-31.25
0.444,-0.233,0.885,46.326,28.625,-30.518
0.463,-0.22,0.879,44.312,28.687,-29.785
0.471,-0.216,0.859,43.213,27.893,-28.015
0.471,-0.225,0.843,42.114,27.832,-24.597
0.487,-0.224,0.853,40.344,28.015,-20.874
0.509,-0.256,0.854,39.734,26.062,-17.822
0.52,-0.285,0.851,39.551,22.461,-15.93
0.504,-0.305,0.855,39.856,17.944,-15.32
0.526,-0.311,0.894,41.748,13.306,-15.259
0.558,-0.326,0.939,47.424,7.507,-15.991
0.569,-0.358,0.978,55.786,1.343,-16.357
0.574,-0.406,1.004,64.331,-4.333,-15.015
0.573,-0.446,1.042,71.35,-8.362,-12.268
0.576,-0.482,1.08,75.256,-10.376,-8.85
0.574,-0.512,1.103,75.806,-11.414,-5.432
0.571,-0.539,1.121,72.266,-11.108,-3.296
0.586,-0.553,1.142,65.857,-9.766,-2.686
0.588,-0.56,1.137,57.19,-9.094,-2.502
0.579,-0.555,1.116,46.814,-9.033,-1.465
0.57,-0.545,1.083,35.034,-9.094,0.977
0.555,-0.524,1.039,22.827,-9.155,3.967
0.528,-0.496,0.991,11.658,-9.399,7.263
0.499,-0.463,0.937,2.38,-9.521,10.193
0.473,-0.43,0.887,-4.517,-9.766,12.085
0.453,-0.406,0.839,-9.216,-9.644,13.184
0.439,-0.388,0.804,-12.207,-9.705,14.343
0.423,-0.373,0.772,-13.428,-9.949,15.503
0.412,-0.363,0.746,-13.062,-10.376,16.846
0.405,-0.362,0.726,-11.963,-10.864,17.7
0.404,-0.365,0.721,-9.827,-10.986,17.456
0.409,-0.374,0.726,-7.08,-11.414,16.235
0.414,-0.388,0.737,-4.517,-12.573,14.465
0.416,-0.408,0.746,-2.075,-13.367,13.184
0.423,-0.43,0.76,-0.366,-13.733,12.085
0.428,-0.451,0.775,0.977,-13.428,10.559
0.444,-0.466,0.798,2.136,-12.451,8.85
0.462,-0.478,0.821,3.479,-11.292,7.202
0.472,-0.49,0.84,5.493,-10.315,5.859
0.471,-0.497,0.851,7.812,-8.972,4.211
0.461,-0.503,0.853,9.399,-6.47,3.052
0.452,-0.501,0.85,10.254,-2.747,2.014
0.448,-0.491,0.846,9.766,2.136,1.038
0.455,-0.482,0.841,8.301,7.08,0.61
0.471,-0.471,0.826,5.981,10.437,0.427
0.482,-0.452,0.812,2.563,11.902,0.427
0.473,-0.425,0.786,-1.648,11.658,0.732
0.463,-0.401,0.766,-5.005,9.216,1.343
0.457,-0.381,0.743,-7.324,5.554,1.587
0.442,-0.358,0.722,-9.46,0.549,0.854
0.42,-0.339,0.702,-10.559,-4.456,0.0
0.394,-0.327,0.682,-10.132,-8.911,-0.793
0.368,-0.319,0.666,-8.362,-10.986,-1.465
0.352,-0.321,0.653,-5.31,-10.62,-2.014
0.344,-0.328,0.651,-2.075,-7.996,-2.686
0.357,-0.347,0.67,1.648,-3.784,-3.296
0.381,-0.376,0.694,5.249,0.427,-4.456
0.412,-0.407,0.722,7.935,3.235,-5.798
0.444,-0.435,0.748,9.094,4.639,-6.47
0.467,-0.461,0.77,8.972,3.967,-6.775
0.49,-0.484,0.792,8.118,2.014,-6.714
-0.852,-1.595,4.0,16.479,-23.01,-30.884
0.967,-2.659,4.0,-104.309,206.177,-67.505
2.211,-0.605,3.933,-289.49,290.039,40.527
1.747,-0.68,3.146,-336.304,250.549,80.261
1.425,-0.479,2.212,-297.119,181.58,42.908
1.082,-0.528,1.184,-248.169,113.892,35.156
0.695,-0.349,0.475,-225.342,63.416,31.555
0.525,-0.333,0.318,-208.557,23.926,26.733
0.421,-0.286,0.132,-187.439,-4.211,21.057
0.433,-0.368,0.081,-165.1,-22.827,24.17
0.339,-0.364,-0.106,-153.992,-48.035,25.818
0.186,-0.267,-0.187,-148.804,-65.002,34.546
0.016,-0.197,-0.311,-142.761,-74.341,47.302
-0.1,-0.185,-0.306,-134.155,-70.313,59.265
-0.195,-0.217,-0.387,-123.901,-56.58,65.918
-0.233,-0.207,-0.32,-113.464,-35.217,65.369
-0.157,-0.142,-0.276,-104.919,-17.578,60.669
-0.124,-0.129,-0.298,-96.619,-8.179,56.885
-0.117,-0.059,-0.271,-89.783,-2.38,52.002
-0.125,0.02,-0.238,-81.604,-0.854,47.485
-0.124,0.074,-0.24,-69.58,-2.441,43.274
-0.153,0.145,-0.229,-55.664,-4.211,38.269
-0.148,0.236,-0.163,-40.527,-6.409,34.363
-0.089,0.251,-0.127,-22.278,-11.78,32.349
-0.082,0.239,-0.104,-2.258,-18.616,28.076
-0.108,0.241,-0.06,15.991,-25.513,20.752
-0.144,0.232,0.003,33.936,-29.541,12.512
-0.161,0.188,0.076,52.795,-28.381,3.845
-0.13,0.121,0.166,71.716,-21.606,-5.371
-0.063,0.051,0.292,90.576,-11.108,-16.785
0.021,-0.041,0.427,108.459,0.183,-28.931
0.12,-0.146,0.552,121.887,12.329,-37.17
0.237,-0.241,0.677,127.93,25.208,-39.001
0.353,-0.319,0.808,125.854,37.598,-34.729
0.449,-0.379,0.912,117.554,46.387,-28.076
0.514,-0.427,0.979,104.736,50.293,-22.156
0.561,-0.43,1.025,88.684,49.805,-19.409
0.598,-0.389,1.073,72.266,46.631,-20.325
0.605,-0.334,1.091,59.57,40.466,-23.01
0.608,-0.286,1.081,50.659,31.982,-24.719
0.608,-0.247,1.062,45.227,22.949,-23.865
0.599,-0.223,1.043,42.542,13.794,-21.667
0.586,-0.217,1.028,42.114,4.944,-19.409
0.557,-0.222,1.015,42.908,-2.747,-17.212
0.525,-0.23,1.0,43.518,-8.789,-15.076
0.488,-0.247,0.98,43.701,-13.0,-13.611
0.458,-0.266,0.97,43.213,-14.282,-13.855
0.42,-0.278,0.954,42.847,-13.367,-16.113
0.387,-0.278,0.941,42.053,-9.766,-18.982
0.376,-0.276,0.937,41.565,-3.357,-21.545
0.37,-0.276,0.932,41.809,4.883,-23.865
0.383,-0.285,0.929,41.87,13.245,-26.184
0.42,-0.285,0.943,40.649,19.836,-27.893
0.463,-0.277,0.96,39.551,22.949,-28.992
0.485,-0.27,0.962,38.513,21.973,-29.419
0.494,-0.259,0.959,37.476,17.944,-28.748
0.483,-0.251,0.932,35.95,11.597,-26.917
0.45,-0.247,0.894,33.264,5.188,-24.17
0.415,-0.237,0.86,30.396,1.343,-21.545
0.398,-0.23,0.847,28.625,0.366,-20.508
0.401,-0.231,0.845,28.198,1.831,-21.118
0.405,-0.239,0.843,29.602,4.089,-22.4
0.406,-0.248,0.833,30.579,6.714,-22.827
0.404,-0.257,0.824,30.64,9.705,-22.461
0.408,-0.264,0.828,30.396,13.245,-21.851
0.428,-0.273,0.836,30.029,15.991,-21.24
0.456,-0.29,0.839,28.625,16.602,-19.714
0.468,-0.303,0.844,26.978,14.709,-18.188
0.474,-0.311,0.847,25.513,11.475,-16.907
0.466,-0.322,0.833,24.475,6.775,-15.564
0.474,-0.317,0.841,23.437,2.502,-14.587
0.5,-0.302,0.87,24.841,-0.671,-14.954
0.508,-0.306,0.884,28.809,-3.052,-16.602
0.516,-0.322,0.895,33.813,-4.211,-16.968
0.528,-0.344,0.907,37.659,-3.723,-15.381
0.535,-0.372,0.906,39.368,-3.418,-13.062
0.537,-0.394,0.904,38.513,-3.235,-11.414
0.535,-0.4,0.899,35.278,-3.479,-9.521
0.524,-0.4,0.883,30.518,-3.54,-7.263
0.506,-0.387,0.855,25.635,-3.418,-5.127
0.492,-0.377,0.827,21.179,-3.113,-3.357
0.489,-0.365,0.817,17.639,-2.686,-2.258
0.49,-0.352,0.822,15.991,-2.441,-1.038
0.492,-0.35,0.827,16.602,-2.93,0.549
0.499,-0.357,0.841,17.944,-4.089,2.686
0.499,-0.378,0.846,19.958,-5.981,4.272
0.495,-0.395,0.851,21.24,-8.484,4.578
0.476,-0.409,0.85,21.973,-10.132,3.601
0.463,-0.42,0.845,21.545,-10.742,2.686
0.465,-0.431,0.847,20.203,-9.338,2.197
0.469,-0.443,0.85,18.25,-6.958,2.197
0.472,-0.454,0.857,16.357,-3.845,2.563
0.484,-0.464,0.865,14.709,-0.732,2.075
0.505,-0.473,0.872,13.611,0.916,0.793
0.526,-0.482,0.882,13.0,0.977,-0.977
0.543,-0.488,0.888,11.353,-0.61,-2.502
0.539,-0.49,0.879,9.583,-3.296,-3.479
0.521,-0.481,0.864,7.69,-5.493,-3.479
0.504,-0.47,0.848,6.226,-5.859,-3.052
0.493,-0.46,0.834,5.432,-4.272,-2.808
0.491,-0.451,0.825,5.554,-1.282,-2.808
0.498,-0.446,0.821,5.127,2.014,-2.93
0.502,-0.439,0.817,4.822,4.944,-2.808
0.507,-0.433,0.813,3.906,7.019,-2.075
0.51,-0.425,0.807,2.869,7.751,-0.366
0.512,-0.414,0.797,1.526,7.141,1.221
0.505,-0.401,0.78,0.854,5.676,2.136
0.492,-0.387,0.761,0.366,3.662,3.052
0.475,-0.376,0.744,0.671,2.319,4.089
0.463,-0.373,0.731,1.526,1.587,4.944
0.457,-0.375,0.729,2.808,1.648,5.676
0.464,-0.382,0.74,3.967,1.709,6.47
0.466,-0.391,0.745,5.005,0.549,6.531
0.464,-0.398,0.75,5.249,-1.465,6.165
0.458,-0.4,0.753,4.822,-3.784,5.92
0.444,-0.4,0.748,4.578,-5.554,5.859
0.427,-0.4,0.741,4.761,-5.92,5.554
0.414,-0.401,0.738,5.188,-4.761,5.066
0.412,-0.405,0.741,5.981,-2.258,4.15
-0.26,-0.821,4.0,303.894,6.531,-57.434
2.079,-2.973,4.0,348.083,85.938,-201.477
3.832,-3.531,4.0,160.034,50.11,-155.151
2.167,-2.323,3.93,-42.847,42.847,52.429
0.973,-0.893,1.853,-187.561,31.921,95.154
0.445,-0.396,0.66,-252.869,14.343,97.29
0.364,-0.581,0.263,-258.118,-14.526,106.75
-0.0,-0.51,-0.317,-241.638,-40.222,100.037
-0.21,-0.408,-0.54,-218.994,-34.729,81.787
-0.212,-0.362,-0.335,-184.143,-1.526,67.81
-0.161,-0.315,-0.31,-166.321,14.832,64.819
-0.067,-0.412,-0.471,-151.062,29.175,71.106
-0.015,-0.338,-0.492,-135.864,51.392,71.716
-0.024,-0.276,-0.367,-123.108,65.857,69.702
-0.094,-0.22,-0.347,-108.826,63.477,67.139
-0.13,-0.181,-0.327,-93.567,54.993,65.43
-0.086,-0.137,-0.21,-76.782,44.922,62.012
-0.006,-0.127,-0.162,-59.57,25.452,56.03
0.011,-0.113,-0.155,-42.725,3.357,46.875
-0.025,-0.078,-0.126,-26.978,-14.771,37.354
-0.047,-0.045,-0.07,-11.597,-30.212,29.236
-0.065,-0.021,-0.048,4.639,-43.945,21.545
-0.087,-0.003,-0.025,21.667,-52.795,14.954
-0.099,-0.014,0.022,38.635,-55.664,10.01
-0.117,-0.049,0.058,54.016,-54.321,5.432
-0.127,-0.092,0.102,66.65,-48.218,0.732
-0.073,-0.167,0.226,76.294,-38.208,-4.272
0.003,-0.208,0.305,82.031,-34.058,-11.353
0.071,-0.304,0.358,87.28,-32.41,-17.517
0.178,-0.403,0.467,93.506,-23.987,-26.489
0.281,-0.421,0.625,100.83,-19.653,-37.659
0.344,-0.444,0.709,107.666,-22.156,-41.382
0.393,-0.518,0.718,112.366,-25.94,-39.124
0.429,-0.589,0.814,116.028,-23.743,-37.537
0.424,-0.582,0.841,116.394,-22.888,-37.72
0.42,-0.565,0.852,114.38,-21.606,-35.95
0.416,-0.55,0.862,109.314,-17.029,-32.166
0.4,-0.546,0.83,102.417,-11.108,-27.405
0.403,-0.554,0.84,93.811,-1.77,-22.705
0.433,-0.557,0.852,84.839,7.141,-19.043
0.453,-0.548,0.848,75.867,12.451,-16.907
0.46,-0.544,0.852,66.04,15.747,-14.465
0.468,-0.538,0.856,56.213,15.93,-12.695
0.473,-0.524,0.857,47.791,12.451,-12.146
0.457,-0.501,0.856,40.955,6.592,-12.207
0.43,-0.487,0.85,37.537,-0.122,-12.268
0.386,-0.475,0.838,36.987,-5.493,-12.268
0.348,-0.464,0.832,38.818,-8.667,-12.268
0.337,-0.474,0.831,43.396,-9.521,-12.878
0.321,-0.492,0.823,49.438,-8.179,-14.16
0.305,-0.503,0.815,54.016,-4.761,-15.503
0.309,-0.518,0.815,56.702,-0.061,-16.785
0.338,-0.539,0.82,58.167,4.883,-17.944
0.37,-0.55,0.83,57.617,9.216,-19.287
0.394,-0.55,0.842,55.969,12.573,-20.691
0.393,-0.544,0.845,53.772,15.442,-21.057
0.385,-0.536,0.842,50.903,18.677,-19.592
0.402,-0.537,0.862,47.546,22.034,-17.212
0.446,-0.543,0.883,43.396,23.499,-14.832
0.461,-0.532,0.865,39.307,22.095,-13.367
0.44,-0.502,0.866,36.133,21.606,-12.024
0.422,-0.503,0.855,34.18,21.973,-9.705
0.413,-0.508,0.838,33.081,23.376,-7.446
0.432,-0.517,0.861,32.41,24.658,-5.859
0.471,-0.547,0.88,31.494,22.766,-4.822
0.496,-0.585,0.905,29.846,18.86,-4.272
0.525,-0.625,0.953,28.32,13.855,-4.272
0.559,-0.651,0.985,26.367,4.456,-4.456
0.554,-0.677,0.979,25.024,-7.385,-4.211
0.549,-0.717,0.985,25.269,-17.273,-3.54
0.535,-0.753,0.981,26.55,-24.78,-3.357
0.511,-0.778,0.975,28.198,-29.053,-3.357
0.507,-0.788,0.972,29.541,-29.419,-3.357
0.512,-0.786,0.972,30.151,-26.917,-3.723
0.52,-0.771,0.972,30.151,-22.278,-3.906
0.529,-0.755,0.963,27.832,-16.968,-3.601
0.53,-0.731,0.941,22.827,-12.634,-2.136
0.512,-0.701,0.901,15.076,-9.644,1.465
0.489,-0.662,0.848,5.066,-8.179,5.737
0.456,-0.625,0.786,-6.226,-7.141,10.315
0.418,-0.59,0.722,-17.09,-6.348,13.916
0.383,-0.554,0.662,-27.222,-5.432,16.296
0.361,-0.52,0.613,-35.522,-4.15,17.09
0.346,-0.491,0.581,-41.504,-2.991,16.907
0.336,-0.458,0.553,-44.373,-2.197,15.991
0.328,-0.431,0.533,-44.922,-1.648,14.954
0.32,-0.408,0.518,-42.725,-1.526,14.282
0.315,-0.393,0.512,-38.513,-1.465,14.587
0.318,-0.394,0.515,-33.142,-1.831,15.076
0.324,-0.401,0.524,-27.405,-2.747,15.076
0.326,-0.411,0.536,-22.095,-4.028,14.038
0.335,-0.434,0.559,-17.517,-4.639,12.39
0.348,-0.474,0.585,-13.489,-4.944,10.132
0.355,-0.51,0.61,-10.01,-5.127,7.141
0.375,-0.542,0.644,-6.47,-4.822,3.174
0.411,-0.585,0.687,-2.38,-4.089,-1.099
0.441,-0.624,0.725,2.136,-3.723,-4.395
0.458,-0.647,0.75,5.249,-4.089,-7.446
0.465,-0.661,0.761,7.019,-3.967,-9.033
0.46,-0.667,0.763,7.751,-2.991,-9.277
0.457,-0.665,0.763,6.836,-0.916,-8.606
0.456,-0.66,0.76,5.737,2.014,-7.935
0.456,-0.651,0.761,3.906,5.859,-7.324
0.454,-0.629,0.758,1.953,9.644,-6.897
0.45,-0.599,0.75,-0.305,12.573,-6.775
0.45,-0.573,0.74,-2.014,14.099,-6.47
0.445,-0.554,0.729,-2.686,14.771,-5.737
0.436,-0.532,0.711,-3.357,13.611,-5.31
0.426,-0.511,0.696,-4.822,11.597,-4.395
0.42,-0.501,0.687,-6.531,9.094,-3.784
0.416,-0.5,0.681,-8.118,5.432,-3.357
0.406,-0.5,0.675,-9.155,1.526,-3.296
0.39,-0.5,0.669,-9.888,-2.075,-3.235
0.367,-0.504,0.66,-8.911,-4.761,-3.235
0.351,-0.512,0.66,-7.629,-5.615,-3.357
0.341,-0.524,0.668,-5.676,-5.127,-3.662
0.351,-0.543,0.69,-2.869,-3.784,-4.578
0.37,-0.57,0.709,0.854,-2.014,-5.737
0.387,-0.601,0.732,3.784,-0.854,-6.958
1.706,-4.0,4.0,293.03,164.978,-197.266
4.0,-3.995,4.0,20.691,31.677,-183.472
2.272,-1.401,4.0,-175.415,52.185,83.252
0.551,-0.329,1.276,-277.1,36.377,74.097
-0.065,-0.866,0.755,-234.558,85.449,78.003
0.101,-0.944,0.619,-213.928,85.327,62.561
0.296,-0.626,0.062,-210.754,12.146,32.349
0.174,-0.373,-0.469,-199.097,-5.737,39.246
-0.181,-0.218,-0.59,-181.152,30.823,62.683
0.003,-0.783,0.012,-170.41,84.961,84.045
-0.235,-0.576,-0.524,-172.974,58.044,57.739
-0.1,-0.364,-0.428,-167.603,71.655,58.105
-0.001,-0.235,-0.322,-166.992,77.576,63.049
-0.061,-0.223,-0.403,-164.856,69.885,67.932
0.065,-0.234,-0.154,-163.025,64.697,74.341
-0.106,-0.085,-0.329,-166.199,39.246,77.332
-0.035,-0.094,-0.214,-162.659,27.771,84.045
-0.004,-0.08,-0.199,-156.067,13.977,80.811
-0.095,0.022,-0.203,-146.606,1.587,71.899
-0.094,0.104,-0.128,-134.583,-7.507,64.697
-0.03,0.128,-0.106,-119.141,-20.386,55.847
-0.037,0.174,-0.117,-98.877,-27.283,43.152
-0.089,0.221,-0.078,-75.256,-26.672,30.212
-0.08,0.23,-0.012,-50.049,-22.827,18.494
-0.05,0.222,-0.005,-25.024,-21.423,6.287
-0.041,0.19,0.019,0.366,-16.846,-4.15
-0.016,0.131,0.097,24.353,-9.46,-12.573
0.041,0.085,0.187,45.593,-2.869,-19.958
0.101,0.039,0.26,64.148,1.953,-25.94
0.145,-0.019,0.33,79.102,7.019,-29.114
0.203,-0.079,0.433,91.797,11.475,-30.884
0.283,-0.136,0.534,102.966,13.0,-32.166
0.345,-0.188,0.615,110.962,11.414,-32.654
0.372,-0.229,0.673,113.708,7.812,-31.311
0.382,-0.257,0.712,111.572,3.113,-28.748
0.398,-0.277,0.745,105.469,-1.099,-25.94
0.414,-0.291,0.772,97.473,-3.723,-23.987
0.412,-0.298,0.789,87.83,-4.578,-22.461
0.398,-0.289,0.801,76.599,-2.991,-21.179
0.392,-0.273,0.815,65.125,0.488,-20.02
0.407,-0.266,0.836,57.068,5.554,-19.409
0.433,-0.264,0.856,53.65,10.437,-19.592
0.434,-0.257,0.862,53.65,13.977,-19.836
0.428,-0.25,0.865,55.054,16.602,-19.775
0.435,-0.253,0.866,57.495,18.066,-18.677
0.435,-0.258,0.861,60.425,18.127,-17.334
0.425,-0.255,0.857,63.782,17.334,-15.686
0.412,-0.265,0.861,66.956,16.968,-13.611
0.381,-0.278,0.853,70.435,16.968,-11.719
0.339,-0.283,0.841,72.205,18.311,-10.254
0.335,-0.297,0.849,73.303,21.179,-8.728
0.366,-0.311,0.878,73.792,23.682,-7.874
0.407,-0.332,0.909,73.547,23.56,-8.24
0.414,-0.352,0.906,71.533,20.386,-9.827
0.397,-0.369,0.905,69.885,17.151,-12.451
0.39,-0.378,0.906,67.993,14.832,-15.32
0.398,-0.395,0.906,66.589,12.878,-18.25
0.391,-0.405,0.9,64.88,11.78,-21.301
0.389,-0.405,0.893,61.157,11.841,-23.987
0.409,-0.414,0.885,56.702,13.245,-25.94
0.425,-0.426,0.881,53.162,15.137,-27.527
0.446,-0.432,0.883,49.805,17.273,-29.053
0.47,-0.429,0.879,46.875,19.226,-30.701
0.475,-0.423,0.868,43.945,21.484,-32.104
0.482,-0.419,0.863,40.649,23.865,-32.41
0.501,-0.427,0.861,38.147,26.062,-31.372
0.506,-0.437,0.854,36.377,27.527,-29.602
0.499,-0.443,0.838,33.997,28.564,-27.649
0.493,-0.448,0.822,30.457,29.236,-25.94
0.499,-0.45,0.809,26.367,29.297,-24.841
0.501,-0.446,0.792,21.484,28.809,-24.17
0.489,-0.439,0.767,16.479,27.771,-23.254
0.468,-0.43,0.734,11.719,26.306,-22.095
0.453,-0.419,0.709,8.057,25.696,-20.63
0.468,-0.417,0.713,6.775,27.161,-18.982
0.497,-0.43,0.718,8.85,30.029,-18.005
0.508,-0.446,0.718,12.817,33.875,-17.883
0.541,-0.455,0.738,17.639,39.124,-18.005
0.605,-0.467,0.773,23.499,43.945,-17.944
0.654,-0.483,0.791,29.968,45.776,-18.433
0.672,-0.501,0.796,35.278,45.166,-18.738
0.682,-0.519,0.79,37.964,42.786,-18.066
0.686,-0.534,0.79,37.354,40.1,-15.503
0.683,-0.548,0.786,34.424,37.231,-11.658
0.674,-0.557,0.773,30.457,34.851,-7.568
0.679,-0.551,0.774,25.33,34.363,-4.456
0.723,-0.551,0.789,21.301,34.241,-2.075
0.749,-0.553,0.791,19.226,33.081,-0.366
0.741,-0.542,0.782,17.395,31.494,-0.061
0.752,-0.535,0.786,16.479,29.846,0.122
0.785,-0.537,0.798,16.357,26.733,0.0
0.791,-0.545,0.798,16.235,20.996,0.061
0.782,-0.556,0.786,14.648,13.672,0.61
0.786,-0.567,0.773,11.841,6.104,1.526
0.784,-0.573,0.758,8.423,-0.793,2.38
0.756,-0.57,0.74,4.7,-6.165,2.991
0.718,-0.563,0.719,1.282,-9.583,3.662
0.699,-0.562,0.701,-1.465,-10.62,4.15
0.692,-0.561,0.688,-2.869,-9.583,4.333
0.675,-0.556,0.681,-3.479,-7.629,4.761
0.668,-0.55,0.677,-3.784,-5.005,5.493
0.669,-0.55,0.673,-2.869,-2.747,6.348
0.664,-0.553,0.668,-2.075,-1.099,7.08
0.658,-0.559,0.668,-1.343,-0.061,7.935
0.653,-0.563,0.667,-0.549,0.61,8.667
0.653,-0.567,0.669,-0.122,0.61,9.277
0.648,-0.568,0.665,-0.61,0.122,9.583
0.638,-0.568,0.658,-1.404,-0.732,9.827
0.623,-0.564,0.649,-2.38,-1.282,9.644
0.601,-0.557,0.639,-3.723,-1.038,9.338
0.583,-0.544,0.633,-4.822,0.244,8.85
0.575,-0.532,0.627,-5.859,2.075,8.667
0.566,-0.52,0.614,-6.958,4.089,8.972
0.559,-0.51,0.604,-7.751,6.653,9.277
0.552,-0.501,0.593,-7.996,9.155,9.338
0.548,-0.491,0.585,-7.935,11.658,9.705
0.55,-0.482,0.587,-6.958,13.489,9.583
0.553,-0.476,0.586,-5.676,14.709,9.583
0.558,-0.471,0.587,-4.272,14.954,9.583
1.188,-4.0,4.0,343.018,122.559,-168.518
4.0,-3.818,4.0,92.896,0.977,-239.685
3.504,-2.599,4.0,-88.562,5.493,70.984
1.081,-1.262,1.788,-225.037,17.395,122.498
0.161,-1.221,0.751,-230.53,56.458,95.398
0.018,-0.766,0.336,-228.149,60.73,68.909
0.231,-0.774,-0.035,-221.069,38.574,70.74
0.206,-0.71,-0.362,-207.581,21.851,63.843
0.146,-0.674,-0.32,-190.125,31.311,61.401
-0.141,-0.551,-0.408,-178.345,37.109,56.03
-0.324,-0.478,-0.423,-165.161,55.542,49.255
-0.207,-0.389,-0.307,-148.56,72.815,45.471
-0.053,-0.226,-0.33,-134.277,73.486,43.884
-0.003,-0.215,-0.236,-120.3,74.036,48.95
0.002,-0.212,-0.16,-111.877,64.392,55.847
-0.01,-0.178,-0.17,-108.154,46.57,62.317
0.026,-0.16,-0.119,-104.37,29.846,65.43
0.038,-0.116,-0.113,-98.816,9.827,62.805
0.004,-0.064,-0.104,-91.309,-8.972,58.411
-0.002,-0.033,-0.074,-83.496,-24.292,53.589
-0.009,0.004,-0.06,-74.829,-36.316,46.814
-0.033,0.051,-0.044,-64.758,-42.542,39.001
-0.047,0.089,-0.016,-53.711,-43.091,31.555
-0.05,0.12,0.011,-41.992,-39.673,24.353
-0.047,0.145,0.04,-29.602,-32.898,18.127
-0.03,0.145,0.082,-16.968,-22.156,13.062
0.003,0.118,0.133,-4.395,-10.559,8.179
0.045,0.072,0.193,7.996,0.244,3.113
0.113,0.015,0.268,20.02,11.108,-2.258
0.202,-0.045,0.348,32.227,19.409,-8.057
0.289,-0.103,0.424,43.091,24.78,-14.099
0.394,-0.153,0.512,53.101,27.588,-19.348
0.447,-0.184,0.53,62.744,27.527,-22.644
0.568,-0.285,0.725,72.021,26.062,-24.292
0.639,-0.313,0.751,76.233,14.343,-26.733
0.644,-0.313,0.769,77.942,2.869,-26.245
0.624,-0.327,0.788,76.05,-4.272,-22.339
0.597,-0.341,0.798,71.35,-8.545,-16.968
0.558,-0.337,0.782,64.453,-10.437,-11.78
0.537,-0.327,0.785,57.19,-8.423,-6.714
0.545,-0.326,0.782,50.537,-3.54,-2.563
0.545,-0.322,0.775,44.8,2.136,0.549
0.523,-0.314,0.768,40.283,8.118,2.197
0.521,-0.305,0.777,37.415,13.0,2.686
0.548,-0.302,0.785,36.926,14.465,1.892
0.557,-0.294,0.788,38.818,12.878,0.977
0.54,-0.29,0.789,41.748,10.132,0.671
0.515,-0.292,0.782,46.204,6.897,0.977
0.492,-0.299,0.771,50.781,3.723,1.709
0.468,-0.313,0.753,55.054,1.587,2.38
0.437,-0.328,0.728,58.472,1.465,2.38
0.406,-0.342,0.703,60.669,4.089,1.526
0.385,-0.356,0.674,62.5,9.949,-0.671
0.363,-0.365,0.637,63.904,19.409,-3.601
0.361,-0.369,0.635,64.636,32.349,-6.836
0.427,-0.396,0.685,65.125,44.922,-9.338
0.515,-0.437,0.703,64.697,50.049,-11.963
0.522,-0.423,0.666,62.866,49.5,-14.832
0.533,-0.438,0.671,60.913,49.316,-15.381
0.578,-0.453,0.707,58.716,47.119,-15.991
0.621,-0.443,0.741,55.054,38.33,-17.578
0.638,-0.437,0.727,50.659,23.621,-18.433
0.604,-0.442,0.702,46.875,8.911,-18.738
0.559,-0.442,0.677,43.03,-2.075,-19.348
0.525,-0.432,0.648,40.344,-8.972,-20.569
0.523,-0.438,0.653,39.429,-11.475,-21.973
0.534,-0.453,0.665,40.283,-11.353,-23.499
0.534,-0.463,0.67,42.114,-9.888,-24.963
0.535,-0.465,0.682,44.922,-6.104,-25.574
0.546,-0.474,0.696,47.607,-0.305,-24.719
0.559,-0.489,0.709,50.659,6.287,-22.583
0.58,-0.517,0.725,53.101,13.672,-19.592
0.602,-0.54,0.748,53.589,20.752,-16.846
0.63,-0.562,0.776,53.101,26.855,-14.648
0.67,-0.581,0.798,52.185,30.823,-13.062
0.703,-0.592,0.818,50.171,32.593,-11.902
0.722,-0.598,0.833,47.974,31.982,-11.353
0.741,-0.607,0.844,45.959,29.907,-10.742
0.755,-0.619,0.847,44.006,26.733,-10.01
0.764,-0.629,0.85,42.053,22.583,-9.277
0.774,-0.631,0.862,39.917,18.127,-8.545
0.785,-0.635,0.873,37.842,13.306,-7.507
0.79,-0.632,0.88,36.743,8.911,-6.958
0.783,-0.624,0.882,36.621,5.066,-6.775
0.758,-0.615,0.875,36.072,2.075,-6.104
0.725,-0.604,0.859,34.668,0.0,-4.883
0.687,-0.59,0.842,31.25,-0.793,-3.174
0.643,-0.572,0.822,25.818,-0.549,-0.61
0.598,-0.557,0.795,19.043,0.671,2.869
0.565,-0.545,0.769,11.23,2.625,6.287
0.542,-0.531,0.744,2.93,5.127,8.911
0.528,-0.515,0.722,-5.005,7.263,10.498
0.52,-0.5,0.703,-12.512,8.301,11.658
0.518,-0.489,0.683,-19.836,8.057,12.573
0.523,-0.477,0.663,-25.513,6.226,12.878
0.525,-0.461,0.645,-29.175,3.906,13.0
0.523,-0.451,0.628,-31.006,1.343,12.634
0.522,-0.443,0.619,-30.701,-1.038,11.902
0.526,-0.44,0.62,-28.625,-3.235,11.23
0.531,-0.443,0.621,-26.001,-5.249,10.62
0.532,-0.448,0.618,-23.437,-7.08,9.705
0.541,-0.463,0.625,-20.874,-8.179,8.972
0.556,-0.481,0.637,-17.883,-8.057,7.812
0.572,-0.498,0.652,-15.32,-7.996,6.104
0.599,-0.514,0.672,-13.245,-7.629,4.333
0.623,-0.529,0.691,-11.719,-7.935,2.441
0.645,-0.542,0.705,-10.01,-8.484,0.854
0.663,-0.557,0.715,-8.545,-9.827,0.183
0.669,-0.569,0.722,-8.118,-11.536,0.183
0.666,-0.568,0.723,-7.935,-13.184,0.61
0.661,-0.558,0.714,-8.911,-14.282,1.465
0.642,-0.544,0.703,-10.132,-14.954,2.747
0.619,-0.528,0.686,-11.292,-14.404,4.15
0.591,-0.507,0.664,-12.146,-12.817,5.615
0.565,-0.49,0.64,-13.55,-10.254,6.958
0.541,-0.469,0.618,-14.893,-7.08,8.362
0.525,-0.446,0.599,-16.724,-3.54,9.521
0.516,-0.428,0.587,-17.517,-0.244,10.132
0.518,-0.411,0.58,-17.273,2.197,10.742
4.0,-4.0,4.0,78.186,-182.129,-305.969
2.251,-3.042,4.0,-222.839,-186.951,-20.02
-0.12,-0.284,1.863,-337.219,-58.35,172.363
-0.535,-0.596,0.265,-293.091,-3.479,121.033
-0.706,-0.778,-0.084,-227.478,71.411,42.725
-0.566,-0.444,-0.214,-207.336,124.451,34.912
-0.19,-0.638,-0.213,-221.008,160.217,51.636
-0.052,-0.54,-0.481,-229.492,171.692,58.167
-0.055,-0.546,-0.603,-229.736,188.049,70.129
-0.205,-0.373,-0.65,-208.679,213.135,69.031
-0.123,-0.226,-0.593,-188.171,228.516,74.219
0.006,-0.228,-0.502,-167.053,231.14,85.205
0.105,-0.104,-0.214,-152.893,216.248,90.82
0.264,-0.062,-0.077,-147.766,167.786,102.539
0.237,-0.086,-0.184,-142.761,107.3,108.276
0.009,-0.067,-0.24,-136.597,61.34,102.966
-0.157,0.091,-0.159,-127.869,33.936,95.032
-0.003,0.136,0.029,-115.601,2.991,87.891
-0.185,0.179,-0.358,-102.356,-46.387,73.486
-0.277,0.232,-0.218,-83.008,-50.72,59.082
-0.269,0.36,-0.082,-64.453,-51.086,48.401
-0.247,0.343,-0.142,-46.753,-58.472,44.983
-0.233,0.309,-0.088,-29.175,-53.04,39.124
-0.27,0.287,-0.064,-13.0,-45.593,33.081
-0.245,0.257,0.032,2.686,-31.799,28.015
-0.156,0.202,0.125,17.09,-20.142,24.17
-0.091,0.119,0.192,31.067,-11.597,20.203
-0.018,0.029,0.301,44.556,-3.906,13.855
0.084,-0.037,0.411,57.312,-0.183,4.395
0.191,-0.104,0.502,69.519,-0.732,-5.615
0.268,-0.163,0.594,80.688,-3.357,-15.625
0.325,-0.203,0.672,88.806,-8.057,-23.437
0.367,-0.23,0.728,92.651,-14.099,-26.672
0.378,-0.249,0.763,91.858,-19.714,-25.757
0.373,-0.255,0.769,88.562,-23.376,-23.315
0.354,-0.242,0.756,83.496,-22.766,-20.325
0.334,-0.229,0.75,77.148,-16.846,-17.151
0.333,-0.213,0.746,70.251,-7.568,-14.587
0.351,-0.192,0.749,63.538,3.723,-12.939
0.375,-0.191,0.763,57.495,16.785,-11.353
0.401,-0.204,0.778,54.016,27.71,-9.827
0.445,-0.231,0.804,52.246,34.912,-9.155
0.504,-0.252,0.832,52.49,37.72,-10.193
0.558,-0.273,0.861,53.955,36.072,-13.55
0.588,-0.294,0.878,56.152,30.212,-18.311
0.585,-0.308,0.884,58.35,21.973,-23.682
0.557,-0.307,0.868,60.059,13.0,-28.198
0.535,-0.305,0.86,59.631,5.737,-30.273
0.529,-0.314,0.858,59.082,0.977,-30.518
0.526,-0.331,0.85,59.021,-1.587,-29.846
0.507,-0.352,0.843,59.326,-0.977,-29.968
0.51,-0.362,0.874,60.242,2.808,-30.762
0.571,-0.376,0.897,61.462,5.737,-31.86
0.565,-0.382,0.859,61.096,5.493,-33.447
0.487,-0.387,0.824,59.753,7.507,-34.79
0.52,-0.369,0.881,57.068,12.451,-36.011
0.529,-0.369,0.846,52.856,10.62,-36.011
0.458,-0.35,0.798,47.546,11.475,-35.217
0.5,-0.368,0.835,43.396,18.005,-33.875
0.533,-0.362,0.871,38.696,17.761,-34.729
0.59,-0.367,0.833,35.217,11.169,-35.4
0.543,-0.361,0.796,33.447,5.737,-36.621
0.515,-0.349,0.816,33.691,5.066,-37.476
0.542,-0.346,0.82,34.607,2.38,-37.476
0.537,-0.359,0.792,34.607,-1.16,-36.621
0.53,-0.364,0.794,33.447,-1.404,-35.645
0.518,-0.37,0.778,32.349,-0.427,-34.79
0.51,-0.382,0.764,31.433,1.831,-34.119
0.5,-0.389,0.744,30.396,5.981,-33.691
0.487,-0.379,0.729,29.114,12.146,-33.386
0.505,-0.384,0.756,28.198,18.799,-32.654
0.544,-0.387,0.751,27.466,22.583,-32.166
0.552,-0.385,0.742,26.611,23.987,-31.677
0.565,-0.39,0.757,26.367,25.024,-30.64
0.582,-0.393,0.769,26.184,23.926,-29.663
0.579,-0.39,0.762,26.184,20.996,-28.564
0.572,-0.399,0.756,25.696,18.127,-26.733
0.576,-0.413,0.755,24.841,15.137,-24.841
0.578,-0.427,0.755,24.048,12.939,-23.193
0.571,-0.427,0.759,23.193,11.719,-21.79
0.563,-0.426,0.76,22.156,11.536,-21.057
0.557,-0.433,0.756,21.667,11.353,-20.081
0.564,-0.443,0.764,21.484,11.78,-18.86
0.58,-0.451,0.782,22.827,12.695,-18.25
0.592,-0.462,0.8,25.146,13.611,-17.944
0.621,-0.474,0.817,27.527,13.0,-17.7
0.631,-0.48,0.819,29.297,10.498,-17.151
0.627,-0.482,0.813,30.334,7.141,-15.991
0.636,-0.489,0.822,30.151,4.15,-13.794
0.65,-0.495,0.826,31.25,1.526,-12.146
0.637,-0.498,0.816,32.959,-0.854,-11.169
0.622,-0.498,0.803,33.142,-2.136,-9.888
0.618,-0.5,0.791,32.043,-2.869,-7.812
0.618,-0.51,0.791,31.494,-3.601,-5.249
0.619,-0.516,0.795,30.884,-4.456,-3.174
0.614,-0.517,0.799,30.518,-5.615,-1.221
0.593,-0.528,0.791,30.396,-6.348,1.831
0.554,-0.54,0.78,29.724,-6.104,5.31
0.531,-0.555,0.773,28.503,-4.028,8.423
0.529,-0.579,0.791,26.489,-1.038,10.925
0.551,-0.586,0.808,22.583,-0.305,11.902
0.571,-0.582,0.799,18.005,-3.174,12.085
0.562,-0.585,0.786,13.184,-6.653,12.207
0.551,-0.581,0.782,8.85,-9.949,12.024
0.544,-0.569,0.785,4.944,-14.282,11.719
0.54,-0.551,0.782,1.099,-19.226,11.658
0.533,-0.536,0.772,-1.831,-23.682,12.207
0.517,-0.529,0.764,-2.93,-26.489,12.817
0.5,-0.53,0.758,-2.563,-27.466,13.306
0.483,-0.533,0.76,-0.732,-26.306,13.428
0.471,-0.541,0.767,2.258,-23.254,13.489
0.465,-0.546,0.777,4.883,-19.104,13.123
0.465,-0.55,0.785,7.019,-14.526,12.268
0.473,-0.556,0.795,8.423,-10.132,11.047
0.487,-0.56,0.803,8.606,-7.08,9.949
0.497,-0.563,0.808,8.057,-5.493,9.033
0.5,-0.565,0.808,6.775,-5.127,8.484
0.502,-0.562,0.808,4.517,-5.249,8.24
0.494,-0.554,0.805,1.77,-5.676,8.362
3.977,-4.0,4.0,190.735,29.175,-231.934
3.97,-3.752,4.0,-100.281,-92.285,-87.769
1.02,-0.852,3.3,-271.973,4.089,132.08
0.226,-0.497,1.049,-309.265,19.653,133.057
-0.208,-0.378,0.291,-234.68,83.069,73.242
0.109,-0.212,0.272,-171.57,105.286,56.091
0.063,-0.335,-0.096,-138.733,83.252,63.599
0.3,-0.479,-0.01,-113.586,78.979,65.857
0.035,-0.307,-0.329,-108.398,51.392,63.293
-0.149,-0.284,-0.39,-99.67,53.162,64.758
-0.125,-0.292,-0.411,-95.337,52.795,67.81
-0.094,-0.247,-0.436,-89.783,46.814,70.557
-0.092,-0.196,-0.387,-88.196,36.926,73.059
-0.146,-0.122,-0.389,-91.797,19.165,74.097
-0.198,-0.06,-0.439,-97.839,2.747,74.951
-0.193,-0.026,-0.393,-100.586,-5.31,70.19
-0.244,0.03,-0.432,-98.877,-13.611,60.669
-0.247,0.068,-0.289,-93.75,-16.113,50.293
-0.227,0.128,-0.253,-88.562,-22.156,40.771
-0.216,0.169,-0.216,-81.848,-29.297,33.02
-0.218,0.205,-0.166,-72.327,-32.166,26.55
-0.214,0.228,-0.116,-58.289,-32.288,20.996
-0.207,0.226,-0.07,-40.955,-29.053,16.113
-0.196,0.196,-0.01,-22.705,-22.583,11.23
-0.175,0.137,0.047,-4.272,-13.855,7.568
-0.129,0.061,0.117,13.611,-3.967,3.784
-0.031,-0.016,0.234,31.494,6.958,-0.732
0.109,-0.109,0.385,50.659,15.991,-5.798
0.231,-0.205,0.515,68.542,18.616,-11.78
0.324,-0.297,0.623,82.214,15.259,-17.517
0.393,-0.375,0.689,91.125,9.277,-21.667
0.429,-0.423,0.741,95.581,3.54,-24.414
0.414,-0.44,0.75,94.727,0.0,-24.841
0.39,-0.445,0.756,90.088,1.282,-23.499
0.397,-0.433,0.771,82.153,6.836,-21.851
0.405,-0.412,0.757,72.51,14.221,-20.203
0.433,-0.403,0.781,62.866,24.963,-18.127
0.48,-0.388,0.828,51.758,33.386,-16.357
0.517,-0.356,0.821,38.696,34.18,-15.015
0.565,-0.365,0.842,28.32,31.616,-13.916
0.595,-0.387,0.868,22.827,26.611,-14.771
0.592,-0.375,0.86,21.362,18.799,-18.311
0.555,-0.359,0.845,21.667,10.803,-21.545
0.534,-0.37,0.843,23.071,5.005,-22.888
0.492,-0.37,0.82,26.428,1.953,-24.17
0.423,-0.369,0.788,30.273,3.479,-24.841
0.436,-0.379,0.821,33.508,9.521,-24.78
0.428,-0.382,0.786,35.339,12.817,-24.658
0.455,-0.408,0.811,38.208,17.822,-24.17
0.49,-0.426,0.838,41.626,21.057,-24.475
0.503,-0.434,0.846,44.983,20.874,-25.452
0.51,-0.444,0.851,47.913,19.592,-27.344
0.501,-0.454,0.839,51.575,18.738,-29.907
0.417,-0.43,0.746,54.932,20.935,-32.166
0.443,-0.46,0.79,57.434,32.349,-32.471
0.53,-0.509,0.815,56.641,38.086,-34.119
0.438,-0.464,0.682,52.856,36.011,-37.415
0.604,-0.489,0.916,51.086,44.983,-37.17
0.693,-0.467,0.841,46.021,34.18,-36.377
0.609,-0.435,0.792,41.809,20.752,-32.898
0.606,-0.476,0.788,40.649,16.785,-26.245
0.598,-0.496,0.79,40.955,12.39,-23.499
0.604,-0.473,0.842,41.382,9.338,-22.827
0.634,-0.472,0.818,39.551,1.404,-20.63
0.612,-0.478,0.793,38.086,-5.066,-17.822
0.561,-0.494,0.76,37.17,-8.24,-15.503
0.515,-0.503,0.736,36.255,-7.812,-15.198
0.501,-0.493,0.74,33.081,-4.272,-16.357
0.511,-0.491,0.743,29.541,-0.732,-16.235
0.521,-0.5,0.736,25.696,1.953,-15.137
0.528,-0.501,0.728,21.912,4.272,-13.794
0.531,-0.496,0.712,18.616,5.92,-12.512
0.564,-0.499,0.724,17.639,7.385,-11.169
0.589,-0.504,0.743,18.799,7.69,-10.193
0.602,-0.508,0.754,21.118,5.676,-9.705
0.609,-0.515,0.753,23.132,1.709,-9.033
0.599,-0.529,0.739,24.17,-3.235,-7.141
0.564,-0.538,0.718,23.865,-7.69,-4.639
0.53,-0.544,0.699,22.522,-10.559,-2.563
0.503,-0.554,0.693,20.203,-11.23,-0.488
0.483,-0.557,0.699,18.555,-10.437,0.488
0.472,-0.553,0.701,17.151,-8.789,-0.427
0.494,-0.55,0.728,16.235,-6.348,-2.502
0.539,-0.561,0.775,19.104,-4.15,-5.493
0.567,-0.564,0.816,23.56,-4.333,-9.827
0.576,-0.56,0.833,27.161,-5.92,-12.939
0.573,-0.57,0.84,29.297,-7.812,-13.489
0.555,-0.585,0.827,29.358,-9.094,-11.841
0.52,-0.594,0.808,26.978,-9.033,-9.583
0.507,-0.594,0.803,22.339,-6.775,-7.324
0.52,-0.597,0.815,16.846,-4.028,-4.944
0.527,-0.592,0.798,10.315,-3.967,-3.113
0.52,-0.585,0.769,4.517,-4.944,-1.16
0.503,-0.581,0.743,-0.122,-5.127,0.732
0.488,-0.58,0.733,-3.784,-4.639,2.014
0.504,-0.579,0.75,-6.042,-4.333,2.686
0.529,-0.58,0.76,-8.057,-5.981,2.869
0.549,-0.579,0.768,-8.362,-8.423,2.258
0.552,-0.579,0.771,-7.507,-10.193,1.526
0.558,-0.585,0.769,-5.554,-11.047,1.099
0.559,-0.595,0.773,-3.357,-10.559,1.221
0.554,-0.597,0.778,-0.854,-9.155,1.892
0.545,-0.606,0.787,0.0,-6.653,3.357
0.552,-0.619,0.796,0.488,-4.333,4.761
0.563,-0.629,0.801,0.488,-2.38,5.615
0.568,-0.64,0.807,-0.732,-1.099,6.165
0.571,-0.645,0.812,-2.686,-1.099,5.981
0.567,-0.64,0.813,-5.066,-2.197,5.31
0.554,-0.625,0.808,-8.179,-3.906,4.456
0.537,-0.609,0.796,-10.803,-5.127,3.601
0.516,-0.595,0.778,-13.0,-5.005,3.235
0.504,-0.576,0.76,-15.015,-4.089,3.052
0.495,-0.561,0.74,-17.09,-3.052,3.54
0.484,-0.548,0.721,-18.677,-1.831,4.456
0.48,-0.534,0.706,-20.447,-0.305,5.432
0.477,-0.524,0.693,-21.24,0.732,6.165
0.467,-0.512,0.68,-21.24,1.282,6.348
0.46,-0.501,0.67,-20.691,2.014,6.226
0.462,-0.496,0.663,-19.287,2.686,5.798
-1.473,-4.0,4.0,113.037,461.182,-98.816
3.415,-2.418,4.0,-110.535,768.372,79.468
4.0,0.405,4.0,-297.302,543.701,158.813
3.109,0.144,2.528,-292.542,397.949,149.475
1.108,-0.108,0.937,-198.059,185.669,153.137
0.948,-0.773,0.66,-116.882,82.581,187.439
0.912,-0.787,0.36,-91.064,-0.549,161.804
0.821,-0.521,0.223,-92.59,-48.889,120.3
0.795,-0.616,-0.027,-96.68,-93.201,105.896
0.668,-0.485,-0.227,-100.22,-141.296,86.67
0.492,-0.358,-0.138,-99.976,-175.72,78.125
0.25,-0.199,-0.316,-98.45,-217.896,67.139
-0.063,-0.199,-0.485,-85.815,-227.844,49.316
-0.193,-0.188,-0.375,-76.721,-205.505,30.518
-0.167,-0.132,-0.343,-73.914,-181.152,22.644
-0.116,-0.069,-0.351,-71.777,-152.954,19.409
-0.149,0.004,-0.294,-68.237,-113.892,18.677
-0.144,0.052,-0.183,-63.782,-70.801,23.132
-0.056,0.061,-0.094,-58.105,-31.799,28.687
0.062,0.043,0.008,-50.842,0.366,31.189
0.151,0.044,0.077,-43.823,22.4,30.884
0.205,0.052,0.129,-37.292,36.865,28.564
0.252,0.045,0.189,-29.602,45.593,25.208
0.331,0.013,0.269,-21.24,47.119,21.362
0.384,-0.016,0.3,-13.977,39.246,16.418
0.402,-0.054,0.327,-7.202,26.978,10.559
0.418,-0.093,0.371,-0.793,13.977,4.7
0.441,-0.129,0.411,4.517,-0.488,-0.793
0.451,-0.159,0.437,9.338,-15.747,-5.31
0.448,-0.186,0.466,13.672,-29.236,-9.338
0.451,-0.209,0.498,18.25,-39.185,-13.428
0.462,-0.227,0.53,23.254,-46.326,-17.273
0.479,-0.244,0.572,27.954,-49.133,-19.958
0.485,-0.259,0.601,31.616,-48.523,-21.301
0.472,-0.269,0.621,33.569,-44.739,-21.423
0.468,-0.284,0.639,34.119,-37.598,-20.63
0.479,-0.299,0.655,33.875,-28.564,-19.409
0.493,-0.311,0.679,32.959,-18.372,-18.433
0.508,-0.313,0.703,30.579,-7.996,-17.639
0.529,-0.313,0.727,27.527,0.916,-17.029
0.558,-0.311,0.741,23.987,7.629,-16.602
0.578,-0.309,0.751,19.897,11.047,-16.296
0.583,-0.305,0.754,16.296,12.329,-16.174
0.581,-0.294,0.746,14.038,11.963,-16.296
0.578,-0.283,0.741,12.756,11.108,-16.479
0.586,-0.277,0.746,13.367,10.254,-16.602
0.586,-0.272,0.75,15.564,8.484,-16.418
0.583,-0.27,0.754,18.494,5.981,-16.357
0.58,-0.27,0.759,22.461,3.296,-16.296
0.571,-0.27,0.77,26.611,0.671,-16.357
0.544,-0.264,0.767,29.907,-1.648,-16.113
0.514,-0.267,0.755,32.104,-3.601,-15.442
0.498,-0.277,0.743,33.325,-3.784,-14.099
0.475,-0.283,0.731,33.142,-2.991,-13.367
0.47,-0.289,0.735,32.349,-0.793,-13.611
0.495,-0.304,0.751,32.41,2.625,-14.893
0.51,-0.317,0.752,32.593,6.165,-17.151
0.506,-0.317,0.747,32.776,9.888,-20.02
0.528,-0.318,0.76,33.081,14.16,-21.667
0.556,-0.326,0.763,33.264,16.541,-22.034
0.544,-0.324,0.748,33.203,17.456,-21.484
0.528,-0.325,0.749,32.959,18.921,-19.897
0.55,-0.332,0.759,32.166,19.714,-18.188
0.565,-0.343,0.761,31.982,18.555,-17.334
0.56,-0.351,0.764,31.86,17.273,-17.151
0.559,-0.352,0.765,31.25,15.015,-17.334
0.569,-0.357,0.757,30.212,12.085,-16.968
0.561,-0.366,0.75,28.748,9.766,-16.052
0.565,-0.38,0.752,27.222,8.057,-15.076
0.568,-0.387,0.746,26.245,6.226,-14.587
0.56,-0.39,0.741,25.757,5.127,-14.465
0.557,-0.399,0.741,24.963,5.432,-13.916
0.569,-0.41,0.749,24.597,6.714,-13.794
0.586,-0.426,0.758,25.208,8.545,-13.855
0.596,-0.438,0.76,26.367,10.254,-14.099
0.592,-0.442,0.752,27.71,12.268,-14.221
0.584,-0.447,0.742,28.687,15.564,-14.221
0.588,-0.455,0.737,28.931,20.325,-13.367
0.616,-0.46,0.74,29.175,25.696,-12.329
0.66,-0.465,0.752,29.907,29.358,-11.23
0.713,-0.467,0.764,30.762,31.006,-10.62
0.746,-0.457,0.768,31.799,28.748,-9.705
0.762,-0.445,0.766,31.738,23.254,-8.057
0.78,-0.444,0.761,30.579,15.198,-5.432
0.766,-0.443,0.749,29.175,5.554,-2.869
0.723,-0.432,0.728,26.55,-3.845,0.671
0.678,-0.421,0.707,23.315,-11.475,4.944
0.629,-0.418,0.688,20.447,-16.418,9.277
0.583,-0.419,0.668,18.066,-18.738,13.123
0.552,-0.424,0.654,15.259,-18.127,15.686
0.523,-0.422,0.637,12.634,-15.32,16.479
0.515,-0.422,0.634,10.071,-10.559,16.541
0.532,-0.424,0.637,8.423,-5.92,15.93
0.543,-0.419,0.642,7.385,-2.014,15.076
0.551,-0.421,0.647,7.019,0.305,13.855
0.573,-0.431,0.658,6.958,1.77,12.939
0.594,-0.446,0.673,7.69,2.136,12.146
0.613,-0.462,0.685,7.996,1.526,10.864
0.629,-0.484,0.694,7.996,0.122,9.094
0.647,-0.507,0.705,7.69,-1.099,7.08
0.665,-0.528,0.716,7.324,-2.502,4.883
0.682,-0.545,0.732,7.202,-3.601,2.197
0.701,-0.558,0.748,8.301,-4.272,-0.671
0.714,-0.567,0.76,9.766,-4.517,-2.869
0.726,-0.57,0.763,11.536,-4.395,-4.272
0.73,-0.569,0.76,12.756,-3.967,-5.371
0.726,-0.563,0.757,13.123,-3.113,-5.798
0.714,-0.551,0.748,12.634,-2.563,-5.249
0.684,-0.531,0.73,10.864,-2.014,-4.089
0.655,-0.505,0.711,7.141,-1.343,-2.686
0.639,-0.479,0.695,3.235,-0.61,-0.61
0.618,-0.455,0.676,-0.427,0.305,1.343
0.591,-0.432,0.654,-3.479,0.793,2.869
0.571,-0.412,0.634,-5.554,1.16,3.967
0.556,-0.394,0.619,-6.653,1.526,4.944
0.549,-0.377,0.611,-6.653,1.648,5.188
0.55,-0.369,0.607,-5.554,1.343,4.944
0.548,-0.363,0.602,-3.723,0.793,4.517
0.546,-0.363,0.599,-1.099,-0.061,3.967
3.271,-4.0,4.0,-23.315,279.785,-232.91
4.0,-1.103,4.0,-279.297,193.848,81.848
2.533,-0.071,3.319,-390.686,189.27,157.593
0.899,-0.751,1.405,-322.51,166.626,108.887
0.331,-0.322,0.64,-192.2,115.906,101.868
0.578,-0.422,0.278,-104.858,29.114,119.568
0.549,-0.39,-0.215,-61.584,-26.306,116.394
0.364,-0.387,-0.351,-45.654,-41.626,110.352
0.094,-0.393,-0.66,-41.992,-49.011,115.906
-0.165,-0.349,-0.634,-46.936,-42.358,114.38
-0.25,-0.229,-0.609,-57.861,-34.424,113.77
-0.359,-0.123,-0.785,-70.496,-33.997,113.464
-0.491,-0.082,-0.801,-79.59,-14.587,111.511
-0.52,0.016,-0.731,-89.478,7.385,102.173
-0.481,0.078,-0.635,-94.971,22.583,90.332
-0.375,0.088,-0.507,-95.459,29.236,76.965
-0.261,0.12,-0.369,-92.468,24.109,63.049
-0.28,0.138,-0.312,-85.876,8.423,49.561
-0.259,0.135,-0.209,-77.332,-2.563,39.795
-0.197,0.108,-0.021,-69.031,-9.583,34.79
-0.113,0.079,0.149,-60.181,-19.409,30.457
-0.042,0.05,0.272,-47.607,-28.381,26.184
0.011,0.032,0.379,-31.494,-31.982,22.034
0.02,-0.012,0.439,-14.832,-32.41,19.165
0.011,-0.067,0.488,0.549,-26.855,15.869
0.026,-0.146,0.529,15.015,-18.311,10.437
0.077,-0.233,0.564,29.358,-8.057,1.648
0.151,-0.309,0.595,42.297,5.127,-10.559
0.294,-0.377,0.638,51.819,23.621,-23.865
0.452,-0.415,0.74,57.861,42.969,-34.18
0.563,-0.442,0.898,58.167,55.237,-37.964
0.633,-0.456,0.983,52.673,55.298,-37.537
0.678,-0.456,1.0,42.908,47.546,-34.607
0.671,-0.43,0.979,31.799,38.635,-31.311
0.634,-0.38,0.936,21.057,31.128,-28.198
0.598,-0.325,0.883,11.902,25.635,-25.208
0.585,-0.28,0.856,5.676,22.949,-22.034
0.597,-0.257,0.839,2.075,21.423,-18.494
0.612,-0.251,0.822,2.014,19.653,-16.541
0.62,-0.245,0.808,4.944,18.066,-17.273
0.631,-0.242,0.807,11.169,17.578,-19.287
0.645,-0.255,0.823,19.165,17.7,-21.729
0.648,-0.265,0.827,27.1,17.7,-23.987
0.66,-0.288,0.832,34.241,18.127,-24.475
0.67,-0.323,0.84,40.1,19.043,-23.621
0.661,-0.351,0.835,44.006,20.264,-22.217
0.655,-0.378,0.846,45.532,22.217,-20.325
0.655,-0.403,0.856,43.396,25.513,-18.311
0.654,-0.413,0.858,38.696,28.503,-16.968
0.65,-0.41,0.857,32.104,32.41,-16.296
0.656,-0.398,0.862,25.33,36.255,-16.113
0.683,-0.384,0.854,20.02,39.001,-16.113
0.679,-0.358,0.824,16.357,40.283,-15.991
0.659,-0.328,0.793,13.794,41.626,-15.32
0.653,-0.308,0.772,12.878,43.335,-14.099
0.652,-0.293,0.745,13.184,44.373,-12.573
0.637,-0.278,0.714,13.611,45.349,-11.353
0.631,-0.268,0.703,14.282,46.875,-10.62
0.648,-0.26,0.698,15.259,47.302,-10.376
0.662,-0.261,0.699,15.991,45.593,-10.681
0.674,-0.256,0.711,16.907,41.321,-11.719
0.685,-0.252,0.697,16.968,33.569,-12.207
0.678,-0.255,0.685,17.273,25.391,-12.268
0.663,-0.258,0.68,18.127,17.212,-12.451
0.666,-0.272,0.678,18.677,9.216,-12.451
0.663,-0.286,0.682,18.86,2.258,-12.695
0.651,-0.292,0.677,19.043,-3.601,-13.489
0.639,-0.295,0.667,18.982,-7.324,-14.099
0.629,-0.295,0.657,18.921,-9.094,-14.465
0.625,-0.294,0.649,19.409,-9.094,-14.404
0.626,-0.3,0.641,19.592,-7.751,-13.855
0.632,-0.311,0.638,19.714,-5.737,-12.878
0.645,-0.322,0.646,20.569,-3.845,-11.414
0.663,-0.332,0.654,21.362,-2.93,-9.338
0.678,-0.343,0.655,21.545,-3.784,-7.324
0.689,-0.351,0.657,21.545,-5.554,-5.615
0.69,-0.357,0.661,21.545,-7.507,-4.639
0.686,-0.368,0.667,22.583,-9.033,-4.089
0.682,-0.387,0.668,24.231,-9.949,-3.662
0.67,-0.399,0.665,25.208,-10.132,-3.845
0.665,-0.405,0.67,26.733,-9.033,-4.395
0.69,-0.425,0.683,30.396,-6.348,-5.859
0.708,-0.447,0.701,35.645,-3.052,-8.423
0.719,-0.458,0.724,40.405,-0.671,-10.803
0.746,-0.47,0.754,43.945,0.671,-11.719
0.757,-0.479,0.772,45.959,0.488,-10.681
0.74,-0.486,0.773,45.654,-2.014,-8.362
0.711,-0.49,0.762,43.091,-5.371,-5.127
0.676,-0.484,0.741,37.292,-8.484,-1.526
0.635,-0.483,0.712,29.785,-11.353,2.686
0.59,-0.48,0.681,21.118,-12.939,6.653
0.554,-0.469,0.651,12.085,-12.695,9.705
0.527,-0.453,0.622,4.028,-11.047,11.536
0.508,-0.441,0.601,-2.38,-8.606,12.573
0.5,-0.427,0.578,-7.507,-5.615,13.123
0.501,-0.407,0.559,-10.925,-2.258,13.0
0.509,-0.392,0.548,-12.329,1.343,12.268
0.524,-0.382,0.547,-11.841,4.639,11.475
0.555,-0.386,0.564,-9.155,6.836,10.376
0.594,-0.393,0.589,-4.944,7.08,8.728
0.636,-0.42,0.613,0.183,5.92,6.897
0.669,-0.459,0.637,6.836,3.357,5.005
0.687,-0.493,0.659,12.939,0.122,2.93
0.698,-0.524,0.681,17.578,-2.93,1.343
0.703,-0.549,0.691,20.203,-6.104,-0.61
0.701,-0.567,0.696,20.813,-7.812,-2.502
0.69,-0.579,0.693,19.409,-7.874,-3.479
0.677,-0.581,0.684,16.968,-6.531,-4.639
0.673,-0.571,0.673,13.367,-4.15,-5.554
0.672,-0.554,0.663,10.132,-1.099,-5.798
0.661,-0.53,0.656,7.629,1.465,-4.944
0.652,-0.501,0.649,5.127,3.54,-3.418
0.645,-0.478,0.64,3.418,4.272,-1.587
0.63,-0.455,0.628,2.014,3.601,0.977
0.611,-0.433,0.612,0.244,1.282,3.418
0.594,-0.415,0.598,-1.404,-1.343,5.493
0.573,-0.402,0.584,-2.38,-4.089,7.019
0.56,-0.395,0.575,-2.747,-6.836,7.446
0.552,-0.39,0.567,-2.625,-9.033,7.263
4.0,-0.183,3.889,6.409,251.892,-163.086
4.0,-0.627,3.688,-23.865,75.806,-123.352
4.0,-1.75,4.0,-40.527,60.852,35.522
3.843,-0.703,1.949,-125.488,-43.579,126.282
0.533,-0.933,0.46,-177.429,-79.651,232.239
0.217,-1.297,-0.257,-195.618,-20.142,252.808
-0.166,-0.829,-0.599,-207.52,57.922,189.209
-0.213,-0.376,-0.703,-194.458,128.967,134.949
-0.272,-0.366,-0.73,-172.302,174.5,113.525
-0.121,-0.38,-0.663,-145.996,222.534,103.21
-0.075,-0.245,-0.721,-123.352,251.221,92.896
0.15,-0.173,-0.46,-94.849,286.804,96.985
0.23,0.01,-0.319,-66.772,299.072,98.45
0.299,-0.104,-0.261,-34.729,288.757,102.478
0.282,-0.057,-0.169,-4.395,253.113,98.816
0.258,-0.142,-0.088,21.057,210.327,100.159
0.229,-0.172,-0.031,34.18,167.725,100.037
0.226,-0.169,-0.046,41.443,126.465,98.267
0.156,-0.145,-0.071,48.767,93.994,95.398
0.173,-0.154,-0.026,56.274,68.359,90.393
0.177,-0.194,-0.016,59.875,41.077,80.444
0.134,-0.174,-0.033,57.983,14.16,64.575
0.16,-0.151,0.004,51.88,-7.019,47.241
0.122,-0.126,-0.041,43.64,-25.757,27.161
0.287,0.007,-0.073,35.339,-35.706,7.08
0.237,-0.081,-0.038,31.372,-42.603,-3.845
0.269,-0.047,-0.046,23.56,-54.626,-19.958
0.362,-0.038,-0.07,17.395,-63.538,-30.212
0.47,-0.049,-0.016,12.39,-69.58,-36.072
0.533,-0.098,-0.04,7.263,-77.942,-40.771
0.574,-0.106,-0.02,2.197,-85.327,-45.41
0.695,-0.103,-0.015,-3.54,-90.942,-47.241
0.806,-0.108,-0.007,-7.324,-96.924,-47.058
0.866,-0.114,0.003,-10.193,-103.638,-46.265
0.917,-0.12,-0.001,-12.451,-110.107,-45.227
0.917,-0.112,-0.012,-13.245,-113.281,-45.044
0.936,-0.08,-0.004,-12.268,-112.244,-44.739
0.944,-0.049,0.007,-9.888,-107.788,-42.664
0.938,-0.038,0.023,-5.493,-101.135,-39.917
0.942,-0.023,0.05,-0.549,-93.506,-37.292
0.948,-0.009,0.086,5.249,-85.51,-34.546
0.958,-0.008,0.122,11.169,-79.224,-31.738
0.973,-0.013,0.165,16.907,-75.928,-29.236
0.987,-0.021,0.201,20.996,-76.355,-26.672
0.973,-0.026,0.223,24.658,-81.299,-24.231
0.944,-0.04,0.24,28.381,-88.806,-22.705
0.925,-0.049,0.262,31.372,-96.13,-22.4
0.888,-0.079,0.258,33.875,-102.173,-23.987
0.86,-0.11,0.264,35.767,-104.004,-28.32
0.864,-0.119,0.297,35.828,-101.501,-34.485
0.869,-0.12,0.311,34.851,-97.29,-38.818
0.808,-0.134,0.272,32.776,-91.187,-40.466
0.809,-0.165,0.299,30.945,-79.163,-41.443
0.843,-0.119,0.364,28.381,-67.627,-43.213
0.85,-0.195,0.347,26.794,-61.096,-44.434
0.822,-0.138,0.341,24.109,-51.147,-48.828
0.811,-0.185,0.319,22.949,-42.053,-50.903
0.763,-0.148,0.327,20.996,-29.297,-54.932
0.774,-0.178,0.31,20.02,-16.724,-55.847
0.86,-0.191,0.351,19.348,-3.723,-58.167
0.879,-0.18,0.358,19.043,4.7,-61.951
0.91,-0.174,0.37,18.555,10.376,-63.843
0.949,-0.174,0.379,18.372,12.634,-63.965
0.95,-0.174,0.377,18.188,12.085,-62.073
0.939,-0.172,0.373,17.334,10.681,-58.716
0.939,-0.172,0.368,16.907,8.789,-55.054
0.964,-0.189,0.365,16.479,7.141,-51.147
0.982,-0.212,0.365,15.625,5.615,-47.913
0.98,-0.221,0.363,14.343,4.211,-46.265
0.985,-0.224,0.36,13.062,3.174,-45.654
1.001,-0.235,0.351,12.085,3.052,-45.593
1.001,-0.241,0.343,11.353,3.723,-46.326
0.999,-0.238,0.339,10.193,5.371,-46.875
1.004,-0.239,0.336,9.399,7.996,-46.631
1.0,-0.24,0.331,8.728,11.597,-45.227
0.977,-0.239,0.32,8.606,15.564,-42.969
0.962,-0.231,0.31,8.911,20.569,-39.978
0.953,-0.227,0.31,9.827,25.818,-36.987
0.95,-0.234,0.315,10.62,30.762,-34.424
0.957,-0.237,0.322,11.414,34.241,-32.959
0.983,-0.245,0.33,12.207,36.072,-31.677
1.014,-0.253,0.337,12.695,34.973,-30.762
1.04,-0.253,0.345,13.245,30.457,-29.968
1.045,-0.247,0.35,13.855,22.888,-28.198
1.036,-0.245,0.347,13.794,12.878,-25.269
1.014,-0.239,0.34,13.55,2.441,-21.606
0.981,-0.238,0.326,14.099,-6.958,-18.066
0.94,-0.248,0.307,14.832,-14.16,-14.709
0.913,-0.266,0.294,15.625,-17.883,-12.695
0.897,-0.282,0.287,16.602,-17.944,-12.817
0.892,-0.296,0.289,18.127,-14.404,-14.465
0.894,-0.312,0.297,19.531,-9.033,-16.846
0.919,-0.331,0.31,20.569,-3.113,-18.738
0.959,-0.345,0.33,21.118,2.319,-19.775
0.997,-0.358,0.355,21.667,6.042,-19.592
1.044,-0.374,0.383,21.973,7.263,-18.555
1.089,-0.389,0.404,22.095,5.859,-17.273
1.135,-0.398,0.421,22.278,2.014,-16.846
1.174,-0.405,0.433,22.766,-3.296,-18.066
1.181,-0.406,0.439,22.766,-9.888,-19.958
1.161,-0.402,0.436,21.851,-16.724,-20.447
1.145,-0.401,0.432,20.813,-23.193,-18.372
1.114,-0.4,0.422,18.311,-28.625,-14.465
1.061,-0.396,0.408,15.015,-32.104,-9.338
1.006,-0.391,0.387,10.925,-33.203,-3.906
0.953,-0.382,0.364,6.836,-32.227,1.343
0.894,-0.37,0.342,3.113,-29.48,6.47
0.846,-0.358,0.323,-0.305,-24.902,10.559
0.814,-0.351,0.309,-3.174,-19.653,13.184
0.789,-0.347,0.297,-4.883,-14.404,14.648
0.77,-0.345,0.292,-5.249,-9.705,14.954
0.753,-0.343,0.286,-4.883,-6.042,14.648
0.752,-0.346,0.286,-3.662,-3.174,14.16
0.766,-0.357,0.29,-2.136,-1.099,13.794
0.791,-0.372,0.295,-0.366,-0.549,13.0
0.809,-0.39,0.299,1.282,-1.465,11.841
0.827,-0.408,0.302,2.136,-3.906,10.254
0.852,-0.427,0.304,2.686,-7.141,7.751
0.872,-0.44,0.304,3.235,-10.315,4.578
4.0,-1.038,4.0,80.383,-144.714,55.908
4.0,-1.314,4.0,-53.528,-314.087,209.351
1.584,-0.726,2.275,-145.569,-265.686,203.979
-0.229,-0.534,0.172,-192.505,-198.486,213.867
-0.936,-0.229,-0.094,-189.758,-34.973,177.917
-0.892,-0.458,-0.445,-185.547,101.868,118.652
-0.609,-0.487,-0.897,-169.983,196.228,87.585
-0.514,-0.427,-1.123,-158.142,275.818,91.614
-0.372,-0.369,-0.889,-155.151,337.769,117.676
-0.311,-0.186,-0.939,-156.311,360.291,129.456
-0.544,-0.012,-0.964,-145.935,371.704,125.122
-0.245,0.063,-0.487,-120.789,391.113,131.836
-0.199,-0.04,-0.395,-90.942,373.169,141.296
-0.001,-0.052,-0.18,-69.153,339.539,137.268
0.136,0.018,0.018,-53.406,279.724,130.432
0.265,0.04,0.202,-30.396,200.989,114.075
0.319,0.096,0.176,-4.028,108.398,88.562
0.278,0.106,0.132,24.17,20.874,58.716
0.135,0.136,0.032,47.668,-55.481,23.499
0.062,0.076,0.013,67.078,-109.985,-9.216
0.016,0.186,0.046,81.421,-140.442,-35.889
0.077,0.177,0.084,94.849,-154.724,-58.655
0.191,0.082,0.128,108.032,-155.884,-73.669
0.294,-0.047,0.133,115.173,-146.851,-80.322
0.399,-0.156,0.159,111.145,-129.456,-79.468
0.484,-0.222,0.219,98.45,-106.384,-70.862
0.517,-0.257,0.288,80.566,-85.083,-59.143
0.578,-0.234,0.338,60.12,-66.345,-49.194
0.742,-0.185,0.396,41.26,-47.058,-42.603
0.883,-0.133,0.446,26.367,-28.564,-39.856
0.94,-0.076,0.47,15.015,-12.756,-41.138
0.977,-0.016,0.449,8.606,-0.671,-45.654
0.995,0.023,0.445,5.554,10.315,-50.842
1.018,0.039,0.443,4.578,19.653,-55.054
1.047,0.04,0.444,4.211,26.123,-57.983
1.069,0.04,0.448,3.845,30.273,-60.059
1.095,0.045,0.455,2.563,31.677,-61.584
1.103,0.045,0.455,1.038,29.785,-61.768
1.101,0.044,0.45,-0.732,24.658,-59.875
1.11,0.047,0.447,-2.258,16.479,-56.519
1.096,0.051,0.438,-3.113,5.798,-53.284
1.042,0.059,0.413,-1.77,-5.005,-50.72
0.998,0.062,0.392,0.244,-13.611,-49.011
0.957,0.063,0.379,3.052,-18.677,-48.401
0.93,0.059,0.369,6.714,-20.813,-48.828
0.907,0.052,0.37,10.681,-19.836,-50.171
0.886,0.042,0.371,14.16,-16.968,-51.514
0.901,0.036,0.382,17.456,-12.573,-52.979
0.92,0.023,0.38,20.02,-8.484,-54.199
0.906,0.017,0.38,22.705,-4.944,-55.176
0.901,0.004,0.377,24.841,-1.404,-56.03
0.941,-0.015,0.4,26.794,2.258,-57.251
0.975,-0.037,0.419,27.954,3.784,-58.533
0.98,-0.044,0.422,27.954,2.258,-58.472
0.976,-0.047,0.427,26.55,-0.793,-56.03
0.963,-0.054,0.419,24.353,-5.005,-52.063
0.953,-0.061,0.412,21.423,-8.423,-48.157
0.944,-0.064,0.409,18.372,-10.864,-44.983
0.92,-0.063,0.395,15.869,-12.756,-42.236
0.891,-0.065,0.379,13.916,-13.855,-39.856
0.867,-0.068,0.366,12.085,-13.55,-38.025
0.86,-0.077,0.36,10.742,-11.536,-37.659
0.865,-0.091,0.363,10.254,-8.057,-38.696
0.878,-0.1,0.368,9.888,-4.517,-41.016
0.901,-0.111,0.372,10.132,-2.075,-42.908
0.935,-0.126,0.376,9.827,-0.61,-44.189
0.961,-0.139,0.378,9.521,-0.427,-44.739
0.983,-0.146,0.381,8.911,-1.831,-44.189
1.001,-0.155,0.382,8.85,-4.578,-43.274
1.014,-0.167,0.378,8.606,-8.179,-41.504
1.029,-0.179,0.381,8.667,-12.512,-39.307
1.031,-0.184,0.382,8.423,-17.273,-36.682
1.031,-0.187,0.38,7.935,-22.217,-34.058
1.028,-0.194,0.38,7.69,-25.635,-31.921
1.006,-0.202,0.371,8.179,-27.222,-30.09
0.989,-0.21,0.36,8.911,-26.733,-28.32
0.964,-0.215,0.356,9.338,-23.56,-26.978
0.948,-0.216,0.354,9.644,-17.822,-25.696
0.935,-0.219,0.355,9.766,-10.437,-24.597
0.931,-0.232,0.355,9.766,-2.625,-23.437
0.942,-0.24,0.357,9.216,4.517,-22.034
0.96,-0.245,0.36,8.179,10.376,-21.179
0.977,-0.251,0.365,7.69,14.343,-20.447
0.991,-0.251,0.375,6.714,16.541,-20.02
1.005,-0.25,0.383,6.165,16.541,-18.982
1.024,-0.252,0.39,6.165,14.343,-17.639
1.039,-0.254,0.397,6.714,10.376,-15.93
1.036,-0.255,0.4,7.629,5.066,-14.404
1.012,-0.255,0.395,9.399,-0.122,-13.55
0.979,-0.259,0.384,10.376,-3.54,-12.268
0.939,-0.267,0.371,11.047,-5.066,-11.108
0.896,-0.272,0.354,10.986,-4.089,-9.888
0.863,-0.272,0.342,10.376,-0.549,-8.484
0.876,-0.277,0.343,9.338,4.7,-7.202
0.907,-0.283,0.351,8.85,10.193,-6.775
0.923,-0.284,0.351,7.935,13.855,-6.409
0.947,-0.28,0.354,7.08,15.259,-5.92
0.972,-0.274,0.357,6.348,13.977,-4.517
0.979,-0.272,0.357,5.554,10.132,-2.38
0.982,-0.27,0.356,4.7,4.15,0.732
0.97,-0.267,0.347,3.906,-2.502,3.967
0.937,-0.264,0.331,2.869,-8.789,7.019
0.906,-0.261,0.315,2.258,-13.733,9.277
0.883,-0.26,0.302,2.502,-16.846,10.437
0.866,-0.262,0.298,3.479,-18.494,10.376
0.864,-0.269,0.302,4.578,-18.738,9.583
0.866,-0.283,0.31,5.859,-18.433,8.911
0.868,-0.301,0.318,7.202,-18.066,8.545
0.863,-0.314,0.323,8.545,-17.151,8.423
0.861,-0.325,0.328,9.521,-15.442,8.606
0.864,-0.333,0.329,10.01,-13.123,8.728
0.859,-0.338,0.324,10.62,-10.986,8.423
0.861,-0.343,0.321,10.315,-8.24,7.69
0.866,-0.343,0.324,10.193,-4.578,6.226
0.872,-0.337,0.325,9.827,-0.854,4.639
0.871,-0.329,0.325,9.521,2.686,3.052
0.875,-0.324,0.322,9.949,5.92,1.709
0.877,-0.318,0.318,10.376,8.423,0.305
0.893,-0.31,0.323,10.376,10.803,-0.61
4.0,0.665,3.989,240.051,62.805,-186.34
4.0,-0.643,4.0,183.044,-167.969,-183.411
4.0,-2.815,3.727,120.605,-251.465,-28.32
2.464,-1.758,1.171,-11.841,-314.941,127.441
0.329,-0.962,0.285,-97.9,-236.938,229.004
-0.523,-0.755,-0.129,-149.109,-129.089,219.238
-0.855,-0.681,-0.338,-173.096,-32.654,180.054
-0.959,-0.479,-0.467,-177.612,59.692,162.048
-0.742,-0.465,-0.803,-183.716,134.216,165.161
-0.3,-0.496,-0.308,-189.758,202.942,157.227
-0.3,-0.335,-0.539,-197.754,229.126,133.728
-0.383,-0.196,-0.298,-191.711,258.545,138.245
-0.107,-0.097,0.044,-185.059,276.794,156.677
0.114,0.005,0.07,-169.739,263.733,166.199
-0.023,-0.01,-0.021,-146.484,229.797,176.88
0.006,-0.122,0.068,-123.84,198.73,180.237
0.157,0.177,0.12,-104.858,155.518,172.913
0.113,0.109,0.167,-75.378,110.291,178.162
-0.012,0.024,0.182,-48.706,59.814,174.438
0.054,0.114,0.165,-32.471,10.376,158.203
-0.033,0.127,0.112,-14.221,-31.494,142.822
-0.151,0.134,0.075,2.014,-65.002,119.69
-0.151,0.187,0.042,16.418,-89.783,91.064
-0.134,0.198,0.02,31.494,-106.628,62.683
-0.203,0.151,-0.003,45.349,-116.272,35.767
-0.222,0.094,-0.023,55.054,-119.08,6.836
-0.175,0.069,0.003,61.401,-112.976,-20.813
-0.095,0.042,0.034,66.162,-100.525,-44.067
-0.002,-0.005,0.064,67.383,-85.632,-61.951
0.116,-0.042,0.105,65.613,-69.336,-76.66
0.257,-0.073,0.172,61.279,-52.979,-85.999
0.406,-0.093,0.238,54.382,-38.879,-89.6
0.521,-0.105,0.285,45.959,-28.931,-90.027
0.595,-0.1,0.312,38.33,-22.095,-90.088
0.634,-0.083,0.329,31.433,-15.808,-89.05
0.646,-0.059,0.332,25.146,-8.301,-85.876
0.668,-0.038,0.327,20.203,0.549,-81.482
0.709,-0.019,0.328,17.578,11.597,-77.576
0.757,-0.004,0.335,16.968,22.156,-75.439
0.779,-0.0,0.345,17.883,30.09,-74.097
0.85,-0.01,0.367,18.616,34.607,-73.792
0.961,-0.03,0.391,20.264,35.4,-75.806
1.022,-0.041,0.411,22.522,31.372,-79.956
1.047,-0.045,0.423,24.902,23.376,-83.496
1.062,-0.046,0.43,26.611,13.123,-84.656
1.052,-0.044,0.424,28.32,2.686,-83.801
1.021,-0.041,0.41,29.663,-5.066,-82.031
1.009,-0.043,0.406,31.677,-9.888,-80.139
1.001,-0.049,0.412,33.264,-11.963,-78.247
0.984,-0.049,0.414,34.668,-11.78,-77.393
0.997,-0.059,0.423,36.072,-9.277,-77.759
1.031,-0.073,0.431,37.842,-5.005,-79.102
1.046,-0.081,0.442,39.063,-0.427,-79.895
1.052,-0.087,0.452,39.124,3.479,-78.735
1.054,-0.093,0.452,38.33,6.409,-75.867
1.042,-0.087,0.453,36.865,8.301,-71.838
1.039,-0.109,0.45,35.339,9.827,-67.078
1.05,-0.099,0.49,34.119,10.315,-64.27
1.058,-0.088,0.483,33.325,5.981,-61.89
1.063,-0.089,0.492,33.63,-0.549,-59.753
1.029,-0.107,0.481,34.729,-8.728,-57.861
0.99,-0.109,0.469,35.461,-16.235,-57.007
0.965,-0.124,0.463,35.645,-21.545,-55.908
0.94,-0.142,0.456,35.278,-24.719,-54.626
0.927,-0.161,0.454,33.63,-25.94,-53.284
0.918,-0.171,0.45,31.128,-25.085,-51.88
0.914,-0.185,0.443,28.87,-23.132,-50.598
0.912,-0.196,0.439,26.428,-19.226,-50.049
0.923,-0.201,0.448,25.024,-13.794,-50.781
0.941,-0.2,0.456,24.231,-8.423,-51.575
0.951,-0.205,0.459,23.621,-4.028,-51.758
0.963,-0.211,0.453,22.644,-0.305,-50.537
0.97,-0.21,0.453,21.423,4.15,-48.645
0.971,-0.214,0.448,20.264,9.033,-45.593
0.981,-0.22,0.448,19.409,13.794,-42.053
1.005,-0.232,0.456,17.761,18.494,-38.818
1.024,-0.249,0.458,16.418,21.851,-36.743
1.038,-0.261,0.46,15.015,23.621,-35.828
1.051,-0.28,0.462,13.489,24.536,-35.339
1.072,-0.307,0.463,12.024,25.269,-35.339
1.092,-0.323,0.467,11.292,26.306,-36.438
1.118,-0.322,0.475,11.414,28.687,-38.513
1.168,-0.319,0.49,13.306,31.25,-41.26
1.25,-0.313,0.519,16.357,32.837,-43.03
1.318,-0.297,0.551,19.714,30.273,-42.603
1.333,-0.284,0.564,22.949,22.583,-39.063
1.319,-0.281,0.557,25.33,10.864,-32.471
1.272,-0.279,0.54,25.818,-1.709,-23.56
1.187,-0.279,0.511,25.208,-13.0,-13.855
1.087,-0.281,0.481,22.827,-22.095,-4.028
0.991,-0.283,0.448,18.188,-27.649,5.371
0.897,-0.286,0.412,12.451,-30.09,13.977
0.81,-0.289,0.379,6.042,-29.48,20.447
0.741,-0.288,0.351,-0.488,-26.001,24.963
0.698,-0.284,0.329,-5.859,-20.447,27.283
0.673,-0.28,0.315,-10.01,-13.794,27.344
0.663,-0.276,0.305,-12.695,-8.057,26.306
0.666,-0.274,0.301,-13.855,-3.174,24.475
0.678,-0.277,0.301,-13.245,0.244,22.339
0.696,-0.287,0.305,-11.658,2.808,20.386
0.714,-0.3,0.313,-9.155,4.272,17.944
0.735,-0.317,0.33,-6.409,5.249,15.381
0.771,-0.342,0.343,-4.028,5.859,12.268
0.814,-0.374,0.356,-1.526,6.226,7.935
0.871,-0.404,0.38,0.366,6.592,2.258
0.941,-0.427,0.406,1.709,6.165,-3.418
1.005,-0.447,0.426,1.953,3.845,-8.179
1.06,-0.458,0.443,0.854,0.244,-11.414
1.087,-0.45,0.452,-1.587,-4.761,-11.902
1.083,-0.431,0.444,-3.845,-10.132,-10.132
1.046,-0.402,0.426,-6.348,-13.916,-7.019
0.988,-0.365,0.407,-7.69,-14.893,-3.723
0.922,-0.33,0.384,-8.362,-12.451,-0.61
0.856,-0.298,0.361,-8.423,-7.202,2.38
0.804,-0.272,0.344,-7.874,-0.061,4.578
0.763,-0.251,0.33,-6.653,7.996,6.165
0.742,-0.24,0.321,-5.554,15.747,6.958
0.734,-0.234,0.321,-4.395,21.606,7.263
0.744,-0.23,0.324,-3.479,25.269,7.202
4.0,0.599,4.0,114.563,71.045,-195.374
4.0,-2.864,4.0,46.753,-4.333,-13.916
4.0,-1.699,2.116,-59.631,-91.919,212.585
0.825,-0.791,0.516,-145.264,-39.612,332.642
-0.558,-1.638,-0.051,-178.04,58.655,320.068
-0.498,-1.272,-0.345,-200.623,150.269,230.286
-0.318,-0.738,-0.651,-204.956,202.209,175.537
-0.441,-0.254,-0.449,-194.702,237.793,192.2
-0.204,-0.561,-0.817,-190.063,254.456,225.22
0.44,-0.631,-0.503,-181.152,285.767,219.91
0.297,-0.415,-0.085,-162.17,279.48,205.872
0.148,-0.296,0.125,-130.981,249.329,216.553
0.249,-0.178,0.083,-117.981,178.04,225.769
0.497,-0.307,-0.017,-101.379,114.075,232.3
0.161,-0.315,-0.008,-79.956,59.387,225.525
0.041,-0.181,-0.064,-62.805,10.376,214.783
-0.075,-0.072,-0.102,-43.03,-27.222,204.224
-0.245,-0.048,-0.096,-21.545,-53.589,189.758
-0.304,0.024,-0.119,-3.906,-73.12,168.64
-0.33,0.087,-0.13,12.39,-81.726,148.193
-0.35,0.117,-0.138,26.794,-85.083,125.732
-0.403,0.137,-0.171,39.185,-85.205,99.976
-0.312,0.21,-0.121,49.133,-81.421,70.557
-0.229,0.255,-0.102,58.289,-79.102,42.542
-0.221,0.213,-0.123,66.956,-79.529,15.503
-0.199,0.19,-0.097,71.594,-75.623,-9.888
-0.136,0.173,-0.07,74.463,-68.542,-31.921
-0.05,0.14,-0.046,75.684,-60.486,-50.293
0.022,0.1,-0.024,74.524,-51.819,-63.66
0.112,0.066,0.002,71.228,-43.274,-73.303
0.223,0.042,0.036,65.369,-35.339,-79.651
0.346,0.011,0.069,56.641,-28.198,-81.604
0.49,-0.022,0.099,45.105,-21.973,-79.651
0.617,-0.037,0.119,32.043,-17.761,-76.599
0.7,-0.03,0.131,19.409,-15.198,-73.242
0.758,-0.011,0.145,9.094,-12.756,-70.129
0.812,0.024,0.149,1.465,-9.277,-67.688
0.85,0.068,0.146,-2.38,-3.662,-65.43
0.888,0.109,0.156,-2.258,4.211,-64.453
0.924,0.139,0.167,1.221,13.184,-64.697
0.946,0.154,0.179,6.714,21.79,-66.223
0.964,0.141,0.195,13.245,29.724,-67.322
0.978,0.118,0.21,18.494,36.926,-66.772
1.009,0.091,0.227,22.583,40.833,-65.552
1.074,0.057,0.252,25.94,40.161,-64.514
1.148,0.015,0.278,28.32,34.668,-64.697
1.166,-0.002,0.3,29.663,25.391,-67.139
1.149,-0.002,0.311,31.006,13.123,-69.946
1.15,-0.003,0.324,31.799,0.427,-70.74
1.15,-0.014,0.327,31.982,-10.62,-69.763
1.124,-0.02,0.322,32.288,-19.47,-69.092
1.088,-0.028,0.319,32.593,-24.475,-68.115
1.064,-0.04,0.316,33.142,-25.94,-66.345
1.034,-0.05,0.316,34.119,-25.269,-63.599
1.015,-0.056,0.307,33.752,-23.132,-60.486
0.985,-0.07,0.282,33.081,-18.677,-57.373
0.979,-0.091,0.288,31.494,-11.047,-55.664
0.962,-0.079,0.285,28.748,-3.662,-56.519
0.942,-0.07,0.267,25.696,2.014,-57.678
1.004,-0.09,0.276,23.376,8.301,-57.8
1.009,-0.088,0.269,21.484,12.024,-58.411
1.0,-0.07,0.272,20.02,13.611,-57.678
1.044,-0.068,0.286,19.775,13.977,-55.603
1.05,-0.073,0.288,20.203,12.085,-53.589
1.007,-0.08,0.283,20.081,9.521,-51.147
1.021,-0.076,0.291,19.592,7.629,-48.096
1.034,-0.095,0.276,18.799,6.47,-43.823
1.0,-0.121,0.257,17.761,6.042,-40.71
1.006,-0.12,0.266,16.174,7.874,-39.246
1.01,-0.127,0.262,14.832,9.521,-38.086
1.006,-0.132,0.258,13.672,10.01,-37.476
0.999,-0.13,0.251,12.512,10.376,-37.659
0.977,-0.125,0.238,11.475,10.681,-37.903
0.955,-0.125,0.228,10.681,10.803,-38.696
0.947,-0.137,0.217,9.949,10.559,-39.856
0.96,-0.162,0.209,9.033,10.071,-42.358
1.0,-0.2,0.205,8.179,9.644,-46.326
1.042,-0.233,0.203,7.324,9.583,-50.964
1.077,-0.245,0.205,6.531,9.705,-55.786
1.134,-0.255,0.21,6.592,10.132,-59.082
1.192,-0.26,0.213,7.446,9.949,-60.73
1.2,-0.248,0.212,9.644,9.094,-60.73
1.22,-0.244,0.212,12.939,7.385,-58.777
1.265,-0.243,0.225,16.113,5.981,-54.81
1.273,-0.233,0.239,18.982,3.601,-49.011
1.268,-0.221,0.244,22.339,-0.427,-41.321
1.256,-0.22,0.24,25.269,-5.127,-32.837
1.22,-0.219,0.236,27.649,-9.644,-24.048
1.163,-0.219,0.224,29.602,-14.221,-15.686
1.117,-0.226,0.219,30.396,-17.883,-8.057
1.074,-0.233,0.214,30.579,-20.813,-2.319
1.023,-0.236,0.21,30.151,-23.437,2.014
0.984,-0.244,0.209,29.114,-25.574,6.104
0.948,-0.254,0.211,27.71,-27.283,9.338
0.904,-0.26,0.215,26.367,-27.954,11.475
0.865,-0.258,0.215,24.17,-27.588,12.268
0.844,-0.258,0.218,22.034,-25.818,11.78
0.837,-0.268,0.219,19.836,-22.827,10.071
0.841,-0.282,0.221,17.212,-18.799,7.507
0.857,-0.295,0.226,14.526,-14.587,4.395
0.89,-0.305,0.234,11.902,-10.437,0.61
0.938,-0.328,0.244,8.484,-7.263,-2.441
0.989,-0.348,0.259,5.188,-4.578,-4.822
1.033,-0.359,0.277,2.38,-3.845,-7.446
1.076,-0.362,0.286,0.0,-4.944,-9.216
1.098,-0.361,0.275,-2.075,-7.385,-9.888
1.102,-0.351,0.273,-3.845,-9.888,-9.705
1.089,-0.335,0.266,-5.005,-12.451,-8.85
1.059,-0.321,0.245,-5.737,-14.771,-7.019
1.025,-0.306,0.236,-6.348,-14.832,-4.822
0.982,-0.281,0.222,-6.165,-12.939,-3.113
0.926,-0.256,0.209,-5.432,-9.583,-0.854
0.889,-0.247,0.201,-4.272,-4.272,1.404
0.875,-0.243,0.198,-3.54,1.77,2.869
0.86,-0.239,0.201,-3.235,7.446,3.113
0.851,-0.23,0.201,-3.052,11.353,2.747
0.85,-0.225,0.2,-3.052,13.123,2.441
0.851,-0.223,0.202,-3.418,13.367,2.014
0.856,-0.223,0.204,-4.028,12.39,1.831
4.0,1.479,2.986,126.648,-83.069,-207.153
4.0,-1.845,3.326,147.949,-272.644,-134.644
4.0,-2.576,1.369,32.104,-382.263,11.23
1.303,-1.707,-0.17,-56.396,-312.561,222.656
-1.151,-0.726,-0.481,-92.773,-113.953,236.694
-0.671,-0.402,-0.239,-99.365,88.989,207.52
0.047,-0.46,-0.13,-119.202,204.407,205.933
-0.009,-0.497,-0.196,-136.902,256.104,218.933
-0.399,-0.357,-0.004,-143.066,274.17,228.027
0.645,0.022,0.129,-148.254,258.484,239.075
0.466,-0.414,0.386,-133.789,222.412,266.968
0.301,-0.443,0.223,-120.3,159.973,260.254
0.132,-0.138,0.261,-103.455,111.206,247.986
0.32,-0.207,0.206,-76.172,59.57,252.563
0.327,-0.337,0.167,-48.34,5.859,243.53
0.158,-0.261,0.1,-25.391,-49.927,213.501
-0.075,-0.223,0.096,-2.93,-91.797,190.491
-0.209,-0.118,0.054,11.414,-122.925,162.415
-0.232,-0.061,0.026,23.56,-137.39,139.771
-0.35,-0.067,0.005,35.4,-138.916,120.85
-0.4,-0.025,0.0,44.312,-131.287,100.403
-0.358,0.061,0.023,52.49,-115.906,80.688
-0.363,0.031,0.016,60.364,-100.708,63.721
-0.349,0.021,0.032,64.514,-85.022,41.809
-0.164,0.103,0.073,64.392,-67.444,18.677
-0.076,0.078,0.092,64.27,-51.086,5.188
-0.017,-0.039,0.105,60.608,-39.001,-5.859
0.08,-0.097,0.112,52.185,-29.114,-21.973
0.168,-0.106,0.127,42.053,-19.653,-38.147
0.323,-0.078,0.177,32.043,-11.719,-50.11
0.443,-0.081,0.191,22.217,-9.216,-55.664
0.507,-0.124,0.185,13.184,-9.338,-57.678
0.601,-0.131,0.202,5.981,-9.949,-60.303
0.714,-0.109,0.205,1.404,-12.634,-63.782
0.781,-0.102,0.195,-0.183,-16.724,-66.284
0.838,-0.072,0.212,0.061,-19.592,-67.566
0.865,-0.05,0.208,1.77,-22.217,-66.345
0.873,-0.017,0.219,5.737,-23.56,-64.087
0.857,-0.004,0.214,10.376,-23.01,-61.523
0.835,-0.002,0.208,15.564,-20.691,-58.35
0.791,0.005,0.208,20.02,-16.846,-56.091
0.751,-0.007,0.169,23.315,-11.414,-53.772
0.753,-0.008,0.198,25.757,-2.563,-52.429
0.741,-0.017,0.188,26.489,5.127,-50.415
0.726,-0.058,0.188,25.696,11.108,-49.194
0.746,-0.067,0.203,23.499,16.846,-51.453
0.749,-0.066,0.207,20.569,19.531,-55.054
0.75,-0.072,0.208,17.639,20.63,-58.655
0.779,-0.085,0.211,15.686,20.508,-63.232
0.825,-0.081,0.234,15.015,20.508,-69.275
0.838,-0.081,0.249,15.808,18.982,-75.073
0.846,-0.076,0.265,18.127,16.113,-79.529
0.861,-0.088,0.278,20.447,12.695,-81.177
0.86,-0.109,0.278,21.606,9.155,-80.322
0.851,-0.122,0.275,22.034,6.226,-79.346
0.845,-0.144,0.265,22.034,4.883,-78.796
0.848,-0.161,0.265,21.301,5.798,-78.369
0.849,-0.16,0.275,19.47,8.606,-77.393
0.837,-0.153,0.276,18.005,10.498,-75.623
0.834,-0.16,0.277,16.113,11.78,-73.303
0.849,-0.175,0.259,14.221,12.695,-72.144
0.745,-0.196,0.179,13.367,16.846,-73.547
0.881,-0.189,0.285,13.977,28.381,-77.82
0.952,-0.222,0.281,14.832,31.433,-83.191
1.045,-0.215,0.314,15.564,29.48,-88.318
1.032,-0.232,0.316,15.747,22.827,-89.233
1.067,-0.258,0.321,15.991,15.381,-87.097
1.084,-0.276,0.315,16.357,9.033,-83.191
1.074,-0.263,0.319,17.517,4.883,-79.407
1.077,-0.262,0.337,18.677,1.16,-74.219
1.108,-0.278,0.339,19.714,-2.014,-70.618
1.104,-0.292,0.331,20.142,-3.235,-68.97
1.08,-0.302,0.327,20.874,-1.892,-68.237
1.049,-0.311,0.319,20.874,1.465,-67.566
1.025,-0.323,0.319,20.325,6.104,-66.101
1.049,-0.35,0.327,20.325,11.414,-65.247
1.101,-0.383,0.341,20.203,16.602,-66.345
1.145,-0.407,0.36,20.142,21.851,-68.42
1.192,-0.432,0.38,20.752,24.658,-69.763
1.262,-0.456,0.404,21.667,24.292,-69.397
1.319,-0.466,0.423,23.193,20.386,-69.031
1.354,-0.461,0.431,25.94,14.16,-69.58
1.378,-0.444,0.434,29.114,7.935,-69.824
1.38,-0.424,0.444,31.372,2.502,-67.078
1.357,-0.408,0.448,33.142,-2.625,-60.425
1.316,-0.39,0.45,34.241,-6.592,-51.697
1.255,-0.366,0.448,34.241,-9.155,-41.443
1.19,-0.362,0.44,33.142,-10.925,-30.151
1.131,-0.349,0.427,29.846,-11.841,-19.592
1.088,-0.337,0.415,25.146,-12.329,-9.766
1.028,-0.332,0.397,19.714,-12.878,-0.854
0.969,-0.327,0.377,13.611,-14.282,7.08
0.906,-0.319,0.352,7.629,-16.235,13.672
0.858,-0.31,0.337,2.014,-17.639,18.311
0.829,-0.304,0.322,-2.563,-18.86,21.057
0.814,-0.307,0.312,-5.676,-19.592,21.851
0.811,-0.312,0.312,-7.141,-19.47,20.813
0.808,-0.325,0.303,-7.324,-19.836,18.921
0.816,-0.352,0.301,-7.507,-19.653,16.846
0.839,-0.369,0.306,-7.507,-19.043,14.221
0.864,-0.392,0.305,-8.057,-18.25,11.841
0.919,-0.421,0.323,-8.24,-16.602,9.338
0.987,-0.445,0.341,-7.935,-16.235,6.653
1.016,-0.466,0.354,-7.812,-18.066,3.784
1.046,-0.483,0.365,-8.24,-20.752,0.671
1.06,-0.494,0.364,-8.606,-23.132,-1.831
1.048,-0.499,0.357,-9.583,-24.048,-2.93
1.031,-0.497,0.347,-11.292,-22.888,-3.052
1.01,-0.484,0.334,-12.817,-19.531,-2.502
0.983,-0.459,0.326,-13.916,-14.282,-1.282
0.948,-0.431,0.315,-15.076,-8.179,0.427
0.921,-0.407,0.302,-15.381,-1.953,2.197
0.889,-0.382,0.292,-15.869,4.15,4.395
0.849,-0.354,0.281,-16.235,9.216,6.836
0.801,-0.325,0.267,-16.357,13.0,9.277
0.765,-0.301,0.256,-15.808,15.381,11.78
0.736,-0.282,0.251,-15.015,16.846,13.428
0.715,-0.27,0.247,-13.489,17.029,13.977
0.704,-0.261,0.246,-11.841,16.846,13.855
1.262,-4.0,4.0,31.067,279.968,-207.764
2.942,-1.232,4.0,-240.295,162.598,50.232
2.642,-0.243,3.793,-358.398,194.092,140.93
1.039,-1.113,1.445,-337.219,146.179,81.177
-0.208,-0.867,0.373,-231.934,105.469,68.726
0.031,-0.586,0.082,-157.288,61.89,61.218
0.266,-0.501,-0.027,-130.737,28.687,55.542
0.196,-0.649,-0.092,-134.705,7.08,49.194
-0.063,-0.456,-0.359,-150.513,-6.836,44.128
-0.167,-0.342,-0.527,-157.715,8.362,57.983
-0.272,-0.256,-0.567,-157.043,38.33,71.533
-0.308,-0.296,-0.408,-152.161,65.063,74.829
-0.307,-0.195,-0.376,-148.437,67.81,65.735
-0.189,-0.067,-0.338,-146.484,66.589,61.34
-0.06,0.002,-0.326,-145.447,63.721,63.538
-0.045,0.031,-0.283,-142.09,62.866,69.031
-0.042,0.037,-0.171,-136.78,58.96,73.425
-0.046,0.103,-0.159,-130.493,46.448,74.463
-0.044,0.159,-0.138,-121.216,34.546,75.684
-0.013,0.187,-0.055,-109.802,24.719,77.026
0.025,0.191,-0.005,-97.29,11.78,75.317
0.039,0.198,0.031,-82.825,-1.343,68.359
0.037,0.21,0.061,-66.345,-12.695,57.556
0.025,0.219,0.077,-48.584,-22.949,45.044
0.02,0.209,0.099,-29.541,-29.785,31.555
0.025,0.18,0.129,-8.911,-33.142,16.541
0.031,0.145,0.165,11.902,-32.959,0.977
0.057,0.104,0.222,34.302,-29.419,-14.038
0.103,0.05,0.279,57.617,-22.949,-28.381
0.158,0.009,0.337,81.238,-13.123,-40.894
0.262,-0.058,0.509,104.004,-2.197,-49.133
0.392,-0.134,0.572,122.864,-0.793,-53.589
0.468,-0.203,0.579,135.986,-2.563,-53.833
0.473,-0.272,0.632,145.935,0.061,-49.316
0.477,-0.327,0.691,150.513,1.892,-43.213
0.5,-0.36,0.722,149.536,0.854,-36.072
0.518,-0.395,0.74,144.348,-0.488,-27.527
0.517,-0.436,0.759,136.047,-0.732,-19.409
0.502,-0.458,0.773,123.779,0.061,-13.55
0.501,-0.453,0.776,109.253,2.075,-10.315
0.506,-0.447,0.768,94.36,5.859,-8.667
0.492,-0.448,0.751,81.238,11.292,-8.972
0.474,-0.438,0.736,71.106,17.395,-10.803
0.488,-0.432,0.734,65.063,23.499,-13.428
0.5,-0.427,0.736,63.11,28.076,-16.113
0.517,-0.419,0.755,64.575,30.64,-18.616
0.548,-0.421,0.778,68.848,30.396,-20.203
0.552,-0.422,0.789,75.256,26.978,-20.508
0.524,-0.419,0.78,81.299,21.118,-19.47
0.501,-0.423,0.766,86.365,15.076,-17.7
0.493,-0.443,0.756,91.003,10.925,-16.052
0.468,-0.46,0.747,94.91,9.155,-15.076
0.447,-0.476,0.74,96.924,10.071,-15.625
0.461,-0.497,0.74,98.389,13.062,-17.395
0.489,-0.52,0.737,99.854,17.578,-20.386
0.499,-0.531,0.731,101.074,23.987,-23.865
0.503,-0.531,0.736,100.525,30.945,-26.733
0.539,-0.549,0.75,98.022,36.438,-28.137
0.587,-0.565,0.748,94.116,38.452,-28.625
0.609,-0.576,0.744,89.6,38.147,-27.71
0.603,-0.586,0.742,84.839,36.682,-25.452
0.607,-0.61,0.761,79.529,34.607,-23.132
0.633,-0.629,0.778,73.181,30.029,-21.973
0.642,-0.638,0.776,66.04,23.193,-21.057
0.628,-0.648,0.771,59.204,16.968,-20.63
0.632,-0.663,0.78,53.04,12.146,-21.057
0.631,-0.674,0.771,47.607,7.874,-21.973
0.623,-0.674,0.759,41.626,4.578,-22.827
0.624,-0.67,0.756,37.109,3.052,-23.56
0.627,-0.664,0.75,33.936,2.136,-23.437
0.619,-0.658,0.74,30.457,2.441,-22.339
0.609,-0.654,0.732,27.161,3.906,-20.02
0.606,-0.658,0.728,24.78,6.592,-16.968
0.608,-0.67,0.726,22.522,9.766,-13.855
0.608,-0.675,0.721,20.874,12.756,-10.986
0.61,-0.677,0.712,19.348,15.076,-8.667
0.604,-0.682,0.7,17.09,16.541,-6.104
0.596,-0.69,0.687,13.611,17.517,-3.723
0.617,-0.718,0.687,10.62,17.578,-2.258
0.643,-0.747,0.693,9.033,16.724,-1.526
0.649,-0.757,0.699,9.583,14.832,-1.892
0.65,-0.75,0.707,11.78,12.085,-2.869
0.665,-0.748,0.727,16.357,9.338,-4.15
0.684,-0.754,0.75,22.705,6.287,-6.653
0.68,-0.745,0.764,28.564,2.319,-9.216
0.66,-0.731,0.769,31.738,-1.465,-10.193
0.642,-0.727,0.763,32.166,-4.944,-8.911
0.624,-0.731,0.751,29.907,-8.362,-6.104
0.598,-0.725,0.73,23.987,-11.23,-2.991
0.558,-0.71,0.7,14.465,-13.367,0.427
0.518,-0.691,0.664,2.441,-14.221,4.761
0.486,-0.669,0.623,-10.925,-13.184,8.606
0.458,-0.646,0.59,-23.621,-10.742,11.597
0.433,-0.622,0.561,-34.607,-7.324,13.367
0.415,-0.6,0.531,-43.152,-3.357,14.465
0.406,-0.579,0.508,-48.889,0.305,15.015
0.406,-0.565,0.5,-51.27,4.272,15.747
0.418,-0.56,0.494,-50.72,7.751,15.869
0.432,-0.561,0.492,-47.363,10.132,15.625
0.447,-0.566,0.495,-42.358,11.658,14.954
0.468,-0.576,0.502,-35.583,12.695,13.794
0.504,-0.594,0.518,-28.137,12.695,11.841
0.541,-0.616,0.538,-20.691,11.536,9.399
0.572,-0.639,0.562,-13.672,9.338,6.287
0.602,-0.657,0.585,-7.324,5.737,2.869
0.625,-0.671,0.604,-1.77,1.465,0.0
0.641,-0.682,0.616,2.686,-2.808,-1.648
0.646,-0.689,0.625,5.493,-6.714,-1.77
0.641,-0.687,0.631,6.409,-9.644,-0.916
0.634,-0.682,0.634,6.226,-11.719,0.854
0.618,-0.667,0.628,4.395,-12.756,2.686
0.595,-0.645,0.62,1.038,-12.634,4.883
0.572,-0.623,0.606,-3.113,-11.597,7.446
0.545,-0.591,0.587,-7.08,-9.888,9.766
0.523,-0.562,0.569,-11.414,-7.996,12.268
0.509,-0.537,0.554,-14.343,-5.676,14.404
0.502,-0.517,0.546,-16.113,-3.906,16.235
0.502,-0.501,0.545,-16.846,-3.357,17.761
0.509,-0.487,0.544,-16.052,-3.723,18.494
0.67,-4.0,4.0,-28.015,222.839,-244.141
2.472,-1.277,3.465,-265.198,163.879,44.8
2.499,-0.286,3.712,-361.084,213.562,157.104
1.226,-1.122,1.536,-330.2,249.878,95.947
0.21,-0.986,0.734,-234.314,244.263,97.107
0.345,-0.918,0.406,-175.842,168.152,83.13
0.652,-0.667,-0.034,-151.794,89.6,67.383
0.773,-0.768,-0.083,-139.404,59.753,60.059
0.433,-0.642,-0.244,-136.108,35.4,51.27
0.185,-0.464,-0.356,-134.949,23.132,56.152
0.165,-0.395,-0.316,-134.094,21.545,68.481
0.125,-0.354,-0.351,-128.967,10.071,75.989
0.044,-0.283,-0.32,-119.751,-8.24,76.477
0.007,-0.19,-0.332,-112.427,-31.494,73.242
0.039,-0.125,-0.342,-106.262,-49.438,72.266
0.043,-0.074,-0.332,-98.328,-61.218,70.984
0.001,-0.025,-0.311,-89.355,-68.848,69.214
-0.025,0.014,-0.249,-79.834,-73.425,67.688
-0.029,0.047,-0.191,-70.801,-78.796,66.956
-0.047,0.068,-0.175,-62.805,-83.984,66.04
-0.099,0.091,-0.167,-55.786,-84.717,63.477
-0.141,0.114,-0.137,-47.974,-79.773,59.387
-0.168,0.134,-0.119,-38.757,-72.083,53.772
-0.195,0.146,-0.11,-28.748,-61.218,47.302
-0.206,0.145,-0.081,-17.212,-46.936,39.978
-0.189,0.117,-0.025,-4.822,-31.433,32.166
-0.149,0.062,0.041,9.277,-16.846,22.888
-0.101,0.005,0.107,23.987,-5.066,11.292
-0.023,-0.051,0.193,40.588,4.089,-2.319
0.079,-0.122,0.291,60.364,10.254,-17.639
0.176,-0.194,0.38,82.031,11.658,-34.119
0.252,-0.259,0.448,102.722,9.216,-49.194
0.317,-0.316,0.505,120.605,4.883,-60.059
0.385,-0.381,0.565,133.789,0.427,-64.331
0.43,-0.453,0.615,142.029,-2.991,-62.5
0.436,-0.518,0.657,143.616,-5.066,-56.885
0.414,-0.569,0.683,138.306,-4.211,-48.645
0.403,-0.599,0.701,128.113,0.061,-39.49
0.431,-0.63,0.73,116.821,7.385,-31.738
0.464,-0.646,0.755,105.53,15.503,-25.94
0.5,-0.634,0.784,94.238,22.827,-21.423
0.543,-0.633,0.81,84.961,29.419,-17.822
0.548,-0.635,0.808,77.759,33.447,-15.198
0.531,-0.62,0.801,70.862,35.95,-14.282
0.548,-0.624,0.806,67.261,37.17,-14.465
0.578,-0.632,0.814,67.139,35.4,-15.93
0.589,-0.629,0.824,68.42,30.884,-17.578
0.578,-0.623,0.833,69.458,24.353,-18.494
0.563,-0.62,0.839,70.679,16.846,-18.066
0.561,-0.63,0.852,72.388,9.949,-16.907
0.562,-0.646,0.862,75.378,3.906,-15.93
0.537,-0.657,0.862,78.369,-0.183,-14.832
0.504,-0.663,0.85,80.261,-1.587,-13.855
0.483,-0.667,0.845,80.627,-0.305,-13.123
0.477,-0.672,0.846,79.651,3.845,-12.634
0.482,-0.681,0.845,77.82,9.827,-12.451
0.477,-0.68,0.838,75.256,16.418,-12.695
0.482,-0.678,0.834,72.327,23.132,-12.39
0.506,-0.69,0.833,69.458,29.358,-11.78
0.543,-0.714,0.842,65.918,33.813,-11.597
0.576,-0.726,0.852,60.913,35.156,-11.841
0.593,-0.722,0.851,55.115,33.447,-11.597
0.606,-0.726,0.849,48.828,29.968,-10.559
0.603,-0.726,0.846,42.419,25.024,-8.972
0.585,-0.718,0.836,35.828,18.616,-6.775
0.564,-0.701,0.813,29.419,12.268,-4.333
0.536,-0.683,0.789,23.926,7.385,-2.38
0.507,-0.676,0.766,18.86,4.639,-0.366
0.487,-0.675,0.747,14.465,3.967,1.587
0.473,-0.681,0.726,10.925,4.822,3.296
0.472,-0.701,0.725,8.057,6.714,4.761
0.483,-0.725,0.723,6.165,8.667,5.798
0.51,-0.766,0.731,4.944,10.437,6.226
0.566,-0.813,0.755,5.798,10.132,5.493
0.619,-0.835,0.791,9.216,7.263,3.357
0.646,-0.836,0.822,14.587,2.258,0.977
0.665,-0.824,0.841,20.508,-4.7,-0.916
0.679,-0.811,0.846,26.245,-12.39,-2.197
0.672,-0.804,0.843,29.968,-19.409,-1.953
0.623,-0.791,0.826,30.09,-24.963,0.122
0.551,-0.769,0.797,24.78,-28.076,4.089
0.49,-0.741,0.754,14.648,-28.259,8.911
0.427,-0.713,0.701,0.793,-25.33,14.038
0.366,-0.686,0.645,-14.709,-18.982,19.165
0.317,-0.658,0.6,-29.907,-10.437,23.56
0.286,-0.628,0.568,-42.664,-1.404,26.367
0.275,-0.598,0.543,-53.101,7.08,27.588
0.284,-0.574,0.52,-60.242,14.282,27.71
0.306,-0.555,0.505,-64.392,18.982,27.405
0.324,-0.539,0.499,-65.918,20.935,26.794
0.331,-0.522,0.49,-66.101,20.386,26.245
0.345,-0.513,0.485,-64.331,17.944,25.757
0.365,-0.509,0.489,-60.791,14.465,25.208
0.374,-0.511,0.487,-56.213,10.254,24.048
0.375,-0.515,0.49,-51.208,6.287,21.79
0.377,-0.522,0.496,-45.654,3.296,18.799
0.384,-0.538,0.509,-39.856,2.136,15.076
0.405,-0.566,0.532,-32.898,2.075,10.742
0.431,-0.596,0.563,-24.414,2.93,5.493
0.474,-0.631,0.601,-14.282,4.15,-0.488
0.516,-0.662,0.638,-2.991,5.127,-6.226
0.553,-0.683,0.667,7.996,5.554,-11.536
0.575,-0.693,0.69,17.151,5.615,-14.709
0.583,-0.692,0.7,23.254,5.188,-15.869
0.573,-0.683,0.689,25.208,5.249,-14.832
0.547,-0.677,0.672,23.071,6.47,-11.719
0.521,-0.665,0.656,16.785,8.728,-8.179
0.51,-0.638,0.642,6.836,10.742,-5.31
0.508,-0.6,0.622,-4.761,12.207,-3.235
0.495,-0.554,0.597,-15.747,12.878,-1.648
0.476,-0.514,0.577,-24.292,13.367,-0.366
0.462,-0.478,0.558,-29.602,13.733,0.244
0.46,-0.451,0.551,-30.64,13.733,0.488
0.472,-0.435,0.556,-28.137,13.367,0.183
0.478,-0.421,0.559,-23.437,11.658,-0.122
0.494,-0.416,0.569,-16.724,8.728,-0.671
0.516,-0.426,0.585,-9.277,4.822,-1.16
0.533,-0.442,0.596,-2.075,0.183,-1.953
0.538,-0.46,0.605,4.272,-4.089,-3.174
1.291,-4.0,4.0,216.98,23.743,-235.779
3.596,-4.0,4.0,-158.752,-19.409,-165.833
1.753,-0.596,3.99,-361.816,38.513,131.653
0.749,-0.742,1.828,-409.546,73.303,121.765
-0.349,-1.104,0.344,-309.937,115.662,72.449
-0.402,-0.89,0.269,-241.028,129.089,58.35
-0.133,-0.721,0.055,-223.694,113.22,68.665
0.169,-0.74,-0.133,-215.576,97.168,72.815
0.162,-0.635,-0.17,-211.487,97.229,78.552
0.047,-0.605,-0.335,-211.182,98.267,91.492
-0.085,-0.474,-0.496,-211.182,108.154,98.755
-0.184,-0.451,-0.502,-206.726,131.958,107.3
-0.081,-0.352,-0.219,-199.585,138.245,106.934
-0.049,-0.179,-0.27,-194.031,117.31,107.361
0.089,-0.167,-0.202,-186.523,97.107,117.859
0.141,-0.171,-0.14,-179.81,70.984,123.23
0.074,-0.121,-0.22,-172.241,36.499,122.986
-0.011,-0.051,-0.253,-160.889,11.78,120.117
-0.016,0.044,-0.119,-145.874,-5.798,115.356
0.01,0.105,-0.045,-128.662,-32.227,109.741
-0.009,0.127,-0.133,-110.291,-64.209,101.074
-0.076,0.158,-0.152,-90.698,-83.496,90.637
-0.14,0.188,-0.154,-71.106,-94.055,79.651
-0.225,0.216,-0.205,-51.941,-97.412,68.542
-0.26,0.217,-0.159,-32.532,-90.637,56.763
-0.255,0.212,-0.128,-13.733,-82.153,43.945
-0.245,0.183,-0.113,4.456,-71.594,31.25
-0.232,0.134,-0.066,22.4,-56.702,18.372
-0.21,0.086,-0.033,39.307,-40.588,4.578
-0.182,0.032,0.008,55.054,-23.01,-9.216
-0.118,-0.011,0.083,69.58,-5.615,-23.193
0.0,-0.052,0.181,83.923,8.972,-36.255
0.129,-0.098,0.275,98.389,18.86,-47.302
0.239,-0.146,0.367,112.793,23.376,-55.786
0.337,-0.188,0.451,124.756,22.888,-60.791
0.417,-0.226,0.52,132.629,18.616,-61.157
0.462,-0.262,0.571,136.047,11.841,-57.007
0.455,-0.294,0.59,134.888,4.456,-49.683
0.43,-0.315,0.6,130.005,-0.061,-41.321
0.432,-0.342,0.627,123.291,-0.854,-33.691
0.459,-0.375,0.658,116.455,1.526,-27.466
0.492,-0.404,0.698,109.009,6.042,-23.01
0.531,-0.436,0.743,101.685,11.597,-20.996
0.557,-0.46,0.771,93.567,16.479,-20.691
0.555,-0.462,0.779,84.9,19.958,-21.973
0.567,-0.456,0.791,77.209,22.644,-24.17
0.591,-0.458,0.805,72.571,25.024,-26.794
0.6,-0.45,0.819,70.435,26.306,-29.358
0.61,-0.434,0.835,69.824,26.794,-31.311
0.654,-0.435,0.866,71.777,26.55,-31.921
0.685,-0.452,0.892,75.745,24.658,-31.433
0.666,-0.452,0.899,80.383,20.691,-30.396
0.631,-0.452,0.899,83.374,16.907,-28.32
0.602,-0.457,0.899,83.923,13.611,-25.452
0.59,-0.465,0.906,83.008,11.169,-23.071
0.574,-0.477,0.915,80.139,10.01,-21.545
0.527,-0.482,0.909,75.928,10.315,-21.057
0.48,-0.475,0.897,70.435,12.512,-20.996
0.461,-0.465,0.883,64.636,16.479,-20.874
0.448,-0.455,0.86,60.425,21.545,-21.667
0.431,-0.44,0.847,57.556,27.71,-23.315
0.467,-0.444,0.875,55.847,34.424,-25.208
0.526,-0.442,0.889,56.396,36.56,-27.954
0.545,-0.433,0.868,58.655,34.973,-30.273
0.552,-0.448,0.867,61.707,33.63,-30.701
0.6,-0.482,0.908,64.758,31.86,-30.396
0.64,-0.501,0.922,66.04,25.818,-30.273
0.653,-0.512,0.918,64.636,17.761,-29.236
0.65,-0.526,0.916,61.768,10.925,-27.283
0.651,-0.551,0.921,58.594,5.798,-25.574
0.644,-0.575,0.926,56.274,2.136,-23.682
0.622,-0.59,0.926,54.199,-0.061,-20.813
0.603,-0.608,0.92,51.147,-1.038,-16.724
0.598,-0.629,0.905,46.692,-1.465,-12.451
0.596,-0.654,0.898,42.419,-1.282,-8.484
0.586,-0.68,0.892,38.452,-0.549,-5.493
0.566,-0.693,0.884,34.363,0.427,-4.028
0.561,-0.701,0.881,31.677,1.648,-3.906
0.577,-0.714,0.888,31.128,2.93,-5.127
0.588,-0.728,0.889,32.715,3.784,-7.812
0.591,-0.733,0.893,35.828,3.418,-10.864
0.594,-0.735,0.898,38.94,3.296,-12.878
0.592,-0.738,0.903,40.955,3.54,-13.0
0.595,-0.742,0.906,42.175,3.296,-11.353
0.601,-0.748,0.9,41.809,2.38,-8.85
0.594,-0.751,0.886,38.147,1.221,-5.615
0.572,-0.742,0.866,31.799,0.244,-2.319
0.552,-0.719,0.838,22.949,-0.671,1.526
0.536,-0.693,0.799,12.817,-1.221,5.127
0.519,-0.665,0.759,2.441,-1.953,8.728
0.498,-0.633,0.719,-8.179,-2.258,12.085
0.468,-0.596,0.678,-18.372,-2.869,14.954
0.436,-0.565,0.643,-27.222,-3.174,17.7
0.402,-0.54,0.61,-33.569,-2.747,20.02
0.373,-0.519,0.587,-37.842,-1.221,21.912
0.349,-0.497,0.555,-40.161,0.793,22.949
0.341,-0.485,0.534,-40.955,3.723,23.254
0.352,-0.481,0.527,-40.039,7.385,22.766
0.373,-0.479,0.529,-37.537,10.925,21.851
0.395,-0.481,0.532,-33.752,12.939,20.569
0.422,-0.489,0.539,-28.564,13.489,18.433
0.444,-0.497,0.548,-22.278,13.367,16.113
0.465,-0.51,0.566,-16.113,13.184,13.672
0.495,-0.527,0.586,-9.46,12.634,11.169
0.531,-0.55,0.609,-2.258,11.841,8.911
0.582,-0.581,0.646,5.554,10.681,6.653
0.641,-0.614,0.69,12.512,7.996,4.578
0.689,-0.643,0.73,18.555,3.113,2.502
0.718,-0.664,0.759,21.606,-3.723,1.221
0.722,-0.666,0.765,21.423,-12.024,0.732
0.699,-0.648,0.749,18.127,-20.142,1.77
0.653,-0.624,0.72,12.207,-26.489,4.211
0.602,-0.595,0.686,4.761,-29.48,7.935
0.56,-0.561,0.653,-2.93,-29.48,11.841
0.521,-0.521,0.623,-10.254,-26.306,15.32
0.495,-0.486,0.6,-15.808,-21.729,17.761
0.482,-0.453,0.585,-19.348,-16.296,18.921
0.477,-0.42,0.579,-20.569,-10.986,19.287
0.484,-0.395,0.579,-18.921,-7.08,19.226
2.814,-3.653,4.0,-7.446,-5.737,-170.044
3.12,-2.792,3.665,-260.01,-97.473,-72.693
0.408,-0.182,2.417,-336.853,-52.551,98.083
-0.161,0.048,1.176,-298.828,2.502,79.163
0.218,-0.432,0.576,-190.979,53.772,28.503
0.213,-0.345,0.103,-123.901,89.844,5.798
-0.173,-0.042,-0.308,-109.741,103.088,18.86
-0.191,-0.194,-0.348,-115.356,119.568,34.058
-0.315,-0.169,-0.431,-122.742,121.643,36.255
-0.23,-0.133,-0.272,-125.549,121.948,48.218
-0.298,-0.1,-0.56,-131.653,103.638,63.11
-0.262,-0.039,-0.486,-125.244,106.812,70.801
-0.185,0.036,-0.365,-119.263,106.812,77.576
-0.112,0.097,-0.283,-117.615,97.046,85.144
-0.049,0.144,-0.177,-119.873,84.595,90.881
0.01,0.164,-0.041,-122.437,66.589,93.811
0.072,0.159,0.076,-124.878,40.466,93.506
0.1,0.148,0.117,-127.258,7.385,88.257
0.062,0.157,0.1,-126.648,-23.193,78.064
0.007,0.168,0.103,-119.629,-44.434,64.697
-0.046,0.19,0.1,-107.91,-56.396,50.293
-0.079,0.214,0.11,-92.285,-60.425,35.767
-0.093,0.228,0.136,-72.815,-57.007,22.034
-0.098,0.23,0.17,-50.476,-48.34,9.399
-0.083,0.22,0.217,-26.794,-36.316,-1.587
-0.052,0.196,0.271,-3.113,-22.705,-11.23
0.002,0.16,0.342,20.264,-8.545,-19.592
0.082,0.111,0.423,43.701,3.845,-26.611
0.156,0.049,0.513,65.735,14.221,-31.86
0.232,-0.022,0.604,84.229,21.912,-35.339
0.31,-0.097,0.691,97.046,26.062,-37.964
0.354,-0.17,0.739,103.577,26.428,-39.307
0.368,-0.224,0.755,102.539,24.78,-39.185
0.37,-0.252,0.766,95.581,22.827,-38.513
0.391,-0.264,0.776,85.51,21.24,-38.513
0.411,-0.264,0.771,74.951,19.775,-39.368
0.398,-0.244,0.755,64.392,18.738,-40.1
0.387,-0.216,0.747,55.298,19.043,-40.161
0.434,-0.211,0.769,49.927,20.081,-39.917
0.477,-0.226,0.789,51.514,19.348,-40.71
0.474,-0.223,0.797,55.542,16.785,-41.077
0.463,-0.215,0.801,59.692,13.794,-40.405
0.458,-0.22,0.8,63.904,11.108,-38.879
0.444,-0.228,0.802,68.298,9.583,-36.743
0.426,-0.242,0.806,71.899,9.521,-34.424
0.406,-0.261,0.813,74.89,11.169,-32.288
0.401,-0.282,0.817,77.087,14.099,-31.311
0.398,-0.3,0.821,78.43,18.433,-31.86
0.413,-0.312,0.833,78.491,23.743,-33.447
0.437,-0.329,0.846,78.186,29.175,-35.522
0.447,-0.338,0.845,77.271,33.63,-37.72
0.451,-0.328,0.836,75.439,37.109,-39.856
0.479,-0.319,0.833,72.266,39.49,-40.833
0.54,-0.333,0.84,69.946,39.551,-41.565
0.575,-0.343,0.834,69.275,36.072,-42.603
0.575,-0.342,0.807,68.542,30.334,-43.518
0.548,-0.332,0.754,66.895,24.109,-42.908
0.517,-0.325,0.716,64.392,20.142,-40.955
0.492,-0.314,0.691,60.974,18.494,-37.537
0.47,-0.317,0.683,58.716,18.494,-33.386
0.472,-0.343,0.702,59.509,20.447,-30.64
0.5,-0.368,0.738,59.998,21.423,-29.602
0.506,-0.38,0.725,57.861,17.822,-30.029
0.46,-0.393,0.691,53.955,13.184,-30.762
0.408,-0.396,0.659,48.95,10.498,-31.433
0.36,-0.394,0.618,43.213,9.705,-32.654
0.311,-0.392,0.571,38.025,10.681,-34.058
0.275,-0.399,0.529,33.264,13.428,-35.583
0.272,-0.41,0.505,29.48,17.456,-37.292
0.29,-0.438,0.496,28.32,22.278,-38.757
0.331,-0.475,0.501,30.273,27.344,-41.016
0.414,-0.515,0.548,36.316,32.593,-43.762
0.532,-0.563,0.626,48.218,36.011,-46.265
0.636,-0.585,0.71,66.04,34.973,-49.316
0.715,-0.594,0.809,86.914,29.358,-51.147
0.765,-0.626,0.887,109.314,20.508,-49.683
0.748,-0.667,0.925,128.784,8.667,-45.776
0.728,-0.722,0.957,140.137,-2.563,-39.612
0.718,-0.802,0.969,142.09,-11.902,-32.104
0.685,-0.861,0.946,133.423,-19.409,-26.367
0.678,-0.879,0.939,116.882,-22.217,-22.949
0.7,-0.907,0.952,97.595,-19.775,-20.752
0.687,-0.924,0.949,77.576,-15.015,-20.569
0.677,-0.91,0.943,56.641,-9.827,-21.973
0.708,-0.895,0.937,37.659,-4.944,-23.132
0.725,-0.88,0.927,21.729,-2.075,-22.888
0.72,-0.859,0.904,8.423,-1.343,-21.484
0.71,-0.847,0.885,-1.465,-1.038,-18.616
0.697,-0.849,0.876,-8.545,-0.671,-14.587
0.682,-0.856,0.864,-13.123,-1.038,-10.376
0.668,-0.858,0.841,-16.113,-1.465,-7.08
0.638,-0.864,0.802,-17.7,-0.366,-4.7
0.594,-0.867,0.764,-17.822,3.601,-3.723
0.56,-0.865,0.741,-17.334,11.047,-4.028
0.558,-0.862,0.735,-15.686,20.996,-5.31
0.573,-0.852,0.736,-12.756,30.823,-7.385
0.596,-0.835,0.741,-10.315,39.246,-9.521
0.633,-0.812,0.742,-8.789,44.189,-10.986
0.662,-0.781,0.732,-7.69,44.067,-12.146
0.675,-0.747,0.724,-6.958,40.039,-12.146
0.665,-0.711,0.714,-7.202,32.776,-11.169
0.641,-0.669,0.693,-8.545,23.01,-9.277
0.597,-0.627,0.657,-10.498,12.939,-6.531
0.537,-0.599,0.621,-12.634,5.31,-3.357
0.48,-0.578,0.589,-14.832,0.427,-0.244
0.432,-0.558,0.561,-16.663,-1.892,2.38
0.391,-0.536,0.533,-17.822,-2.686,3.784
0.351,-0.51,0.501,-18.616,-1.465,4.272
0.313,-0.488,0.47,-19.165,1.526,4.333
0.288,-0.47,0.45,-18.86,6.531,3.967
0.294,-0.464,0.45,-16.968,12.634,3.052
0.318,-0.463,0.46,-14.221,18.494,1.831
0.35,-0.464,0.475,-11.047,22.095,-0.061
0.385,-0.468,0.491,-7.385,23.315,-2.258
0.422,-0.476,0.508,-3.784,22.217,-3.906
0.452,-0.49,0.528,-0.061,18.738,-5.859
0.489,-0.509,0.549,3.357,13.794,-7.996
0.509,-0.529,0.563,6.348,7.629,-9.949
0.521,-0.549,0.574,8.484,1.648,-11.169
3.621,-4.0,4.0,187.805,-43.884,-228.943
3.938,-4.0,4.0,-161.804,-224.792,-183.167
0.464,-0.724,3.34,-304.443,-123.291,97.656
