aX,aY,aZ,gX,gY,gZ
0.141,-1.724,0.898,10.437,-95.642,58.838
0.05,-1.886,0.912,11.658,-98.877,57.617
-0.044,-2.009,0.911,7.69,-94.788,55.725
-0.097,-2.072,0.91,-1.038,-83.191,52.002
-0.085,-2.086,0.897,-12.634,-66.772,46.082
-0.043,-2.064,0.884,-24.292,-49.255,37.903
0.002,-2.019,0.873,-32.715,-34.424,27.893
0.06,-1.937,0.88,-36.255,-23.743,16.785
0.142,-1.867,0.908,-34.058,-19.836,6.958
0.206,-1.827,0.928,-27.039,-25.696,-0.732
0.188,-1.791,0.89,-18.188,-39.795,-5.92
0.117,-1.757,0.814,-11.414,-55.725,-9.338
0.096,-1.743,0.739,-6.226,-68.298,-12.39
0.121,-1.71,0.698,0.244,-75.012,-18.25
0.148,-1.651,0.687,11.841,-75.989,-27.527
0.131,-1.571,0.662,28.32,-73.242,-38.513
0.088,-1.466,0.638,44.25,-65.552,-47.852
0.086,-1.339,0.61,58.35,-52.979,-54.626
0.048,-1.17,0.584,70.923,-36.682,-57.678
0.021,-0.991,0.588,79.102,-19.043,-55.908
0.047,-0.846,0.56,83.191,-4.639,-50.232
0.047,-0.723,0.525,84.717,10.559,-45.349
-0.009,-0.534,0.449,79.407,27.588,-41.687
-0.022,-0.324,0.431,69.763,46.57,-35.034
-0.003,-0.163,0.368,57.434,61.584,-25.513
0.042,-0.053,0.33,44.373,74.036,-15.076
0.112,-0.031,0.296,29.541,78.979,-4.944
0.15,-0.023,0.272,13.367,75.134,4.578
0.15,-0.025,0.23,-2.808,63.477,14.648
0.145,-0.047,0.2,-17.639,45.837,24.17
0.111,-0.079,0.171,-31.189,25.146,33.325
0.066,-0.115,0.141,-41.809,4.395,40.894
0.026,-0.124,0.102,-48.95,-14.893,44.8
-0.026,-0.112,0.045,-52.429,-30.64,44.739
-0.088,-0.089,-0.009,-52.917,-39.551,40.894
-0.143,-0.066,-0.049,-49.866,-41.199,34.424
-0.174,-0.05,-0.081,-43.701,-36.987,25.696
-0.173,-0.044,-0.106,-34.973,-27.344,14.038
-0.151,-0.027,-0.124,-24.963,-13.611,-0.549
-0.108,0.007,-0.115,-14.343,2.563,-16.418
-0.022,0.02,-0.078,-3.54,19.47,-30.945
0.066,-0.003,-0.022,7.263,33.325,-43.274
0.159,-0.031,0.028,16.174,42.297,-52.979
0.245,-0.059,0.076,22.766,45.41,-58.289
0.312,-0.093,0.11,27.344,42.847,-59.814
0.367,-0.119,0.135,29.358,35.156,-57.495
0.399,-0.134,0.15,27.71,24.414,-51.025
0.406,-0.134,0.157,22.339,12.085,-41.077
0.39,-0.134,0.157,15.198,0.427,-29.053
0.364,-0.139,0.154,7.446,-9.033,-16.663
0.339,-0.155,0.149,0.427,-16.296,-4.883
0.31,-0.167,0.139,-6.104,-20.874,5.798
0.277,-0.182,0.135,-11.963,-22.522,17.334
0.25,-0.203,0.148,-14.709,-22.156,27.649
0.256,-0.246,0.18,-15.503,-20.935,36.56
0.292,-0.332,0.216,-13.428,-21.362,43.457
0.33,-0.432,0.245,-9.521,-23.987,46.448
0.379,-0.507,0.286,-5.066,-28.503,45.898
0.428,-0.597,0.332,0.916,-36.133,43.152
0.436,-0.691,0.375,9.583,-47.607,39.734
0.36,-0.768,0.436,21.545,-60.73,40.222
0.22,-0.823,0.492,34.424,-71.96,46.448
0.069,-0.944,0.552,46.387,-80.139,57.739
-0.058,-1.217,0.613,54.81,-83.984,71.167
-0.147,-1.542,0.649,54.199,-84.778,81.238
-0.212,-1.769,0.671,40.955,-80.566,83.496
-0.253,-1.884,0.651,17.395,-70.74,78.918
-0.247,-1.989,0.602,-10.01,-57.556,69.397
-0.235,-2.162,0.55,-36.926,-42.786,55.481
-0.235,-2.298,0.509,-63.293,-26.794,39.856
-0.248,-2.296,0.501,-83.862,-10.864,24.536
-0.201,-2.205,0.518,-92.224,4.761,9.399
-0.033,-2.045,0.579,-85.449,18.555,-5.615
0.15,-1.807,0.695,-61.768,28.931,-21.912
0.241,-1.531,0.789,-27.466,34.424,-36.194
0.214,-1.328,0.824,8.423,36.865,-43.64
0.147,-1.236,0.836,41.748,40.466,-40.039
0.121,-1.256,0.854,67.749,47.729,-29.602
0.125,-1.329,0.867,83.252,57.495,-18.86
0.15,-1.375,0.907,87.585,67.078,-10.437
0.198,-1.342,0.932,80.566,74.829,-5.371
0.24,-1.287,0.92,66.528,78.796,-3.357
0.264,-1.224,0.893,50.11,78.003,-4.7
0.271,-1.143,0.863,33.63,73.486,-9.033
0.26,-1.045,0.819,18.677,65.857,-14.282
0.244,-0.95,0.764,6.775,57.068,-19.165
0.24,-0.863,0.708,-2.93,48.767,-22.644
0.238,-0.792,0.647,-10.376,41.321,-24.292
0.233,-0.727,0.59,-16.968,34.973,-24.841
0.236,-0.651,0.523,-23.071,29.602,-23.987
0.234,-0.582,0.46,-27.283,25.269,-21.606
0.228,-0.538,0.4,-28.809,22.095,-17.7
0.221,-0.519,0.356,-27.832,20.63,-12.512
0.22,-0.513,0.332,-25.574,20.508,-6.897
0.22,-0.495,0.315,-22.461,19.775,-1.831
0.223,-0.487,0.302,-19.165,18.372,4.395
0.228,-0.484,0.298,-15.625,15.015,10.498
0.225,-0.501,0.3,-12.268,9.583,17.273
0.221,-0.534,0.317,-8.911,2.075,23.621
0.187,-0.547,0.295,-6.714,-7.69,29.175
0.096,-0.57,0.25,-4.7,-15.442,36.011
-0.003,-0.617,0.246,-2.197,-16.968,43.152
0.031,-0.668,0.37,1.221,-16.418,47.546
0.122,-0.888,0.258,4.272,-23.926,46.875
-0.028,-0.77,0.251,2.686,-24.536,38.452
-0.045,-0.85,0.306,2.625,-17.883,39.307
-0.043,-0.939,0.262,2.869,-17.029,34.546
-0.048,-1.029,0.285,1.831,-8.728,30.457
-0.027,-1.052,0.302,-0.488,-1.221,23.682
-0.006,-1.086,0.324,-2.38,5.127,18.127
0.028,-1.129,0.341,-4.456,10.498,14.038
0.069,-1.15,0.339,-5.554,12.329,8.85
0.11,-1.15,0.348,-5.249,13.367,3.296
0.139,-1.129,0.341,-2.686,13.55,-2.136
0.158,-1.091,0.352,1.404,13.55,-5.859
0.181,-1.032,0.365,6.592,12.512,-8.789
0.204,-0.977,0.372,12.207,10.681,-9.827
0.225,-0.937,0.396,17.883,8.057,-8.301
0.246,-0.913,0.416,22.339,4.7,-5.066
0.352,-1.701,0.772,39.551,-29.846,1.587
0.303,-1.884,0.82,38.086,-28.259,5.371
0.251,-2.051,0.86,31.433,-19.897,9.277
0.247,-2.209,0.85,21.179,-8.484,14.038
0.302,-2.292,0.819,8.484,1.831,18.25
0.342,-2.318,0.802,-4.395,9.766,21.362
0.358,-2.319,0.808,-14.709,14.648,23.376
0.373,-2.299,0.806,-20.996,15.259,23.132
0.381,-2.25,0.802,-22.461,12.085,21.179
0.356,-2.198,0.793,-20.325,6.531,19.043
0.299,-2.149,0.754,-14.526,0.0,16.113
0.205,-2.101,0.688,-8.057,-5.066,12.573
0.124,-2.068,0.628,-2.136,-5.371,8.423
0.093,-2.012,0.578,2.441,0.549,2.136
0.117,-1.931,0.541,6.775,11.597,-6.836
0.153,-1.826,0.514,11.047,25.024,-18.799
0.178,-1.704,0.484,14.465,39.001,-33.569
0.211,-1.562,0.436,15.93,52.551,-48.889
0.231,-1.392,0.384,13.428,65.369,-62.073
0.255,-1.172,0.346,6.836,75.928,-71.411
0.255,-0.891,0.27,-2.258,83.191,-76.172
0.203,-0.57,0.163,-12.817,88.379,-75.012
0.195,-0.249,0.077,-23.499,93.201,-68.176
0.258,0.053,0.03,-31.494,95.276,-56.946
0.292,0.275,0.014,-34.546,90.393,-43.091
0.264,0.379,0.003,-32.227,78.186,-28.137
0.261,0.38,0.011,-26.489,60.12,-11.353
0.253,0.323,0.033,-19.836,35.889,5.127
0.198,0.231,0.055,-11.108,7.568,19.287
0.13,0.14,0.064,-0.916,-20.996,28.076
0.077,0.051,0.09,9.155,-47.18,32.532
-0.156,0.013,-0.031,20.081,-67.749,30.64
-0.328,-0.226,0.139,28.015,-56.274,23.865
-0.4,-0.132,0.039,25.391,-34.912,3.113
-0.262,-0.155,0.033,24.475,-10.01,-8.24
-0.033,-0.234,0.033,23.193,13.245,-22.095
0.043,-0.184,-0.031,21.301,21.057,-39.307
0.082,-0.186,0.007,22.339,22.888,-51.88
0.153,-0.206,0.015,24.536,19.531,-62.988
0.233,-0.187,0.04,26.917,15.381,-74.524
0.292,-0.159,0.052,29.541,10.437,-84.534
0.297,-0.126,0.058,32.471,5.493,-89.783
0.287,-0.111,0.073,35.278,1.221,-88.44
0.279,-0.114,0.085,37.964,-1.282,-82.214
0.279,-0.13,0.091,40.161,-2.38,-72.754
0.281,-0.134,0.093,42.236,-3.357,-61.157
0.274,-0.132,0.108,43.64,-4.028,-47.058
0.261,-0.133,0.122,44.8,-4.211,-30.945
0.233,-0.131,0.131,45.105,-3.967,-14.404
0.212,-0.127,0.132,44.922,-4.028,1.221
0.208,-0.127,0.124,44.067,-3.479,15.93
0.201,-0.125,0.128,43.579,-2.563,28.748
0.196,-0.128,0.131,42.969,-1.831,38.33
0.202,-0.142,0.142,43.152,-1.587,44.861
0.22,-0.166,0.165,43.884,-2.258,49.133
0.246,-0.194,0.198,45.41,-5.066,51.575
0.266,-0.214,0.252,46.997,-8.911,52.551
0.272,-0.248,0.305,46.936,-15.381,51.331
0.277,-0.286,0.303,44.617,-26.978,49.805
0.363,-0.315,0.322,40.283,-39.795,47.913
0.386,-0.393,0.373,34.668,-55.115,45.959
0.32,-0.57,0.428,27.954,-71.777,43.884
0.202,-0.873,0.524,17.517,-86.304,42.725
0.026,-1.142,0.64,-0.427,-93.018,41.016
-0.039,-1.381,0.656,-14.893,-98.45,36.804
0.063,-1.752,0.583,-15.442,-111.145,41.626
0.186,-2.123,0.537,-7.935,-125.183,58.777
0.125,-2.405,0.633,-7.324,-135.254,79.956
-0.089,-2.519,0.579,-23.437,-143.188,96.008
-0.135,-2.592,0.433,-44.8,-144.958,108.093
-0.124,-2.796,0.333,-58.228,-141.724,119.995
-0.164,-3.037,0.278,-69.763,-132.202,128.906
-0.174,-3.082,0.213,-84.412,-116.882,129.333
-0.093,-2.882,0.158,-101.685,-96.497,118.958
0.124,-2.431,0.194,-110.718,-74.402,99.854
0.413,-1.911,0.309,-99.121,-59.631,68.298
0.602,-1.473,0.398,-67.749,-57.434,24.78
0.523,-1.076,0.431,-30.029,-61.584,-20.569
0.353,-0.841,0.482,9.521,-61.035,-50.049
0.303,-0.893,0.533,51.819,-51.331,-65.552
0.347,-1.168,0.516,86.67,-38.513,-73.608
0.336,-1.347,0.479,104.004,-24.231,-75.623
0.294,-1.366,0.466,102.661,-8.118,-70.923
0.298,-1.312,0.466,89.966,8.545,-61.707
0.326,-1.21,0.453,72.815,22.339,-50.598
0.36,-1.127,0.435,56.091,32.837,-36.926
0.365,-1.076,0.414,41.809,37.109,-23.437
0.345,-1.054,0.376,30.212,35.339,-12.878
0.314,-1.035,0.359,20.752,30.579,-7.019
0.28,-0.972,0.345,15.32,23.804,-5.31
0.248,-0.895,0.34,14.343,16.052,-5.432
0.217,-0.818,0.33,17.151,7.629,-6.042
0.191,-0.734,0.321,22.705,-1.282,-8.057
0.16,-0.666,0.279,29.297,-8.85,-11.108
0.126,-0.651,0.246,35.889,-12.939,-15.991
0.102,-0.583,0.237,40.527,-13.733,-23.804
0.093,-0.54,0.2,43.518,-12.268,-29.602
0.107,-0.542,0.181,44.495,-6.836,-33.936
0.063,-0.474,0.126,44.556,0.244,-37.598
0.025,-0.452,0.129,45.654,12.512,-34.485
0.087,-0.491,0.208,47.241,23.926,-28.87
0.195,-0.577,0.222,49.377,26.978,-25.574
0.168,-0.695,0.136,49.622,27.1,-25.085
0.084,-0.533,0.231,45.959,32.288,-26.55
0.102,-0.636,0.256,44.617,33.264,-18.677
0.098,-0.647,0.239,42.419,29.907,-14.954
0.095,-0.742,0.221,38.269,27.771,-9.094
0.039,-0.778,0.177,31.738,28.137,-7.141
0.035,-0.891,0.183,24.292,34.18,-4.395
0.03,-0.967,0.153,15.32,39.429,-6.104
0.024,-1.052,0.133,5.676,46.448,-7.568
0.023,-1.135,0.124,-4.944,54.321,-9.949
0.031,-1.187,0.122,-15.93,62.439,-12.695
0.047,-1.243,0.124,-25.635,69.519,-15.015
0.067,-1.3,0.133,-33.142,75.439,-16.663
0.081,-1.369,0.132,-39.063,79.712,-17.517
0.09,-1.414,0.12,-43.457,82.886,-18.677
0.085,-1.419,0.099,-46.875,85.754,-19.775
0.093,-1.401,0.086,-48.523,89.355,-19.714
0.236,-1.979,0.394,-54.443,78.674,15.137
0.272,-2.014,0.398,-44.678,76.599,5.432
0.305,-2.024,0.403,-36.316,71.533,-5.188
0.333,-1.998,0.407,-29.785,64.148,-17.334
0.368,-1.944,0.412,-23.865,55.359,-30.518
0.403,-1.887,0.405,-17.7,46.448,-44.25
0.424,-1.839,0.386,-11.902,37.72,-57.678
0.44,-1.763,0.368,-5.92,29.541,-69.519
0.432,-1.633,0.358,-0.183,22.827,-77.82
0.413,-1.472,0.361,5.981,18.25,-82.214
0.411,-1.286,0.377,13.794,15.93,-83.191
0.428,-1.087,0.385,22.949,14.954,-81.116
0.439,-0.886,0.381,31.494,14.587,-76.721
0.453,-0.682,0.37,38.879,14.343,-70.374
0.469,-0.467,0.369,44.128,14.038,-62.012
0.48,-0.212,0.367,48.157,13.245,-52.246
0.472,0.081,0.37,51.636,11.23,-40.771
0.455,0.347,0.37,56.274,9.216,-26.367
0.427,0.479,0.345,62.439,6.409,-9.277
0.375,0.436,0.311,67.505,3.052,8.118
0.31,0.275,0.306,68.237,1.77,25.269
0.256,0.085,0.324,63.904,1.343,41.138
0.225,-0.059,0.351,55.359,-0.244,53.467
0.163,-0.14,0.31,44.617,-2.258,59.937
0.187,-0.336,0.448,33.813,-1.282,63.721
0.2,-0.293,0.362,21.118,-10.498,58.96
0.139,-0.309,0.376,8.484,-20.142,55.969
0.183,-0.379,0.323,-3.113,-28.625,53.345
0.196,-0.416,0.235,-16.174,-38.879,41.687
0.132,-0.303,0.196,-29.541,-44.189,29.053
0.075,-0.187,0.142,-39.551,-48.584,22.095
0.092,-0.172,0.088,-44.373,-49.927,19.226
0.092,-0.187,0.052,-46.448,-48.096,14.465
0.081,-0.175,0.059,-46.753,-43.579,9.216
0.076,-0.134,0.047,-45.166,-39.124,5.249
0.076,-0.118,0.04,-41.565,-33.02,4.517
0.068,-0.121,0.03,-36.865,-25.513,5.066
0.058,-0.117,0.033,-32.349,-16.479,6.287
0.064,-0.117,0.042,-27.954,-8.179,9.094
0.082,-0.125,0.048,-24.353,-1.221,13.489
0.099,-0.142,0.053,-21.362,4.333,18.494
0.111,-0.162,0.064,-19.653,8.85,22.888
0.126,-0.182,0.077,-18.311,11.963,26.55
0.145,-0.208,0.098,-16.968,13.245,29.358
0.18,-0.254,0.131,-15.564,12.085,30.945
0.211,-0.319,0.157,-14.282,7.263,30.396
0.242,-0.397,0.184,-12.756,-0.244,27.649
0.276,-0.484,0.214,-11.353,-10.315,23.499
0.318,-0.57,0.238,-9.644,-24.231,17.639
0.367,-0.675,0.261,-7.08,-41.077,10.925
0.416,-0.794,0.29,-3.418,-60.913,3.479
0.464,-0.872,0.321,3.174,-82.581,-4.395
0.503,-0.96,0.345,13.916,-103.516,-15.015
0.518,-1.089,0.376,30.457,-119.629,-27.222
0.492,-1.262,0.412,53.406,-127.502,-37.537
0.384,-1.432,0.41,75.378,-127.625,-42.908
0.216,-1.569,0.392,86.487,-118.53,-40.771
0.073,-1.689,0.389,82.642,-99.731,-28.015
-0.002,-1.747,0.39,66.284,-74.951,-7.141
-0.038,-1.702,0.384,43.945,-48.157,15.93
-0.049,-1.643,0.369,21.423,-22.034,39.612
-0.068,-1.702,0.326,1.282,2.747,62.927
-0.158,-1.844,0.242,-19.592,26.245,83.313
-0.223,-1.924,0.204,-43.701,48.889,96.619
-0.157,-1.906,0.226,-64.88,68.787,101.135
-0.024,-1.825,0.237,-76.538,80.933,95.703
0.111,-1.7,0.27,-77.942,86.121,82.031
0.258,-1.562,0.323,-68.176,86.182,60.974
0.414,-1.433,0.341,-49.072,80.078,33.142
0.489,-1.28,0.361,-25.024,70.313,0.977
0.486,-1.151,0.39,-1.831,59.265,-26.733
0.498,-1.03,0.374,16.968,46.082,-44.067
0.503,-0.958,0.35,30.457,34.851,-50.598
0.455,-0.897,0.315,38.391,25.146,-49.988
0.374,-0.846,0.279,41.199,17.7,-42.297
0.336,-0.818,0.261,39.429,13.428,-27.527
0.352,-0.808,0.256,34.607,12.146,-10.864
0.369,-0.822,0.269,28.198,11.658,2.808
0.377,-0.824,0.289,21.057,10.132,13.367
0.377,-0.803,0.3,14.16,6.47,20.081
0.379,-0.779,0.315,8.362,1.16,23.437
0.39,-0.756,0.329,3.906,-6.653,23.804
0.408,-0.773,0.322,0.061,-16.846,21.851
0.381,-0.783,0.28,-2.747,-27.893,16.174
0.347,-0.768,0.259,-5.188,-35.156,8.667
0.339,-0.764,0.224,-7.812,-40.161,0.854
0.262,-0.709,0.223,-9.644,-42.664,-5.31
0.283,-0.728,0.233,-9.46,-42.542,-8.057
0.321,-0.756,0.241,-7.507,-43.457,-13.489
0.302,-0.742,0.229,-4.822,-42.542,-19.836
0.253,-0.68,0.25,-1.343,-40.161,-24.658
0.248,-0.651,0.253,3.784,-37.231,-25.574
0.266,-0.655,0.255,9.46,-33.691,-25.146
0.274,-0.667,0.266,15.076,-29.724,-24.536
0.278,-0.69,0.277,19.592,-26.794,-23.499
0.266,-0.708,0.272,22.827,-24.902,-21.606
0.247,-0.74,0.274,24.78,-22.156,-18.188
0.234,-0.783,0.286,25.574,-18.616,-13.916
0.221,-0.827,0.293,25.146,-14.832,-9.949
0.204,-0.869,0.296,23.682,-10.681,-6.348
0.184,-0.897,0.297,21.24,-6.104,-3.601
0.171,-0.916,0.296,18.677,-1.16,-1.526
0.171,-0.94,0.29,16.724,4.089,0.793
0.17,-0.971,0.277,14.832,9.705,1.404
0.167,-1.011,0.26,13.062,15.564,0.488
0.162,-1.051,0.261,10.01,21.545,-1.343
0.218,-1.112,0.264,7.385,26.123,-3.479
0.21,-1.047,0.269,5.981,28.931,-8.484
0.238,-1.054,0.274,6.897,29.968,-11.108
0.295,-1.062,0.308,10.925,27.893,-15.93
0.311,-1.028,0.356,16.907,23.437,-20.874
0.346,-1.009,0.396,24.536,15.686,-23.499
0.376,-1.001,0.428,31.799,5.005,-25.574
0.386,-1.0,0.439,38.086,-7.08,-26.794
0.378,-1.0,0.448,42.419,-19.104,-27.466
0.366,-1.003,0.438,44.8,-30.945,-27.893
0.342,-1.0,0.417,44.617,-40.588,-28.625
0.311,-0.999,0.39,41.687,-46.57,-29.48
0.278,-0.993,0.365,36.133,-49.133,-30.579
0.233,-2.078,0.404,13.123,-43.03,4.761
0.195,-2.288,0.41,15.32,-40.466,10.132
0.149,-2.469,0.412,13.855,-35.645,15.625
0.109,-2.536,0.404,5.127,-28.015,20.752
0.108,-2.514,0.393,-9.094,-17.761,24.597
0.135,-2.479,0.376,-23.987,-6.958,27.588
0.171,-2.467,0.392,-38.696,5.127,31.982
0.214,-2.453,0.419,-52.551,17.273,39.856
0.271,-2.433,0.445,-64.575,25.696,49.561
0.329,-2.402,0.48,-73.425,30.334,58.655
0.369,-2.33,0.505,-78.735,32.471,66.101
0.421,-2.209,0.525,-80.322,32.41,70.068
0.493,-2.062,0.542,-78.857,29.114,70.19
0.519,-1.891,0.546,-75.745,22.522,65.308
0.515,-1.667,0.517,-74.341,15.503,55.176
0.507,-1.388,0.474,-75.317,11.414,42.969
0.48,-1.084,0.409,-75.745,10.132,29.968
0.445,-0.8,0.36,-75.439,11.414,17.944
0.447,-0.554,0.315,-74.707,14.099,9.705
0.448,-0.315,0.264,-73.059,14.709,5.859
0.407,-0.057,0.217,-71.655,12.268,6.47
0.346,0.174,0.168,-70.251,7.69,11.719
0.282,0.332,0.114,-67.078,1.038,20.264
0.227,0.392,0.07,-61.707,-6.409,30.579
0.167,0.343,0.033,-54.138,-14.526,41.382
0.092,0.208,0.002,-44.556,-21.912,49.377
0.021,0.055,-0.017,-35.767,-27.222,53.284
-0.052,-0.014,-0.07,-29.114,-30.029,52.429
-0.029,-0.135,-0.022,-23.376,-29.358,49.805
-0.039,-0.104,-0.032,-18.127,-32.654,40.039
-0.046,-0.105,-0.017,-12.573,-36.377,30.701
-0.006,-0.114,-0.03,-4.883,-41.199,20.081
-0.016,-0.057,-0.043,2.747,-44.739,6.836
0.004,0.002,-0.037,11.353,-46.692,-4.211
0.033,0.03,-0.068,21.851,-48.95,-14.221
0.052,0.059,-0.072,33.447,-49.316,-24.536
0.08,0.071,-0.063,45.776,-48.706,-35.034
0.1,0.075,-0.06,59.326,-47.546,-44.434
0.102,0.069,-0.053,72.937,-46.143,-50.537
0.093,0.051,-0.034,85.388,-43.884,-52.307
0.097,0.007,-0.01,96.313,-41.748,-49.988
0.104,-0.03,0.0,104.797,-39.795,-44.739
0.104,-0.06,0.024,110.535,-37.476,-37.598
0.094,-0.102,0.055,113.464,-35.706,-29.114
0.083,-0.14,0.078,113.159,-33.875,-20.569
0.073,-0.16,0.095,109.375,-32.227,-12.878
0.055,-0.169,0.113,103.271,-29.663,-6.287
0.032,-0.169,0.127,94.788,-26.367,-0.916
0.018,-0.182,0.134,85.266,-22.705,4.395
0.009,-0.221,0.139,75.806,-19.104,8.667
-0.005,-0.276,0.151,66.895,-15.32,11.047
-0.014,-0.335,0.167,59.814,-11.23,11.536
-0.009,-0.383,0.182,53.772,-7.874,10.254
0.005,-0.432,0.2,48.584,-5.554,7.69
0.021,-0.487,0.221,44.739,-5.188,4.272
0.041,-0.544,0.245,42.725,-6.226,0.854
0.071,-0.581,0.278,42.419,-9.277,-2.319
0.124,-0.574,0.319,43.64,-14.526,-4.456
0.197,-0.567,0.373,47.363,-22.888,-5.31
0.285,-0.632,0.44,53.284,-35.217,-2.808
0.388,-0.825,0.509,62.622,-52.307,5.127
0.497,-1.068,0.579,69.214,-73.303,20.874
0.589,-1.315,0.645,66.711,-97.168,42.969
0.621,-1.628,0.647,57.068,-127.686,67.2
0.566,-1.929,0.557,41.26,-161.56,87.83
0.47,-2.096,0.436,18.311,-187.744,101.807
0.323,-2.123,0.317,-7.751,-199.158,106.14
0.146,-2.113,0.178,-32.837,-192.932,97.412
-0.026,-2.307,-0.015,-56.091,-168.213,78.857
-0.165,-2.606,-0.274,-81.604,-126.526,54.81
-0.216,-2.563,-0.448,-110.962,-70.251,28.87
-0.149,-2.266,-0.398,-133.667,-5.371,8.972
-0.051,-2.122,-0.272,-133.301,54.138,-0.549
0.166,-2.066,-0.103,-115.417,100.098,-4.639
0.473,-1.885,0.102,-95.52,129.15,-9.46
0.658,-1.563,0.3,-78.796,141.296,-15.381
0.704,-1.293,0.448,-62.012,140.198,-21.057
0.676,-1.147,0.467,-44.25,128.723,-25.085
0.645,-1.118,0.42,-28.137,113.647,-26.123
0.636,-1.115,0.382,-18.494,98.206,-26.367
0.621,-1.102,0.345,-14.343,82.947,-27.466
0.597,-1.076,0.289,-13.489,66.895,-30.396
0.571,-1.022,0.245,-14.648,53.04,-34.424
0.538,-0.978,0.245,-16.479,41.321,-37.842
0.509,-0.953,0.263,-17.639,29.602,-41.199
0.48,-0.915,0.273,-19.104,17.212,-45.471
0.444,-0.876,0.292,-19.104,4.883,-49.988
0.406,-0.858,0.297,-15.564,-6.775,-53.162
0.353,-0.838,0.29,-9.155,-17.334,-54.138
0.307,-0.814,0.286,0.0,-26.062,-52.429
0.265,-0.79,0.266,11.597,-32.837,-49.194
0.215,-0.75,0.255,24.292,-36.316,-45.044
0.167,-0.72,0.247,37.598,-36.194,-40.161
0.134,-0.702,0.242,50.659,-32.654,-36.499
0.094,-0.672,0.236,61.035,-26.184,-33.936
0.074,-0.666,0.235,69.031,-18.188,-31.067
0.034,-0.646,0.198,74.402,-8.545,-29.053
-0.06,-0.602,0.144,77.515,5.859,-25.208
-0.007,-0.633,0.266,79.346,26.245,-18.433
0.141,-0.762,0.227,79.59,37.17,-16.907
0.15,-0.985,0.106,73.669,45.166,-22.339
0.077,-0.712,0.218,61.157,60.852,-35.706
0.101,-0.75,0.321,53.101,67.749,-31.433
0.227,-0.947,0.223,48.218,60.669,-24.902
0.215,-0.981,0.221,40.039,58.044,-24.841
0.181,-1.056,0.219,31.677,54.626,-22.217
0.213,-1.112,0.26,24.841,50.171,-20.935
0.247,-1.169,0.249,18.616,40.405,-19.836
0.272,-1.205,0.243,12.634,28.32,-19.043
0.268,-1.207,0.227,6.592,16.357,-18.127
0.255,-1.218,0.203,2.38,4.944,-16.846
0.221,-1.209,0.167,-1.77,-4.028,-16.235
0.196,-1.189,0.165,-5.432,-9.338,-14.832
0.188,-1.18,0.152,-8.118,-14.038,-13.062
0.169,-1.146,0.132,-10.925,-17.456,-11.047
0.15,-1.11,0.128,-12.634,-18.86,-7.507
0.15,-1.072,0.128,-13.0,-18.738,-3.662
0.135,-1.021,0.127,-11.719,-17.944,-0.122
0.127,-0.975,0.141,-9.399,-16.052,4.639
0.264,-2.063,0.412,12.268,-79.041,7.874
0.205,-2.231,0.415,10.803,-78.369,10.681
0.155,-2.357,0.425,5.432,-73.669,13.428
0.13,-2.44,0.424,-5.005,-65.552,16.418
0.104,-2.485,0.396,-18.86,-55.908,20.203
0.074,-2.506,0.359,-31.738,-44.556,23.743
0.037,-2.535,0.33,-41.382,-31.433,25.818
0.005,-2.527,0.303,-47.241,-16.357,25.574
-0.015,-2.442,0.277,-49.133,-0.061,22.095
-0.032,-2.313,0.256,-48.218,18.066,15.32
-0.036,-2.176,0.243,-43.579,37.292,5.981
-0.031,-1.999,0.239,-35.645,55.847,-4.578
-0.006,-1.791,0.241,-26.001,73.975,-17.09
0.058,-1.568,0.242,-16.235,90.454,-31.494
0.151,-1.305,0.225,-8.484,104.309,-45.959
0.247,-0.999,0.217,-4.028,114.624,-58.838
0.333,-0.672,0.2,-1.892,120.178,-68.237
0.404,-0.344,0.176,-1.16,121.216,-72.815
0.45,-0.034,0.144,-0.671,118.164,-71.777
0.497,0.199,0.126,0.061,110.779,-63.721
0.55,0.343,0.133,0.61,97.229,-49.316
0.578,0.361,0.156,1.282,75.378,-29.602
0.562,0.247,0.148,2.38,45.166,-8.667
0.469,0.09,0.127,1.465,13.306,11.353
0.345,-0.051,0.117,-3.723,-14.832,32.41
0.217,-0.125,0.095,-12.39,-39.246,50.354
0.106,-0.169,0.054,-21.667,-58.533,63.416
0.017,-0.201,0.016,-29.297,-70.496,70.618
-0.055,-0.214,-0.005,-33.875,-75.256,71.228
-0.102,-0.209,-0.028,-34.424,-74.524,66.589
-0.121,-0.171,-0.05,-31.494,-68.848,57.495
-0.124,-0.125,-0.062,-25.269,-59.692,45.715
-0.115,-0.084,-0.07,-16.235,-48.157,32.104
-0.086,-0.057,-0.073,-5.432,-35.217,17.761
-0.04,-0.073,-0.072,6.226,-22.278,3.418
0.002,-0.107,-0.053,16.052,-9.705,-9.705
0.056,-0.14,-0.026,23.437,1.587,-21.667
0.119,-0.161,0.001,28.748,11.414,-30.579
0.17,-0.168,0.025,31.677,18.86,-35.034
0.199,-0.167,0.042,33.203,23.254,-34.546
0.219,-0.164,0.059,32.715,24.902,-29.297
0.239,-0.156,0.076,31.067,24.17,-19.836
0.256,-0.149,0.09,28.503,20.874,-8.179
0.266,-0.146,0.105,25.696,15.564,4.395
0.268,-0.155,0.123,22.949,8.911,17.944
0.261,-0.19,0.14,20.447,1.343,30.334
0.252,-0.234,0.157,18.921,-6.226,40.588
0.238,-0.268,0.173,17.7,-13.611,48.34
0.218,-0.307,0.184,16.602,-21.118,53.467
0.188,-0.364,0.191,16.113,-28.259,56.335
0.156,-0.437,0.193,15.198,-33.875,57.8
0.124,-0.512,0.195,14.038,-38.513,58.472
0.1,-0.582,0.201,12.268,-41.87,58.105
0.08,-0.643,0.208,10.01,-44.434,56.885
0.071,-0.683,0.219,7.629,-47.363,55.603
0.098,-0.708,0.252,5.066,-50.72,53.589
0.174,-0.774,0.321,2.93,-55.847,51.147
0.263,-0.901,0.384,1.282,-65.43,49.438
0.342,-1.062,0.468,-2.014,-79.651,49.5
0.456,-1.246,0.589,-9.521,-96.985,51.941
0.547,-1.437,0.651,-23.071,-118.53,61.096
0.532,-1.635,0.653,-42.664,-141.479,77.026
0.417,-1.763,0.595,-68.115,-160.034,93.933
0.315,-1.837,0.521,-92.468,-169.312,105.469
0.24,-1.895,0.453,-108.337,-166.321,109.985
0.13,-1.939,0.386,-115.723,-151.001,105.896
-0.029,-2.069,0.28,-118.042,-124.268,92.834
-0.165,-2.135,0.174,-120.117,-84.961,73.975
-0.144,-1.99,0.189,-120.117,-35.645,51.331
0.005,-1.802,0.214,-112.061,11.902,24.78
0.087,-1.566,0.31,-94.788,54.382,-2.625
0.209,-1.394,0.386,-68.848,86.365,-23.071
0.401,-1.321,0.474,-37.842,104.736,-40.894
0.511,-1.274,0.535,-4.578,110.107,-55.298
0.559,-1.248,0.599,29.907,104.492,-64.087
0.589,-1.248,0.65,61.89,91.553,-68.909
0.599,-1.247,0.666,86.792,75.745,-70.313
0.576,-1.226,0.638,100.403,58.96,-69.214
0.533,-1.169,0.591,102.295,44.861,-65.308
0.495,-1.106,0.537,96.13,35.278,-60.364
0.463,-1.082,0.489,85.754,29.114,-55.176
0.431,-1.074,0.45,73.73,25.574,-50.537
0.404,-1.052,0.428,60.73,24.292,-46.631
0.389,-1.006,0.406,47.974,23.926,-43.945
0.375,-0.959,0.378,37.354,22.766,-42.48
0.353,-0.914,0.354,28.809,20.691,-40.71
0.318,-0.865,0.33,22.705,18.005,-38.513
0.286,-0.83,0.306,18.86,15.381,-36.255
0.262,-0.815,0.284,17.578,13.184,-33.813
0.241,-0.799,0.264,17.883,10.925,-30.823
0.225,-0.769,0.246,19.958,8.972,-27.71
0.219,-0.732,0.232,22.644,7.202,-24.414
0.221,-0.703,0.218,26.367,4.944,-21.729
0.214,-0.677,0.203,30.823,2.991,-19.47
0.202,-0.651,0.195,35.217,1.892,-18.066
0.213,-0.642,0.203,39.612,1.221,-17.578
0.221,-0.611,0.199,43.335,0.488,-17.883
0.157,-0.572,0.145,45.166,0.366,-15.015
0.021,-0.549,0.091,47.485,6.226,-7.141
0.183,-0.742,0.379,51.636,17.09,3.113
0.417,-0.969,0.102,52.307,8.301,-2.014
0.192,-0.787,0.246,42.664,8.911,-12.268
0.185,-0.777,0.27,37.781,5.92,-8.423
0.198,-0.818,0.201,32.776,-3.235,-7.629
0.172,-0.919,0.168,27.71,-5.92,-3.662
0.09,-0.9,0.137,21.24,-4.15,-5.371
0.135,-1.031,0.246,15.442,0.122,-5.31
0.187,-1.051,0.208,10.315,-5.249,-10.254
0.192,-1.083,0.237,5.615,-8.301,-11.719
0.193,-1.151,0.231,3.723,-13.855,-12.817
0.17,-1.197,0.217,3.601,-19.47,-15.503
0.134,-1.201,0.202,4.395,-22.705,-17.761
0.149,-1.217,0.206,5.676,-23.01,-19.409
0.156,-1.204,0.2,6.775,-22.461,-21.423
0.173,-1.173,0.205,7.263,-21.362,-22.522
0.203,-1.142,0.193,7.446,-20.508,-22.949
0.207,-1.088,0.187,7.263,-18.677,-22.766
0.217,-1.05,0.181,7.385,-16.357,-21.545
0.227,-1.011,0.171,7.446,-13.428,-20.386
0.36,-1.937,0.455,43.701,-30.396,-13.367
0.321,-2.059,0.472,43.213,-27.1,-11.963
0.3,-2.155,0.476,35.706,-21.667,-7.69
0.298,-2.251,0.458,23.071,-16.052,-3.479
0.307,-2.329,0.421,6.958,-11.108,0.61
0.318,-2.407,0.381,-10.437,-7.202,3.967
0.32,-2.485,0.332,-27.222,-4.517,5.127
0.326,-2.526,0.276,-42.358,-3.906,3.662
0.335,-2.525,0.239,-53.894,-4.7,0.0
0.346,-2.488,0.227,-59.143,-7.385,-3.967
0.345,-2.404,0.229,-56.946,-11.658,-8.057
0.337,-2.295,0.246,-47.791,-18.005,-11.719
0.328,-2.171,0.275,-33.325,-25.452,-14.526
0.329,-2.02,0.305,-15.076,-33.691,-17.273
0.347,-1.863,0.321,4.211,-41.931,-20.081
0.361,-1.712,0.318,22.705,-48.828,-24.109
0.366,-1.568,0.302,38.086,-52.429,-29.297
0.355,-1.413,0.278,48.523,-52.246,-34.79
0.332,-1.233,0.243,53.772,-47.546,-40.283
0.297,-1.033,0.196,54.382,-37.354,-44.861
0.257,-0.821,0.159,50.72,-21.24,-47.18
0.194,-0.599,0.128,43.945,-0.671,-45.898
0.133,-0.377,0.083,33.02,23.499,-40.405
0.13,-0.171,0.034,16.724,49.011,-30.09
0.17,0.039,-0.009,-3.235,69.824,-15.076
0.204,0.197,-0.027,-21.118,83.374,2.319
0.214,0.257,-0.044,-34.607,89.417,22.095
0.211,0.254,-0.05,-44.556,88.379,41.931
0.198,0.235,-0.044,-49.805,82.031,60.12
0.179,0.215,-0.02,-50.903,71.289,75.806
0.161,0.184,-0.014,-49.011,56.335,87.83
0.159,0.097,0.032,-44.922,41.077,95.52
0.117,0.086,0.029,-40.039,24.17,96.375
0.101,0.043,0.081,-33.875,6.104,93.689
0.114,0.024,0.079,-25.818,-12.939,86.853
0.154,-0.049,0.099,-15.625,-31.86,75.012
0.008,-0.048,0.066,-4.822,-48.157,56.641
-0.216,-0.008,0.167,4.761,-46.753,39.246
-0.271,-0.053,0.139,14.648,-37.842,25.024
-0.146,-0.158,0.101,24.841,-26.062,9.277
-0.063,-0.192,0.119,32.776,-10.193,-7.69
-0.019,-0.185,0.156,38.208,1.038,-22.339
0.04,-0.227,0.163,43.091,7.69,-32.776
0.101,-0.267,0.158,44.983,11.841,-40.1
0.167,-0.298,0.157,44.495,14.343,-44.678
0.22,-0.3,0.151,42.358,13.489,-47.485
0.268,-0.289,0.169,39.49,9.155,-46.387
0.315,-0.285,0.171,35.767,-0.793,-41.87
0.338,-0.307,0.163,32.288,-14.526,-34.485
0.332,-0.322,0.152,28.32,-29.907,-24.963
0.31,-0.32,0.15,24.475,-44.678,-13.855
0.282,-0.316,0.15,20.813,-58.228,-2.075
0.242,-0.328,0.144,16.785,-69.458,9.521
0.197,-0.361,0.137,12.695,-76.965,20.813
0.151,-0.392,0.129,8.606,-80.872,30.762
0.116,-0.417,0.13,4.028,-80.811,39.063
0.086,-0.449,0.131,-0.183,-78.796,45.044
0.071,-0.476,0.146,-3.601,-74.951,48.889
0.08,-0.501,0.166,-6.348,-71.289,50.476
0.09,-0.523,0.182,-8.545,-69.336,48.889
0.092,-0.549,0.2,-9.766,-68.604,45.532
0.094,-0.609,0.23,-9.338,-68.726,42.114
0.077,-0.712,0.264,-5.737,-70.74,39.368
0.049,-0.834,0.288,-1.526,-74.463,37.598
0.033,-0.937,0.307,2.502,-78.857,36.072
0.017,-1.022,0.325,5.859,-82.825,33.752
-0.021,-1.157,0.322,9.521,-85.754,31.738
-0.091,-1.315,0.3,10.498,-85.876,30.151
-0.146,-1.485,0.271,5.676,-81.726,28.015
-0.171,-1.648,0.243,-5.859,-72.693,25.085
-0.173,-1.805,0.209,-23.01,-59.326,20.752
-0.175,-1.989,0.147,-44.861,-42.908,14.954
-0.213,-2.177,0.063,-73.975,-23.987,9.155
-0.21,-2.226,0.016,-107.849,-1.648,4.028
-0.082,-2.094,-0.011,-138.184,21.362,-2.808
0.108,-2.006,0.013,-154.602,41.321,-11.963
0.278,-1.95,0.095,-151.917,55.603,-23.376
0.4,-1.831,0.209,-135.925,63.904,-35.645
0.483,-1.744,0.331,-112.305,66.04,-46.509
0.505,-1.686,0.426,-84.045,62.378,-55.847
0.501,-1.601,0.48,-55.786,56.824,-63.049
0.481,-1.494,0.502,-30.64,52.795,-65.491
0.441,-1.416,0.479,-9.155,50.781,-64.026
0.429,-1.414,0.433,8.423,52.063,-60.181
0.447,-1.41,0.336,19.348,56.274,-55.908
0.461,-1.346,0.298,25.208,62.744,-51.941
0.513,-1.263,0.335,29.114,65.674,-47.363
0.6,-1.226,0.326,31.921,59.082,-41.077
0.646,-1.177,0.329,34.302,47.852,-36.499
0.611,-1.09,0.37,36.499,33.325,-33.691
0.563,-0.97,0.422,40.894,16.968,-29.907
0.513,-0.875,0.442,49.561,-2.747,-23.987
0.455,-0.822,0.435,62.134,-21.301,-16.602
0.403,-0.811,0.438,75.378,-36.926,-10.62
0.357,-0.787,0.443,88.135,-49.744,-7.935
0.31,-0.775,0.432,100.525,-60.181,-6.836
0.252,-0.783,0.428,110.352,-66.406,-6.409
0.213,-0.802,0.407,117.798,-67.871,-6.47
0.212,-0.865,0.448,122.375,-66.65,-8.057
0.164,-0.806,0.395,122.925,-66.528,-11.169
0.179,-0.846,0.427,121.46,-62.927,-11.414
0.198,-0.854,0.418,116.333,-61.401,-14.404
0.124,-0.852,0.406,108.032,-57.922,-17.517
0.016,-0.865,0.406,95.947,-47.974,-21.851
0.023,-0.889,0.358,82.642,-38.818,-23.499
0.074,-0.89,0.334,68.909,-30.762,-23.743
0.097,-0.89,0.328,56.458,-25.635,-22.766
0.091,-0.883,0.322,44.983,-25.085,-20.386
0.078,-0.901,0.319,34.241,-26.611,-15.564
0.06,-0.94,0.301,23.743,-28.87,-9.766
0.032,-0.981,0.267,12.207,-30.212,-4.883
0.0,-1.014,0.23,0.366,-29.297,-2.136
-0.032,-1.045,0.196,-11.292,-25.024,-0.427
-0.051,-1.068,0.165,-21.851,-17.517,0.671
-0.052,-1.074,0.151,-30.945,-7.019,1.282
-0.033,-1.073,0.125,-37.476,4.395,0.916
-0.016,-1.07,0.114,-41.504,16.235,0.61
0.004,-1.095,0.104,-43.274,27.588,1.221
0.021,-1.09,0.095,-43.579,37.842,0.671
0.451,-1.839,0.395,14.404,-76.843,10.498
0.408,-1.98,0.381,18.372,-92.834,0.671
0.377,-2.125,0.354,19.287,-102.234,-6.592
0.331,-2.282,0.318,16.663,-106.506,-10.62
0.262,-2.468,0.282,7.996,-105.774,-8.301
0.2,-2.573,0.262,-7.08,-100.83,-1.831
0.14,-2.553,0.246,-25.94,-91.492,6.226
0.09,-2.506,0.232,-44.067,-78.918,14.343
0.068,-2.494,0.211,-59.021,-64.27,21.118
0.073,-2.479,0.208,-70.801,-49.866,25.818
0.099,-2.439,0.232,-79.285,-37.17,27.832
0.137,-2.359,0.259,-82.825,-29.236,27.039
0.176,-2.239,0.298,-81.421,-24.841,23.071
0.219,-2.098,0.349,-74.585,-23.499,16.357
0.264,-1.952,0.396,-63.477,-25.879,6.714
0.293,-1.785,0.439,-47.913,-30.518,-4.089
0.293,-1.617,0.468,-28.503,-35.95,-15.198
0.25,-1.466,0.469,-7.019,-41.077,-25.94
0.154,-1.32,0.443,13.794,-41.565,-33.752
0.021,-1.183,0.391,30.884,-34.058,-37.354
-0.124,-1.044,0.321,41.199,-15.564,-37.964
-0.252,-0.919,0.251,44.189,14.893,-38.33
-0.31,-0.765,0.172,38.574,58.228,-39.673
-0.221,-0.596,0.115,27.161,106.445,-41.199
-0.005,-0.393,0.082,11.475,146.606,-39.673
0.209,-0.145,0.055,-5.432,169.739,-36.133
0.348,0.085,0.031,-20.874,175.171,-29.785
0.401,0.238,0.001,-33.325,167.297,-18.921
0.407,0.297,-0.042,-43.274,152.222,-5.127
0.404,0.319,-0.053,-51.025,135.62,9.277
0.406,0.252,0.009,-55.176,117.004,26.428
0.344,0.27,-0.053,-56.58,91.248,41.504
0.358,-0.011,-0.023,-55.115,66.65,59.265
0.332,-0.085,0.099,-54.26,41.077,66.162
0.331,-0.041,0.076,-51.208,6.165,70.007
0.325,-0.103,0.071,-43.579,-24.414,73.059
0.158,-0.083,0.059,-34.851,-46.204,69.702
-0.011,-0.096,0.129,-24.475,-55.786,63.904
-0.083,-0.136,0.101,-14.16,-61.646,53.162
-0.016,-0.175,0.039,-6.897,-63.049,37.476
0.026,-0.139,-0.011,-1.404,-59.265,22.034
0.029,-0.111,-0.011,4.883,-51.147,10.071
0.034,-0.131,-0.01,12.268,-43.213,0.183
0.058,-0.16,-0.016,19.348,-35.4,-7.69
0.086,-0.157,-0.004,24.109,-26.611,-13.55
0.119,-0.154,0.018,27.405,-17.334,-14.099
0.144,-0.161,0.038,29.724,-10.376,-10.071
0.16,-0.185,0.06,30.823,-6.226,-2.686
0.16,-0.214,0.077,30.212,-5.005,7.141
0.154,-0.231,0.085,27.893,-5.493,18.311
0.158,-0.235,0.085,24.719,-7.385,29.724
0.165,-0.238,0.084,21.179,-9.949,40.649
0.166,-0.236,0.085,18.738,-13.672,49.622
0.157,-0.236,0.094,17.456,-17.212,56.213
0.145,-0.253,0.109,17.334,-20.996,60.73
0.135,-0.273,0.122,17.822,-24.536,63.293
0.133,-0.29,0.136,18.738,-28.381,63.538
0.142,-0.314,0.157,19.714,-32.104,62.622
0.158,-0.353,0.178,21.729,-36.56,60.608
0.19,-0.415,0.202,24.902,-42.175,57.495
0.241,-0.494,0.238,29.175,-48.95,52.856
0.306,-0.56,0.281,35.583,-57.739,46.509
0.377,-0.615,0.295,44.617,-67.81,37.781
0.435,-0.657,0.302,55.603,-77.209,26.245
0.479,-0.732,0.333,68.909,-83.008,12.939
0.527,-0.887,0.381,83.74,-87.585,0.977
0.565,-1.091,0.436,94.421,-94.482,-6.775
0.533,-1.247,0.469,96.191,-106.506,-10.742
0.443,-1.292,0.476,87.158,-121.094,-10.254
0.338,-1.268,0.467,69.702,-135.437,-4.456
0.234,-1.242,0.423,47.302,-147.278,6.897
0.142,-1.276,0.344,20.874,-153.809,21.973
0.059,-1.39,0.24,-10.071,-151.917,37.231
-0.022,-1.555,0.141,-43.274,-139.404,50.415
-0.152,-1.729,0.071,-75.378,-115.845,61.951
-0.279,-1.86,0.051,-103.516,-82.092,70.007
-0.343,-1.895,0.06,-126.343,-41.26,73.975
-0.295,-1.91,0.092,-141.541,0.61,75.439
-0.112,-1.964,0.17,-140.259,39.856,71.289
0.128,-2.011,0.279,-115.601,73.547,54.382
0.337,-1.983,0.399,-74.524,101.807,22.339
0.498,-1.89,0.479,-32.288,124.817,-19.47
0.569,-1.703,0.5,2.563,141.663,-63.049
0.602,-1.552,0.516,30.029,150.269,-96.619
0.634,-1.453,0.524,50.049,149.109,-117.31
0.65,-1.376,0.501,60.608,139.282,-128.174
0.649,-1.303,0.461,61.768,124.084,-131.348
0.652,-1.221,0.422,56.335,105.591,-128.601
0.66,-1.148,0.393,46.753,85.938,-120.544
0.665,-1.106,0.374,34.119,66.345,-106.75
0.65,-1.073,0.354,20.02,46.387,-89.844
0.612,-1.033,0.334,6.775,27.466,-72.51
0.564,-1.001,0.32,-3.906,10.315,-55.725
0.51,-0.966,0.304,-11.902,-4.578,-40.283
0.449,-0.923,0.282,-16.968,-16.602,-26.978
0.384,-0.882,0.262,-18.494,-24.719,-16.602
0.323,-0.844,0.242,-16.541,-28.32,-9.399
0.257,-0.816,0.216,-11.597,-27.527,-5.127
0.199,-0.797,0.186,-4.272,-20.63,-3.479
0.146,-0.754,0.148,4.211,-9.094,-3.54
0.022,-0.609,0.073,13.794,8.789,-1.831
0.087,-0.696,0.228,27.283,33.447,5.859
0.263,-0.766,0.219,39.734,44.617,4.944
0.27,-0.754,0.191,49.316,50.964,0.916
0.264,-0.702,0.263,58.105,57.617,-0.183
0.287,-0.685,0.283,67.261,55.176,1.282
0.34,-0.758,0.281,76.782,47.607,6.592
0.351,-0.84,0.278,82.397,38.879,10.498
0.342,-0.861,0.354,83.557,27.466,12.146
0.347,-0.92,0.357,81.848,8.423,16.113
0.329,-0.997,0.34,76.416,-11.353,20.142
0.283,-1.089,0.316,67.2,-29.541,23.865
0.223,-1.159,0.284,54.138,-44.434,25.452
0.155,-1.206,0.249,38.94,-54.321,25.33
0.099,-1.242,0.216,22.705,-58.716,23.499
0.06,-1.267,0.195,6.042,-57.19,19.47
0.038,-1.278,0.176,-9.705,-52.002,13.977
0.037,-1.274,0.16,-23.987,-44.495,7.812
0.048,-1.246,0.146,-36.438,-35.95,1.587
0.373,-2.168,0.392,15.503,12.695,9.033
0.387,-2.419,0.411,14.282,11.841,13.062
0.343,-2.633,0.397,6.47,12.207,18.005
0.285,-2.788,0.36,-8.118,16.846,23.315
0.264,-2.84,0.321,-27.771,26.489,27.649
0.274,-2.831,0.296,-46.997,39.429,30.334
0.278,-2.822,0.281,-61.279,52.917,31.616
0.294,-2.762,0.279,-70.618,65.125,31.189
0.357,-2.634,0.292,-74.829,73.853,28.198
0.44,-2.511,0.314,-71.838,76.904,22.644
0.53,-2.412,0.356,-62.378,73.792,14.587
0.625,-2.331,0.406,-47.729,64.026,3.845
0.681,-2.217,0.447,-30.457,47.913,-7.629
0.661,-2.068,0.471,-13.611,28.015,-17.273
0.603,-1.924,0.456,0.671,7.263,-22.034
0.517,-1.749,0.42,7.69,-9.155,-22.522
0.401,-1.535,0.358,7.324,-19.714,-19.47
0.264,-1.307,0.278,0.793,-22.766,-12.817
0.119,-1.117,0.227,-8.972,-17.029,-4.761
0.019,-0.982,0.203,-20.203,-3.113,1.709
-0.031,-0.859,0.161,-32.288,16.541,6.165
-0.064,-0.716,0.099,-46.265,40.405,8.24
-0.086,-0.535,0.041,-60.547,66.467,7.08
-0.083,-0.352,-0.005,-72.205,91.858,4.089
-0.074,-0.172,-0.062,-80.078,115.479,1.648
-0.07,-0.015,-0.115,-83.618,135.925,0.305
-0.078,0.135,-0.154,-84.778,153.076,0.122
-0.053,0.264,-0.168,-83.496,166.199,2.075
0.034,0.351,-0.147,-77.759,172.302,5.676
0.119,0.366,-0.108,-66.528,168.884,9.155
0.188,0.27,-0.086,-50.598,156.189,10.01
0.232,0.101,-0.066,-33.264,138.184,7.69
0.236,-0.037,0.007,-16.785,117.432,2.136
0.322,-0.134,0.091,-2.319,88.806,-6.165
0.418,-0.226,0.088,10.01,54.382,-16.357
0.376,-0.21,0.078,18.86,22.278,-27.71
0.325,-0.152,0.117,26.062,-5.371,-33.752
0.33,-0.141,0.1,34.546,-32.715,-34.973
0.335,-0.13,0.077,42.725,-56.274,-34.363
0.312,-0.116,0.029,48.523,-74.829,-32.41
0.237,-0.073,0.011,52.551,-86.121,-29.175
0.173,-0.046,0.019,55.42,-91.309,-22.522
0.151,-0.067,0.015,58.35,-93.018,-13.489
0.123,-0.101,0.011,60.547,-90.698,-5.066
0.089,-0.151,0.028,61.462,-84.473,2.625
0.058,-0.186,0.045,60.73,-77.148,9.033
0.008,-0.204,0.066,58.228,-67.505,13.611
-0.055,-0.227,0.081,52.734,-54.565,16.174
-0.068,-0.256,0.077,44.556,-39.49,17.029
-0.032,-0.248,0.081,35.217,-25.574,16.541
-0.023,-0.204,0.104,25.635,-13.916,15.015
-0.048,-0.165,0.119,16.907,-5.493,14.099
-0.072,-0.154,0.112,9.705,-0.366,13.977
-0.085,-0.153,0.09,3.54,3.723,14.587
-0.079,-0.162,0.076,-1.404,6.592,15.015
-0.085,-0.181,0.062,-4.028,7.812,14.954
-0.092,-0.197,0.063,-5.859,8.423,14.099
-0.09,-0.214,0.058,-6.836,7.69,12.146
-0.077,-0.263,0.078,-6.47,5.859,8.545
-0.066,-0.311,0.092,-6.104,3.906,3.479
-0.05,-0.351,0.094,-5.432,2.014,-2.319
-0.016,-0.382,0.096,-4.272,-0.305,-8.362
0.042,-0.44,0.099,-3.113,-3.113,-13.794
0.114,-0.49,0.113,-0.61,-8.301,-17.944
0.195,-0.56,0.159,4.028,-15.32,-20.447
0.277,-0.682,0.21,12.634,-25.879,-20.63
0.35,-0.843,0.258,23.56,-38.757,-19.409
0.414,-1.014,0.302,32.532,-52.673,-15.747
0.46,-1.22,0.336,36.621,-65.491,-8.667
0.464,-1.465,0.327,37.17,-78.064,1.709
0.398,-1.686,0.292,31.738,-87.463,16.663
0.282,-1.873,0.259,19.409,-88.013,33.691
0.187,-2.019,0.215,3.357,-78.735,51.331
0.135,-2.154,0.151,-12.878,-61.584,66.101
0.111,-2.28,0.134,-30.396,-36.438,74.036
0.092,-2.356,0.166,-46.387,-7.812,76.599
0.116,-2.303,0.194,-58.655,17.029,74.28
0.229,-2.187,0.234,-64.331,34.485,66.04
0.441,-2.096,0.329,-55.908,43.335,52.979
0.671,-1.979,0.458,-34.79,40.527,35.156
0.804,-1.837,0.567,-7.263,25.452,12.573
0.825,-1.731,0.606,21.057,1.099,-10.864
0.775,-1.656,0.58,44.739,-26.062,-29.724
0.704,-1.615,0.518,58.899,-51.575,-42.48
0.603,-1.551,0.443,64.514,-71.899,-51.819
0.496,-1.47,0.37,63.11,-83.496,-56.641
0.393,-1.375,0.295,56.458,-86.365,-57.556
0.31,-1.316,0.237,46.204,-80.994,-55.725
0.25,-1.257,0.198,32.532,-68.787,-54.138
0.213,-1.175,0.172,17.212,-52.612,-53.589
0.204,-1.091,0.147,2.441,-34.546,-52.795
0.192,-1.026,0.125,-9.827,-17.944,-50.598
0.174,-1.0,0.123,-18.555,-3.113,-47.913
0.19,-1.013,0.138,-23.743,9.521,-44.983
0.223,-1.015,0.144,-26.245,18.188,-43.884
0.25,-0.986,0.15,-25.94,22.827,-43.518
0.269,-0.918,0.159,-22.461,23.926,-43.579
0.286,-0.854,0.165,-17.09,22.583,-43.213
0.28,-0.785,0.148,-9.888,19.226,-42.175
0.249,-0.72,0.113,-1.953,17.029,-39.551
0.229,-0.693,0.119,6.287,18.005,-35.278
0.195,-0.621,0.099,13.611,19.409,-30.701
0.158,-0.593,0.091,21.179,23.926,-21.851
0.215,-0.63,0.122,27.893,29.236,-12.634
0.212,-0.655,0.13,33.02,31.86,-5.676
0.252,-0.731,0.158,35.828,32.104,1.953
0.192,-0.693,0.156,34.851,28.381,7.874
0.154,-0.691,0.155,33.386,25.757,16.968
0.12,-0.72,0.153,31.555,23.01,24.658
0.115,-0.781,0.159,28.87,22.522,31.494
0.124,-0.881,0.167,24.902,21.118,34.79
0.103,-0.92,0.17,18.799,18.494,33.875
0.075,-0.981,0.177,12.268,15.808,34.241
0.055,-1.07,0.167,6.714,12.573,34.607
0.045,-1.163,0.155,1.526,10.681,33.081
0.045,-1.226,0.158,-5.005,9.949,29.541
0.046,-1.23,0.155,-11.78,8.423,24.841
0.053,-1.21,0.148,-17.212,6.531,20.813
0.069,-1.185,0.133,-21.729,4.7,17.09
0.283,-2.274,0.287,22.644,2.93,3.967
0.299,-2.522,0.296,16.907,7.08,7.996
0.279,-2.771,0.296,7.263,10.62,15.686
0.224,-2.918,0.287,-5.92,14.465,24.841
0.174,-2.88,0.275,-21.912,21.79,32.959
0.173,-2.734,0.273,-37.109,33.569,39.673
0.18,-2.627,0.273,-45.41,61.035,43.762
0.166,-2.564,0.288,-44.495,75.562,40.466
0.201,-2.527,0.315,-38.94,88.623,33.691
0.271,-2.537,0.344,-30.151,98.572,23.499
0.387,-2.517,0.379,-22.705,102.417,11.23
0.495,-2.416,0.41,-19.592,99.243,-2.625
0.578,-2.312,0.411,-19.226,88.806,-17.639
0.64,-2.204,0.4,-22.827,72.205,-33.325
0.632,-2.016,0.375,-30.334,51.819,-46.692
0.611,-1.891,0.354,-38.94,31.616,-53.406
0.59,-1.714,0.362,-49.438,12.085,-57.434
0.579,-1.493,0.303,-60.974,-8.667,-57.861
0.515,-1.231,0.215,-72.571,-26.733,-53.101
0.393,-0.969,0.13,-82.886,-37.659,-43.518
0.288,-0.739,0.045,-93.445,-41.931,-31.494
0.218,-0.536,-0.01,-102.722,-39.551,-20.264
0.156,-0.314,-0.093,-110.107,-32.898,-11.902
0.103,-0.075,-0.127,-112.976,-19.775,-3.052
0.061,0.123,-0.157,-110.718,-3.601,8.728
0.049,0.263,-0.182,-102.905,13.245,20.508
0.043,0.356,-0.2,-90.393,28.931,32.166
0.043,0.406,-0.18,-74.036,42.786,42.786
0.064,0.408,-0.134,-55.298,51.88,51.27
0.087,0.379,-0.091,-35.522,54.871,57.8
0.095,0.319,-0.053,-16.479,52.612,62.317
0.098,0.234,-0.019,0.671,46.57,63.904
0.099,0.154,0.009,15.198,38.147,61.523
0.081,0.096,0.027,27.466,29.358,55.298
0.059,0.042,0.043,36.926,21.301,47.119
0.036,-0.004,0.045,43.579,14.404,37.964
0.012,-0.033,0.04,47.546,9.338,28.564
-0.003,-0.041,0.034,47.852,6.531,19.653
0.006,-0.042,0.03,45.227,5.798,12.024
0.037,-0.032,0.026,40.466,5.554,5.798
0.057,-0.023,0.02,34.668,4.211,0.61
0.077,-0.022,0.017,28.625,1.953,-3.174
0.107,-0.03,0.016,22.583,-1.221,-5.249
0.129,-0.052,0.019,18.372,-5.676,-6.47
0.143,-0.074,0.025,15.442,-10.925,-6.47
0.151,-0.091,0.03,12.695,-16.541,-5.493
0.156,-0.111,0.031,10.132,-22.461,-3.906
0.155,-0.128,0.029,7.69,-28.564,-2.197
0.15,-0.145,0.022,5.249,-33.63,0.61
0.144,-0.154,0.015,3.296,-37.781,3.54
0.139,-0.16,0.006,1.465,-40.955,6.47
0.136,-0.17,0.004,-0.366,-42.725,9.644
0.134,-0.177,0.004,-1.099,-43.823,12.695
0.132,-0.162,0.004,-0.854,-44.067,15.564
0.129,-0.153,0.007,0.488,-43.701,18.311
0.126,-0.177,0.011,2.258,-43.213,21.362
0.121,-0.219,0.017,4.822,-42.48,24.353
0.115,-0.277,0.036,8.118,-41.199,27.466
0.123,-0.35,0.063,11.78,-40.527,30.273
0.143,-0.407,0.093,15.93,-40.466,31.738
0.168,-0.449,0.125,20.752,-41.809,31.616
0.2,-0.494,0.148,26.428,-45.471,30.884
0.226,-0.555,0.178,34.363,-50.842,28.992
0.24,-0.645,0.212,43.762,-57.068,27.771
0.229,-0.726,0.235,53.65,-63.66,27.71
0.247,-0.83,0.287,62.866,-68.237,30.64
0.308,-0.983,0.356,71.533,-70.679,37.598
0.391,-1.234,0.428,78.918,-71.899,48.828
0.431,-1.534,0.483,81.421,-72.449,64.575
0.427,-1.795,0.514,76.843,-72.876,80.444
0.405,-1.971,0.517,64.88,-71.716,91.553
0.406,-2.077,0.503,45.715,-65.979,96.008
0.385,-2.204,0.429,21.362,-56.335,95.215
0.285,-2.327,0.327,-7.996,-42.114,91.187
0.251,-2.327,0.292,-38.452,-20.691,82.947
0.292,-2.314,0.29,-62.195,4.333,70.007
0.4,-2.407,0.3,-72.632,29.785,52.612
0.6,-2.439,0.329,-72.815,54.565,27.71
0.814,-2.292,0.42,-68.726,75.378,-2.319
0.954,-2.048,0.522,-62.073,87.341,-31.86
1.023,-1.854,0.568,-52.917,87.585,-55.725
1.032,-1.731,0.548,-44.25,79.834,-69.092
0.979,-1.621,0.482,-40.039,68.115,-73.914
0.896,-1.51,0.399,-39.307,55.786,-73.975
0.827,-1.407,0.314,-40.283,45.898,-70.557
0.754,-1.307,0.238,-42.236,40.283,-65.552
0.679,-1.203,0.202,-45.166,39.124,-60.791
0.619,-1.063,0.173,-47.546,39.978,-57.983
0.578,-0.948,0.177,-46.143,40.649,-55.42
0.55,-0.879,0.181,-41.199,39.368,-52.612
0.487,-0.792,0.159,-34.546,36.377,-51.025
0.427,-0.698,0.172,-25.818,34.668,-48.401
0.424,-0.651,0.188,-15.564,31.738,-43.762
0.432,-0.621,0.18,-5.249,26.001,-40.71
0.429,-0.59,0.168,4.028,19.226,-38.757
0.425,-0.571,0.155,11.108,11.902,-37.354
0.386,-0.541,0.126,17.883,4.333,-36.621
0.351,-0.527,0.096,24.536,-0.671,-34.241
0.341,-0.528,0.115,30.945,-3.113,-30.396
0.315,-0.464,0.111,37.415,-6.592,-26.794
0.37,-0.45,0.195,44.189,-10.62,-19.531
0.343,-0.457,0.102,51.88,-20.691,-12.939
0.344,-0.536,0.208,57.556,-25.696,-6.409
0.388,-0.475,0.173,61.462,-34.973,-2.747
0.293,-0.526,0.237,65.979,-44.8,4.883
0.267,-0.538,0.206,68.359,-54.016,14.832
0.27,-0.645,0.212,70.496,-63.782,23.743
0.2,-0.678,0.201,69.336,-69.031,28.625
0.138,-0.718,0.203,67.322,-72.205,32.532
0.097,-0.771,0.198,63.965,-72.815,35.706
0.049,-0.831,0.184,59.326,-70.801,37.415
0.005,-0.9,0.181,53.894,-65.613,37.903
-0.039,-0.949,0.176,46.875,-58.472,36.56
-0.072,-0.993,0.166,39.185,-49.927,34.851
-0.071,-1.042,0.162,30.823,-39.978,31.494
-0.085,-1.051,0.154,21.362,-29.602,26.672
-0.074,-1.078,0.15,12.146,-19.348,22.095
-0.043,-1.118,0.148,4.089,-10.559,16.785
-0.024,-1.164,0.158,-2.93,-3.418,10.925
0.337,-2.067,0.417,-18.005,-23.499,67.749
0.341,-2.187,0.459,-12.634,-18.25,76.538
0.35,-2.232,0.501,-7.08,-14.038,82.092
0.376,-2.238,0.535,-1.282,-9.827,83.008
0.415,-2.271,0.551,5.798,-4.761,78.369
0.457,-2.357,0.552,12.329,1.404,68.115
0.502,-2.459,0.543,15.869,7.874,53.589
0.566,-2.545,0.537,13.855,14.221,35.767
0.645,-2.599,0.521,5.676,19.165,16.235
0.715,-2.581,0.501,-7.446,21.057,-3.845
0.776,-2.496,0.48,-22.827,19.653,-21.973
0.823,-2.36,0.477,-38.147,14.832,-35.278
0.833,-2.167,0.499,-50.72,8.24,-44.006
0.82,-1.938,0.535,-57.739,0.549,-48.035
0.81,-1.723,0.571,-58.533,-8.484,-47.852
0.775,-1.533,0.597,-52.795,-18.799,-44.495
0.696,-1.317,0.594,-43.335,-28.809,-38.879
0.604,-1.085,0.574,-31.616,-36.804,-31.25
0.5,-0.86,0.517,-18.799,-42.175,-23.01
0.39,-0.652,0.469,-6.409,-42.053,-14.526
0.302,-0.469,0.421,4.333,-35.828,-6.775
0.225,-0.301,0.368,12.817,-25.208,-1.099
0.178,-0.154,0.331,19.409,-10.254,4.333
0.176,-0.043,0.315,23.254,5.066,10.62
0.197,0.018,0.297,25.635,16.846,17.029
0.203,0.045,0.273,25.635,23.437,23.499
0.178,0.041,0.244,21.729,24.963,30.823
0.133,0.011,0.202,14.16,22.095,38.879
0.062,-0.019,0.135,3.113,17.273,46.875
-0.023,-0.037,0.072,-11.23,13.672,54.749
-0.081,-0.049,0.016,-26.917,11.597,60.913
-0.136,-0.021,-0.047,-42.786,10.742,64.087
-0.147,-0.044,-0.112,-54.932,11.658,64.575
-0.157,-0.048,-0.161,-61.829,13.0,57.434
-0.172,-0.026,-0.208,-62.073,14.038,44.739
-0.2,0.034,-0.207,-55.054,15.564,29.114
-0.192,0.084,-0.207,-42.358,16.113,14.954
-0.145,0.112,-0.189,-25.94,14.771,2.319
-0.099,0.133,-0.157,-9.033,10.315,-8.972
-0.049,0.134,-0.131,7.751,1.892,-18.494
-0.001,0.12,-0.123,23.071,-8.911,-24.78
0.022,0.091,-0.122,35.095,-19.775,-28.198
0.025,0.051,-0.125,43.274,-28.992,-28.748
0.009,0.017,-0.126,47.302,-35.217,-27.283
-0.009,-0.024,-0.127,47.668,-38.513,-23.56
-0.027,-0.072,-0.134,44.983,-38.94,-18.372
-0.055,-0.098,-0.141,39.551,-34.607,-12.939
-0.078,-0.104,-0.138,32.41,-26.001,-7.019
-0.086,-0.103,-0.129,26.306,-15.015,-1.953
-0.08,-0.114,-0.119,21.118,-3.662,3.235
-0.066,-0.127,-0.103,17.273,7.202,8.301
-0.044,-0.14,-0.083,15.686,16.602,11.902
-0.014,-0.177,-0.06,16.052,23.193,14.648
0.021,-0.228,-0.036,18.127,26.001,15.869
0.055,-0.26,-0.01,21.423,25.024,15.808
0.08,-0.276,0.013,24.902,20.447,15.137
0.097,-0.299,0.032,28.992,13.123,13.672
0.097,-0.343,0.042,33.691,4.211,12.573
0.082,-0.389,0.051,38.208,-4.578,11.475
0.06,-0.434,0.058,43.091,-11.169,10.681
0.035,-0.491,0.059,48.95,-15.503,9.705
0.026,-0.557,0.072,55.786,-17.09,8.545
0.042,-0.631,0.102,62.683,-16.357,8.606
0.056,-0.743,0.13,69.641,-15.259,10.559
0.051,-0.914,0.168,76.05,-13.367,15.32
0.065,-1.084,0.197,78.43,-9.888,22.705
0.103,-1.18,0.209,75.012,-6.165,29.297
0.163,-1.254,0.216,68.542,-0.427,32.166
0.213,-1.344,0.204,61.462,7.568,32.349
0.249,-1.42,0.189,52.979,18.494,29.968
0.268,-1.545,0.158,42.725,33.691,26.245
0.248,-1.748,0.11,32.532,50.964,21.79
0.179,-2.018,0.021,22.461,69.397,17.761
0.076,-2.272,-0.072,10.498,90.149,15.015
0.098,-2.396,-0.073,-1.465,114.807,12.146
0.306,-2.435,-0.028,-11.047,139.526,5.493
0.58,-2.484,0.059,-17.7,159.973,-5.249
0.881,-2.466,0.182,-24.597,171.448,-18.677
1.132,-2.346,0.291,-33.875,167.786,-34.302
1.256,-2.21,0.377,-42.358,149.597,-50.354
1.253,-2.067,0.403,-48.096,122.314,-64.087
1.168,-1.894,0.386,-52.551,91.431,-73.608
1.046,-1.741,0.358,-53.772,62.805,-76.721
0.939,-1.65,0.325,-52.795,39.429,-74.707
0.845,-1.566,0.283,-53.467,22.034,-70.679
0.752,-1.447,0.239,-57.251,10.742,-65.552
0.665,-1.289,0.197,-61.462,4.761,-60.425
0.592,-1.124,0.169,-63.599,3.296,-55.359
0.541,-1.003,0.172,-61.707,4.578,-50.232
0.473,-0.916,0.156,-55.054,6.775,-46.082
0.41,-0.852,0.168,-44.434,11.475,-41.443
0.387,-0.86,0.184,-30.457,15.869,-35.278
0.372,-0.879,0.18,-15.869,18.25,-31.738
0.339,-0.842,0.125,-3.418,21.057,-30.64
0.319,-0.775,0.162,7.507,26.733,-28.992
0.312,-0.723,0.161,18.616,29.236,-25.818
0.325,-0.697,0.151,28.748,28.625,-21.729
0.354,-0.687,0.137,36.56,27.222,-17.578
0.336,-0.677,0.146,42.297,25.513,-14.709
0.35,-0.643,0.134,46.082,23.254,-13.184
0.369,-0.636,0.177,48.645,17.395,-10.193
0.367,-0.578,0.177,50.354,8.362,-5.981
0.384,-0.601,0.182,51.636,-3.296,-1.099
0.373,-0.59,0.185,51.27,-15.381,3.113
0.349,-0.592,0.17,50.354,-27.893,7.874
0.311,-0.596,0.166,48.34,-38.269,11.963
0.277,-0.619,0.169,45.837,-47.241,16.418
0.254,-0.661,0.175,43.152,-55.298,20.569
0.222,-0.708,0.181,39.978,-61.768,23.987
0.178,-0.765,0.177,35.828,-67.078,26.672
0.133,-0.831,0.171,31.128,-70.496,29.236
0.071,-0.886,0.168,24.475,-71.228,33.264
0.047,-0.963,0.149,15.991,-70.007,36.377
0.015,-1.007,0.139,4.517,-66.956,37.292
-0.012,-1.093,0.1,-8.179,-61.279,37.659
-0.048,-1.178,0.08,-21.545,-53.284,34.79
-0.073,-1.281,0.066,-33.447,-43.762,31.128
-0.078,-1.375,0.059,-43.945,-32.837,25.818
-0.086,-1.441,0.053,-52.734,-21.606,19.165
0.304,-2.143,0.226,16.968,-84.167,1.404
0.256,-2.293,0.201,12.756,-79.468,5.493
0.185,-2.413,0.183,4.639,-71.533,12.634
0.121,-2.499,0.157,-7.507,-60.181,21.912
0.081,-2.512,0.146,-20.813,-46.509,32.227
0.065,-2.44,0.151,-33.936,-30.762,41.931
0.083,-2.329,0.168,-42.725,-15.381,49.438
0.134,-2.251,0.207,-44.861,-3.357,54.26
0.216,-2.207,0.257,-41.26,2.441,56.152
0.296,-2.158,0.299,-36.804,-1.526,54.749
0.363,-2.102,0.32,-31.372,-14.465,48.645
0.432,-2.035,0.331,-25.146,-35.156,38.94
0.48,-1.95,0.338,-18.188,-60.852,26.001
0.47,-1.873,0.328,-9.583,-88.135,10.62
0.412,-1.829,0.308,0.0,-112.366,-4.761
0.348,-1.779,0.285,8.484,-130.066,-19.043
0.274,-1.695,0.266,15.808,-139.038,-31.738
0.188,-1.565,0.255,22.034,-138.977,-41.687
0.08,-1.407,0.246,26.672,-128.479,-48.34
-0.032,-1.206,0.24,27.222,-106.14,-52.612
-0.116,-0.983,0.198,22.766,-74.951,-54.199
-0.176,-0.729,0.113,13.367,-38.574,-52.734
-0.18,-0.47,0.052,0.549,0.977,-48.401
-0.127,-0.234,0.009,-14.282,40.1,-40.344
-0.032,-0.038,-0.029,-29.419,74.158,-28.503
0.085,0.116,-0.06,-41.321,97.29,-14.221
0.183,0.235,-0.078,-48.706,108.826,1.16
0.214,0.297,-0.083,-52.124,109.436,17.334
0.196,0.28,-0.082,-52.795,102.783,33.203
0.16,0.203,-0.07,-53.589,91.187,48.401
0.132,0.105,-0.049,-55.359,76.843,63.232
0.138,0.033,-0.01,-57.19,60.181,75.928
0.072,0.079,-0.007,-57.8,41.687,84.717
0.12,0.012,0.102,-55.176,24.597,89.966
0.021,0.063,0.124,-48.828,2.991,85.022
0.035,-0.004,0.167,-37.17,-16.663,80.078
0.045,-0.041,0.117,-25.085,-37.537,65.674
-0.019,0.001,0.109,-12.756,-50.537,46.692
-0.079,0.071,0.118,0.488,-58.533,29.907
-0.079,0.066,0.094,17.273,-63.232,15.137
-0.064,0.022,0.083,34.607,-61.707,-0.183
-0.055,0.008,0.107,48.706,-55.969,-15.442
-0.021,0.006,0.131,59.631,-49.255,-28.564
0.02,-0.018,0.151,69.031,-42.786,-37.537
0.051,-0.052,0.16,76.355,-35.522,-43.274
0.072,-0.093,0.175,80.933,-27.527,-46.082
0.096,-0.126,0.196,83.13,-20.508,-45.837
0.138,-0.152,0.211,82.642,-15.869,-43.091
0.185,-0.171,0.215,79.468,-15.198,-37.903
0.213,-0.191,0.211,74.646,-18.616,-29.968
0.218,-0.207,0.205,68.359,-24.597,-19.958
0.209,-0.231,0.197,61.34,-31.555,-8.667
0.188,-0.263,0.186,52.795,-38.452,2.563
0.159,-0.299,0.173,43.396,-43.396,13.611
0.12,-0.325,0.162,32.654,-45.654,23.987
0.086,-0.348,0.156,21.484,-44.312,32.776
0.06,-0.383,0.15,10.254,-39.978,39.612
0.044,-0.433,0.152,-0.671,-33.264,44.495
0.041,-0.486,0.159,-10.986,-25.818,47.18
0.049,-0.544,0.168,-20.447,-18.677,47.974
0.073,-0.617,0.183,-28.259,-12.756,47.424
0.111,-0.706,0.206,-33.691,-9.277,45.837
0.146,-0.819,0.228,-36.316,-8.667,44.312
0.172,-0.961,0.242,-36.377,-10.803,42.419
0.192,-1.095,0.249,-36.194,-15.686,40.344
0.214,-1.216,0.268,-36.194,-21.606,38.147
0.244,-1.359,0.29,-34.607,-29.419,36.072
0.26,-1.509,0.291,-33.508,-38.879,33.997
0.254,-1.611,0.279,-35.4,-47.058,30.64
0.232,-1.756,0.25,-40.344,-51.88,28.442
0.184,-2.021,0.204,-46.204,-53.711,29.663
0.119,-2.341,0.151,-53.65,-51.514,32.837
0.044,-2.609,0.097,-63.599,-44.189,35.461
0.03,-2.717,0.074,-79.407,-32.043,36.682
0.142,-2.601,0.1,-94.971,-15.686,32.104
0.324,-2.398,0.171,-99.792,2.563,18.066
0.505,-2.209,0.275,-89.783,20.874,-4.7
0.616,-2.004,0.391,-69.763,35.522,-30.273
0.634,-1.776,0.478,-45.166,43.274,-51.941
0.631,-1.596,0.523,-19.104,46.082,-64.026
0.629,-1.494,0.542,5.066,45.349,-64.819
0.591,-1.437,0.522,24.475,40.71,-58.105
0.524,-1.399,0.475,37.231,34.668,-48.34
0.479,-1.351,0.418,42.175,29.846,-37.903
0.449,-1.281,0.36,40.405,27.71,-28.32
0.41,-1.221,0.308,34.485,28.687,-20.447
0.378,-1.187,0.274,26.672,31.921,-15.076
0.356,-1.123,0.236,17.151,35.889,-12.695
0.329,-1.023,0.206,7.263,40.955,-11.78
0.313,-0.934,0.204,-1.099,46.997,-10.376
0.311,-0.856,0.219,-8.24,52.368,-8.179
0.316,-0.796,0.234,-14.954,55.664,-4.089
0.322,-0.753,0.24,-20.569,56.091,1.038
0.323,-0.703,0.238,-24.536,54.199,6.958
0.348,-0.686,0.251,-26.55,50.659,13.855
0.355,-0.649,0.285,-25.696,44.067,20.325
0.344,-0.633,0.252,-22.034,34.485,26.489
0.332,-0.567,0.278,-16.663,24.048,29.663
0.302,-0.526,0.267,-10.315,11.719,33.569
0.278,-0.505,0.269,-2.502,0.549,36.377
0.26,-0.525,0.253,4.639,-9.644,37.842
0.227,-0.557,0.234,10.742,-18.616,37.109
0.187,-0.583,0.224,15.259,-25.208,34.546
0.147,-0.604,0.22,18.25,-29.602,31.494
0.115,-0.625,0.21,20.386,-31.982,28.442
0.093,-0.657,0.195,21.973,-32.41,25.085
0.07,-0.686,0.192,22.644,-30.029,20.813
0.051,-0.715,0.198,23.193,-26.306,16.785
0.044,-0.738,0.207,24.17,-21.851,13.123
0.041,-0.759,0.221,25.635,-17.395,10.437
0.041,-0.789,0.234,27.893,-13.123,9.094
0.035,-0.831,0.243,30.518,-9.155,8.301
0.032,-0.881,0.249,32.288,-5.127,8.179
0.034,-0.942,0.251,33.264,-0.793,7.568
0.039,-0.999,0.257,33.02,3.906,6.104
0.052,-1.042,0.259,31.006,8.667,4.395
0.069,-1.059,0.252,26.794,12.512,1.953
0.09,-1.079,0.244,21.545,16.296,-0.61
0.106,-1.101,0.234,14.954,19.47,-2.869
0.345,-2.075,0.317,-11.902,-10.132,17.334
0.338,-2.159,0.31,-24.597,-10.62,24.963
0.318,-2.196,0.304,-38.208,-10.986,32.776
0.297,-2.23,0.303,-49.316,-10.071,39.49
0.292,-2.279,0.322,-58.167,-7.812,43.579
0.292,-2.336,0.349,-66.162,-5.188,41.565
0.286,-2.329,0.372,-73.12,-2.38,33.752
0.295,-2.257,0.415,-77.942,2.441,24.475
0.321,-2.171,0.447,-79.529,6.897,16.602
0.368,-2.109,0.447,-76.782,8.606,8.545
0.401,-2.055,0.433,-69.885,7.568,-0.793
0.427,-1.996,0.412,-59.753,5.066,-12.329
0.449,-1.917,0.396,-47.424,2.38,-23.987
0.456,-1.828,0.386,-35.156,0.488,-33.02
0.469,-1.735,0.39,-24.414,-1.343,-39.063
0.5,-1.648,0.411,-14.832,-3.296,-43.03
0.547,-1.584,0.455,-4.639,-5.493,-45.41
0.54,-1.503,0.484,4.761,-9.155,-45.593
0.475,-1.393,0.472,11.353,-14.221,-42.053
0.417,-1.278,0.433,14.832,-17.944,-36.56
0.376,-1.146,0.385,16.785,-18.921,-31.128
0.331,-1.0,0.337,17.883,-15.747,-26.428
0.278,-0.847,0.287,17.517,-8.911,-22.095
0.223,-0.693,0.24,16.296,0.732,-17.944
0.19,-0.541,0.204,14.709,13.611,-13.55
0.176,-0.392,0.179,13.245,27.405,-8.118
0.178,-0.248,0.171,12.024,39.49,-1.892
0.206,-0.113,0.169,11.658,47.424,6.104
0.228,-0.017,0.177,12.695,49.194,15.503
0.243,0.02,0.183,14.099,44.861,24.414
0.193,0.094,0.168,15.991,35.645,31.982
0.174,0.033,0.176,17.517,25.757,40.1
0.112,0.007,0.185,17.151,14.771,40.71
0.052,-0.006,0.166,15.076,3.906,38.818
0.021,-0.008,0.143,11.414,-3.845,35.645
-0.022,-0.016,0.149,7.385,-7.507,30.151
-0.057,-0.008,0.148,3.052,-8.972,21.973
-0.045,0.015,0.13,-0.61,-10.559,13.306
-0.011,0.042,0.12,-1.526,-13.245,6.409
-0.001,0.063,0.111,0.122,-17.578,1.526
-0.012,0.066,0.107,2.93,-21.362,-1.038
0.004,0.057,0.108,6.165,-24.109,-2.38
0.019,0.059,0.105,8.301,-26.001,-2.747
0.028,0.057,0.101,9.033,-26.794,-2.502
0.038,0.042,0.088,9.338,-26.428,-1.465
0.056,0.017,0.071,9.155,-25.33,0.122
0.062,-0.004,0.056,8.789,-23.254,1.526
0.062,-0.018,0.044,7.935,-20.264,2.991
0.071,-0.037,0.035,6.165,-15.686,4.822
0.081,-0.056,0.028,3.357,-10.803,6.897
0.097,-0.084,0.028,-0.122,-6.165,9.766
0.116,-0.118,0.031,-4.517,-3.174,13.0
0.131,-0.139,0.031,-8.911,-2.319,16.724
0.149,-0.148,0.032,-12.573,-3.967,20.752
0.164,-0.16,0.031,-15.747,-7.69,25.085
0.163,-0.177,0.033,-17.944,-13.428,29.297
0.153,-0.208,0.035,-19.409,-19.958,33.203
0.136,-0.249,0.036,-19.653,-26.672,36.499
0.12,-0.313,0.041,-19.165,-32.715,38.818
0.107,-0.378,0.049,-17.334,-37.964,39.49
0.109,-0.435,0.074,-14.526,-42.114,38.757
0.131,-0.493,0.113,-9.277,-45.959,36.499
0.165,-0.571,0.163,-0.61,-50.72,33.142
0.19,-0.678,0.229,11.353,-56.458,29.541
0.188,-0.782,0.297,27.649,-63.171,27.405
0.181,-0.891,0.355,47.119,-71.35,27.344
0.186,-1.018,0.419,65.979,-79.163,29.358
0.172,-1.205,0.488,83.435,-85.327,33.875
0.108,-1.431,0.52,95.947,-89.05,40.344
0.003,-1.621,0.517,99.121,-87.585,45.166
-0.081,-1.785,0.498,91.431,-77.148,48.462
-0.133,-2.036,0.427,73.669,-57.8,50.415
-0.145,-2.283,0.333,43.091,-30.884,48.035
-0.143,-2.394,0.234,2.563,1.465,39.368
-0.116,-2.406,0.169,-41.016,36.682,27.527
0.048,-2.499,0.16,-76.721,71.594,11.414
0.329,-2.658,0.198,-92.407,100.708,-11.169
0.62,-2.668,0.261,-92.957,120.789,-39.246
0.828,-2.447,0.376,-88.745,131.836,-66.467
0.954,-2.126,0.502,-80.017,130.737,-91.248
1.001,-1.861,0.575,-64.88,116.943,-110.657
0.96,-1.624,0.606,-45.776,95.703,-121.094
0.865,-1.455,0.6,-25.33,71.96,-122.009
0.752,-1.359,0.544,-5.737,49.316,-115.906
0.663,-1.288,0.464,10.01,32.288,-105.957
0.584,-1.195,0.371,22.034,22.339,-93.384
0.488,-1.045,0.285,31.067,19.897,-78.552
0.474,-1.041,0.299,37.72,22.095,-62.256
0.417,-0.946,0.238,40.161,20.996,-52.734
0.387,-0.845,0.245,39.307,25.208,-41.504
0.365,-0.807,0.197,35.95,27.039,-28.992
0.298,-0.731,0.149,32.104,33.447,-19.958
0.277,-0.757,0.176,28.259,43.091,-10.864
0.257,-0.729,0.145,24.536,49.133,-6.348
0.267,-0.749,0.166,21.118,56.519,-3.113
0.273,-0.704,0.162,18.005,60.181,-2.686
0.302,-0.685,0.16,15.686,61.096,-2.014
0.317,-0.655,0.167,14.16,60.547,-2.869
0.335,-0.611,0.18,13.245,56.885,-3.906
0.367,-0.59,0.187,14.16,48.523,-3.967
0.372,-0.556,0.184,16.357,36.926,-3.967
0.357,-0.531,0.188,19.104,24.414,-2.197
0.372,-0.549,0.21,22.705,9.827,0.61
0.356,-0.567,0.183,26.367,-6.287,2.258
0.313,-0.565,0.189,28.931,-20.203,3.906
0.273,-0.58,0.187,31.067,-32.715,6.775
0.231,-0.615,0.183,32.715,-43.213,9.277
0.185,-0.663,0.172,32.288,-49.744,11.292
0.129,-0.712,0.158,30.701,-52.551,12.634
0.072,-0.77,0.147,27.771,-51.025,13.794
0.026,-0.846,0.135,24.414,-45.471,14.465
-0.005,-0.932,0.129,20.691,-36.743,13.855
-0.034,-1.005,0.121,15.503,-25.574,12.207
-0.053,-1.058,0.12,9.644,-13.062,10.62
-0.052,-1.096,0.12,4.761,-0.793,8.24
-0.037,-1.123,0.115,0.549,11.536,5.554
-0.007,-1.134,0.118,-2.747,22.949,2.258
0.031,-1.135,0.123,-4.761,32.043,-1.343
0.074,-1.134,0.129,-5.554,38.757,-5.432
-0.107,-2.409,0.125,-46.692,14.648,65.613
-0.113,-2.435,0.124,-47.607,41.138,62.073
-0.093,-2.429,0.121,-49.133,72.388,51.636
-0.05,-2.412,0.123,-51.819,105.53,37.537
0.046,-2.373,0.15,-56.702,137.268,21.729
0.188,-2.301,0.175,-64.087,160.706,5.432
0.314,-2.222,0.179,-71.106,171.021,-12.085
0.421,-2.159,0.167,-74.89,170.227,-31.311
0.504,-2.073,0.156,-75.256,162.17,-49.866
0.546,-1.952,0.146,-72.571,149.17,-65.002
0.563,-1.811,0.141,-68.359,133.911,-75.073
0.565,-1.618,0.13,-62.012,118.835,-81.482
0.53,-1.38,0.116,-53.711,106.14,-84.045
0.442,-1.139,0.099,-43.884,98.022,-82.092
0.32,-0.919,0.061,-33.508,95.947,-76.05
0.205,-0.717,0.019,-23.804,101.196,-67.322
0.156,-0.559,0.009,-16.418,114.319,-56.03
0.135,-0.418,0.006,-11.414,129.578,-44.128
0.102,-0.267,0.01,-7.69,144.47,-33.875
0.094,-0.126,0.019,-4.639,158.142,-25.024
0.118,0.0,0.036,-1.038,168.03,-17.09
0.143,0.099,0.054,3.54,171.875,-10.376
0.151,0.161,0.06,7.812,169.495,-4.333
0.128,0.205,0.052,12.207,163.208,0.305
0.176,0.091,0.113,16.663,153.87,5.188
0.186,0.032,0.144,19.226,137.878,4.944
0.204,-0.055,0.162,19.348,119.324,4.333
0.191,-0.083,0.169,16.724,99.487,0.122
0.171,-0.096,0.161,13.611,81.055,-3.235
0.168,-0.103,0.158,11.414,64.27,-6.653
0.176,-0.103,0.152,10.742,49.561,-10.864
0.183,-0.095,0.143,10.559,35.828,-14.832
0.174,-0.08,0.126,11.414,24.475,-18.372
0.172,-0.077,0.109,12.878,15.747,-20.63
0.177,-0.084,0.095,14.465,9.583,-22.522
0.184,-0.078,0.086,15.869,5.493,-24.963
0.196,-0.055,0.077,16.907,2.502,-26.123
0.206,-0.036,0.064,17.761,0.183,-25.33
0.216,-0.042,0.058,18.921,-1.282,-22.4
0.224,-0.061,0.061,20.081,-2.808,-17.883
0.231,-0.079,0.066,21.118,-5.554,-12.451
0.23,-0.095,0.071,21.24,-9.338,-6.348
0.232,-0.108,0.077,20.874,-14.404,-0.793
0.225,-0.123,0.079,19.958,-20.691,4.883
0.217,-0.135,0.082,18.799,-27.832,9.521
0.209,-0.15,0.079,17.09,-35.828,12.939
0.198,-0.166,0.078,14.893,-44.495,14.771
0.184,-0.178,0.076,12.451,-52.49,15.198
0.167,-0.18,0.075,10.559,-59.875,14.404
0.146,-0.183,0.08,9.338,-65.979,13.367
0.128,-0.198,0.085,9.277,-71.045,12.878
0.105,-0.227,0.094,9.46,-74.341,13.062
0.089,-0.259,0.099,9.338,-75.989,13.733
0.08,-0.281,0.101,9.216,-76.111,14.404
0.065,-0.321,0.109,8.972,-74.89,14.893
0.065,-0.385,0.122,9.216,-72.205,15.32
0.091,-0.459,0.138,10.193,-69.824,15.686
0.137,-0.548,0.155,10.864,-68.481,15.991
0.188,-0.664,0.173,12.695,-70.007,15.686
0.224,-0.798,0.198,15.869,-74.829,15.564
0.233,-0.953,0.2,20.325,-82.153,16.113
0.212,-1.117,0.17,22.217,-89.355,16.602
0.172,-1.299,0.149,20.02,-91.614,15.869
0.109,-1.495,0.112,13.611,-87.646,16.785
0.062,-1.627,0.067,2.93,-79.346,20.569
0.056,-1.654,0.045,-8.85,-66.65,25.452
0.034,-1.741,0.041,-17.09,-52.307,32.349
-0.042,-1.955,0.028,-22.278,-37.842,41.321
-0.155,-2.192,0.018,-28.32,-22.4,50.842
-0.207,-2.349,0.038,-37.476,-7.08,59.753
-0.114,-2.379,0.095,-47.668,3.479,62.073
0.068,-2.344,0.174,-53.04,8.667,51.27
0.279,-2.274,0.244,-48.828,7.69,27.161
0.44,-2.19,0.301,-36.682,1.404,-5.31
0.494,-2.053,0.362,-20.325,-7.446,-41.748
0.517,-1.872,0.401,-3.174,-19.47,-76.233
0.552,-1.705,0.432,14.526,-31.555,-98.694
0.544,-1.566,0.451,32.227,-42.603,-106.812
0.49,-1.485,0.44,49.866,-52.49,-103.455
0.401,-1.475,0.415,66.528,-58.228,-90.942
0.324,-1.51,0.36,76.965,-57.129,-73.425
0.295,-1.434,0.448,78.979,-49.011,-57.556
0.369,-1.509,0.332,76.05,-44.556,-41.992
0.377,-1.411,0.409,68.359,-36.499,-34.302
0.396,-1.354,0.362,58.472,-33.875,-27.832
0.34,-1.237,0.249,48.889,-33.691,-26.001
0.276,-1.168,0.214,40.894,-25.818,-22.705
0.266,-1.107,0.245,35.4,-17.029,-21.301
0.271,-1.093,0.244,32.593,-13.794,-21.362
0.286,-1.015,0.242,30.518,-12.512,-23.56
0.307,-0.955,0.226,29.48,-11.414,-24.414
0.332,-0.96,0.251,29.846,-11.353,-25.513
0.335,-0.899,0.234,28.992,-13.916,-29.602
0.295,-0.751,0.232,27.1,-17.273,-30.823
0.259,-0.635,0.212,27.161,-20.874,-26.001
0.244,-0.601,0.193,27.466,-24.109,-18.005
0.235,-0.618,0.186,28.564,-25.269,-10.925
0.222,-0.636,0.17,29.358,-26.794,-6.104
0.19,-0.638,0.183,29.541,-26.428,-0.793
0.165,-0.653,0.206,29.48,-26.367,5.615
0.169,-0.689,0.234,28.748,-29.358,11.78
0.175,-0.741,0.269,26.184,-36.316,16.541
0.075,-0.797,0.238,22.522,-53.467,20.508
0.004,-0.892,0.236,18.127,-73.181,24.414
-0.1,-0.934,0.239,9.766,-90.698,27.039
-0.219,-0.978,0.206,4.089,-107.117,29.48
-0.26,-1.103,0.17,-0.61,-120.056,30.457
-0.328,-1.207,0.154,-6.897,-124.146,27.71
-0.406,-1.26,0.111,-14.465,-118.408,20.386
-0.396,-1.282,0.054,-22.888,-106.384,10.315
-0.342,-1.265,0.011,-32.166,-88.135,-0.488
-0.3,-1.234,-0.018,-40.71,-65.674,-10.254
-0.282,-1.209,-0.047,-47.485,-39.978,-18.311
-0.218,-1.192,-0.068,-52.612,-10.864,-23.743
-0.11,-1.151,-0.056,-56.763,18.372,-26.367
-0.029,-1.069,-0.016,-59.509,44.861,-25.513
0.013,-0.993,0.032,-58.96,67.139,-20.813
0.073,-0.951,0.057,-54.26,82.214,-12.512
0.125,-0.941,0.055,-47.241,87.646,-3.54
0.221,-2.389,0.312,20.935,-7.324,-0.488
0.249,-2.538,0.319,14.771,-4.028,-0.488
0.263,-2.621,0.332,3.967,-1.221,5.066
0.263,-2.655,0.34,-7.202,-0.061,15.442
0.268,-2.672,0.354,-15.991,-1.038,28.442
0.295,-2.722,0.309,-23.437,-3.235,39.307
0.286,-2.726,0.239,-31.433,-2.014,43.03
0.213,-2.588,0.26,-39.734,5.92,40.955
0.181,-2.438,0.217,-43.091,14.771,37.17
0.198,-2.262,0.212,-41.26,27.039,30.762
0.192,-2.142,0.24,-33.325,41.504,22.522
0.185,-2.048,0.25,-21.729,53.406,12.817
0.196,-1.951,0.272,-9.399,65.43,2.014
0.204,-1.826,0.298,2.258,76.599,-8.179
0.186,-1.714,0.284,12.085,85.938,-17.151
0.148,-1.627,0.241,17.517,96.436,-25.146
0.095,-1.512,0.194,15.93,110.107,-32.288
0.061,-1.361,0.142,7.69,125.732,-37.292
0.07,-1.172,0.096,-4.089,142.761,-40.955
0.083,-0.92,0.049,-17.151,160.278,-43.091
0.07,-0.642,-0.001,-28.442,177.246,-40.833
0.113,-0.451,0.002,-36.621,191.528,-34.363
0.202,-0.262,-0.017,-43.091,196.777,-29.785
0.252,-0.082,-0.044,-46.448,194.824,-26.306
0.256,0.113,-0.022,-46.448,187.195,-22.217
0.288,0.232,0.007,-42.175,171.021,-15.747
0.316,0.266,0.044,-33.142,146.973,-9.644
0.296,0.277,0.073,-22.217,116.882,-5.371
0.281,0.246,0.104,-10.01,82.581,-1.831
0.295,0.163,0.113,1.648,46.631,0.671
0.301,0.077,0.117,12.878,11.841,-1.099
0.293,0.036,0.136,23.315,-19.897,-7.385
0.275,0.016,0.135,33.142,-50.659,-16.785
0.251,-0.002,0.115,41.809,-77.576,-25.452
0.224,-0.017,0.088,48.401,-98.083,-31.799
0.174,-0.019,0.054,52.368,-111.084,-36.255
0.114,-0.007,0.035,54.138,-114.624,-38.696
0.068,0.007,0.025,54.626,-110.107,-39.063
0.042,0.012,0.021,53.04,-98.999,-37.231
0.036,0.006,0.019,50.293,-83.679,-33.691
0.04,-0.012,0.021,46.143,-66.162,-28.931
0.048,-0.035,0.027,40.527,-48.218,-23.01
0.063,-0.055,0.027,33.447,-32.043,-16.235
0.084,-0.077,0.03,26.123,-17.944,-9.094
0.107,-0.095,0.03,19.287,-7.446,-2.38
0.122,-0.113,0.028,13.489,-0.977,3.967
0.13,-0.129,0.026,8.85,2.441,9.766
0.134,-0.135,0.021,5.676,3.479,13.672
0.139,-0.14,0.012,3.967,2.197,16.296
0.144,-0.143,0.008,3.54,0.244,17.273
0.147,-0.141,0.01,4.089,-2.869,17.395
0.157,-0.14,0.018,5.676,-7.141,16.418
0.164,-0.148,0.027,7.568,-11.841,15.259
0.17,-0.171,0.038,9.521,-17.761,14.099
0.173,-0.213,0.046,11.353,-24.048,13.245
0.176,-0.29,0.06,13.794,-30.762,12.451
0.174,-0.38,0.084,16.296,-37.109,11.841
0.171,-0.435,0.107,18.25,-43.701,11.23
0.174,-0.502,0.138,20.63,-50.537,10.986
0.188,-0.586,0.17,23.315,-58.411,11.536
0.2,-0.65,0.2,26.55,-67.017,11.23
0.183,-0.712,0.245,29.602,-75.684,9.094
0.132,-0.841,0.266,32.715,-82.764,6.531
0.079,-1.048,0.239,35.645,-87.463,3.601
0.034,-1.308,0.196,34.973,-86.731,0.427
-0.045,-1.533,0.162,27.283,-78.491,-2.563
-0.13,-1.705,0.139,12.817,-60.852,-4.7
-0.081,-1.808,0.029,-2.808,-40.344,-5.127
0.082,-1.832,-0.071,-15.808,-26.855,0.0
0.144,-1.852,-0.076,-26.123,-16.174,11.108
0.073,-1.959,-0.036,-29.785,-7.08,26.062
-0.044,-2.159,-0.031,-26.978,1.343,41.26
-0.154,-2.4,-0.06,-25.696,13.611,53.65
-0.165,-2.472,-0.062,-29.358,28.748,63.232
-0.07,-2.323,-0.008,-33.997,41.87,65.613
0.058,-2.222,0.049,-31.433,49.072,60.974
0.19,-2.221,0.091,-21.423,50.781,48.34
0.289,-2.18,0.123,-9.46,49.866,27.649
0.351,-2.018,0.158,1.16,48.462,3.906
0.433,-1.807,0.189,10.437,45.288,-21.179
0.515,-1.613,0.21,20.447,38.696,-44.128
0.545,-1.471,0.222,30.518,29.236,-59.326
0.522,-1.366,0.224,39.368,18.25,-65.369
0.481,-1.288,0.222,46.692,6.775,-63.965
0.438,-1.22,0.214,50.415,-3.113,-57.739
0.39,-1.159,0.219,49.255,-9.644,-47.546
0.257,-1.07,0.267,43.701,-11.475,-35.645
0.065,-1.072,0.225,33.142,-5.92,-26.978
0.046,-1.077,0.162,16.785,6.47,-19.47
0.09,-0.981,0.122,0.0,20.447,-13.977
0.133,-0.932,0.123,-11.597,32.043,-11.353
0.202,-0.975,0.166,-19.348,36.56,-11.536
0.24,-0.953,0.094,-24.353,31.433,-15.808
0.203,-0.864,0.041,-26.794,29.48,-18.066
0.303,-0.892,0.133,-26.367,32.654,-20.02
0.286,-0.748,0.104,-26.184,22.827,-26.794
0.296,-0.714,0.094,-22.827,11.902,-24.231
0.26,-0.653,0.062,-20.691,0.122,-21.729
0.176,-0.673,0.007,-17.395,-5.432,-16.479
0.123,-0.686,0.005,-15.869,-4.517,-14.282
0.143,-0.692,0.008,-14.954,-3.113,-13.611
0.166,-0.663,-0.012,-12.512,-3.357,-14.099
0.167,-0.649,-0.001,-8.118,-1.648,-12.817
0.175,-0.679,0.025,-1.709,-0.366,-11.047
0.193,-0.7,0.044,5.371,-0.366,-10.559
0.22,-0.712,0.072,11.108,-1.587,-9.888
0.245,-0.724,0.091,15.93,-5.432,-8.728
0.259,-0.75,0.099,19.714,-11.047,-5.798
0.261,-0.786,0.102,22.461,-17.944,-1.953
0.251,-0.825,0.108,24.475,-24.719,2.93
0.225,-0.857,0.115,24.902,-31.128,8.24
0.201,-0.909,0.121,23.621,-36.255,14.526
0.181,-0.983,0.124,21.301,-40.039,20.63
0.157,-1.041,0.124,17.456,-41.687,25.391
0.135,-1.095,0.125,12.756,-42.175,28.809
0.123,-1.149,0.129,7.263,-41.748,30.945
0.109,-1.19,0.128,1.282,-40.649,31.616
0.099,-1.224,0.128,-4.883,-39.124,31.25
0.094,-1.249,0.127,-11.292,-37.415,29.724
0.447,-2.074,0.309,53.772,17.09,6.958
0.409,-2.236,0.292,46.387,12.939,19.714
0.398,-2.372,0.274,34.302,9.399,32.104
0.383,-2.458,0.25,21.423,6.165,40.527
0.351,-2.526,0.225,10.132,4.211,45.349
0.313,-2.564,0.198,1.953,3.845,47.913
0.276,-2.556,0.168,-4.883,6.165,48.035
0.263,-2.468,0.121,-10.437,11.658,47.058
0.267,-2.306,0.108,-13.794,19.775,46.143
0.249,-2.152,0.092,-13.184,28.198,45.227
0.215,-2.047,0.057,-9.277,36.926,44.556
0.241,-1.96,0.031,-4.395,49.744,41.748
0.286,-1.892,0.024,-0.183,66.65,32.837
0.286,-1.848,0.02,2.136,85.205,18.738
0.29,-1.845,0.008,1.587,103.271,0.977
0.361,-1.811,0.006,-1.465,119.141,-19.531
0.48,-1.672,0.032,-6.226,130.737,-40.955
0.602,-1.475,0.056,-9.216,133.484,-59.143
0.698,-1.267,0.071,-7.629,125.854,-70.74
0.771,-1.032,0.093,-2.563,109.802,-74.158
0.79,-0.775,0.13,3.845,86.914,-73.059
0.743,-0.509,0.153,11.108,60.486,-67.444
0.631,-0.27,0.13,17.7,34.851,-56.885
0.476,-0.075,0.083,22.705,14.771,-42.847
0.316,0.06,0.025,25.513,3.113,-27.283
0.167,0.131,-0.03,25.391,0.793,-11.292
0.039,0.14,-0.069,21.79,6.775,3.235
-0.05,0.094,-0.089,14.832,19.226,15.198
-0.094,0.017,-0.084,6.409,35.156,22.827
-0.106,-0.048,-0.06,-2.625,51.208,25.696
-0.083,-0.089,-0.021,-11.841,64.392,24.353
-0.032,-0.115,0.02,-20.264,71.96,19.592
0.036,-0.13,0.051,-27.405,72.571,11.047
0.112,-0.129,0.063,-33.203,67.078,-0.061
0.167,-0.118,0.065,-37.048,55.481,-11.414
0.2,-0.108,0.061,-38.452,39.185,-21.79
0.22,-0.092,0.052,-38.513,19.531,-29.114
0.235,-0.069,0.036,-37.292,-1.465,-33.081
0.262,-0.032,0.013,-34.546,-21.606,-33.813
0.277,0.004,-0.007,-30.823,-40.283,-31.921
0.264,0.021,-0.026,-26.184,-56.641,-28.259
0.229,0.004,-0.05,-21.24,-69.702,-23.56
0.196,-0.037,-0.072,-17.212,-78.247,-18.677
0.176,-0.086,-0.09,-14.282,-82.214,-14.404
0.162,-0.117,-0.103,-12.939,-82.764,-11.047
0.154,-0.133,-0.106,-12.878,-80.505,-8.545
0.149,-0.141,-0.105,-12.878,-76.965,-6.042
0.141,-0.15,-0.099,-12.878,-72.815,-3.723
0.135,-0.168,-0.094,-13.184,-68.054,-1.404
0.139,-0.186,-0.089,-13.55,-63.232,1.465
0.15,-0.194,-0.078,-13.55,-58.96,4.333
0.162,-0.207,-0.064,-13.062,-55.176,7.507
0.172,-0.234,-0.048,-11.414,-52.429,10.62
0.179,-0.273,-0.027,-8.667,-50.72,13.611
0.178,-0.316,-0.01,-5.249,-49.683,16.479
0.175,-0.371,0.006,-1.16,-48.95,19.592
0.182,-0.435,0.026,3.479,-48.645,22.949
0.194,-0.496,0.049,7.751,-48.584,26.306
0.206,-0.552,0.068,12.085,-49.255,29.175
0.237,-0.603,0.086,16.418,-50.659,31.677
0.285,-0.686,0.1,21.729,-53.223,33.264
0.317,-0.83,0.102,27.222,-57.678,35.278
0.323,-1.004,0.09,32.471,-63.477,37.842
0.316,-1.16,0.07,34.851,-67.993,41.748
0.334,-1.264,0.073,34.058,-70.679,46.875
0.375,-1.329,0.105,33.936,-73.242,54.993
0.401,-1.417,0.145,38.513,-78.186,66.711
0.389,-1.56,0.168,46.753,-85.144,79.895
0.339,-1.743,0.169,53.101,-91.736,92.712
0.254,-1.919,0.174,54.443,-94.482,104.98
0.133,-2.11,0.15,51.941,-92.651,113.892
-0.019,-2.304,0.105,41.748,-83.679,118.774
-0.126,-2.433,0.083,24.048,-64.88,118.896
-0.153,-2.451,0.077,3.54,-38.94,111.084
-0.108,-2.421,0.067,-16.052,-9.766,93.262
0.022,-2.333,0.081,-30.701,19.958,66.956
0.239,-2.133,0.147,-36.926,46.875,32.715
0.461,-1.864,0.258,-33.386,65.796,-3.906
0.62,-1.651,0.374,-20.081,72.327,-37.048
0.746,-1.535,0.457,-1.709,64.392,-61.951
0.833,-1.476,0.505,14.526,46.814,-75.623
0.839,-1.421,0.515,25.208,23.437,-78.674
0.768,-1.355,0.483,28.931,-2.563,-73.792
0.687,-1.29,0.412,26.184,-25.757,-65.369
0.633,-1.211,0.323,17.639,-42.297,-55.481
0.558,-1.086,0.203,5.493,-49.561,-44.739
0.493,-1.028,0.226,-7.141,-45.715,-32.471
0.468,-1.018,0.153,-19.836,-42.847,-27.1
0.401,-0.841,0.129,-34.607,-39.429,-28.137
0.418,-0.847,0.153,-44.8,-32.532,-21.973
0.347,-0.813,0.087,-53.162,-28.32,-24.475
0.207,-0.671,0.094,-60.547,-16.174,-28.015
0.178,-0.652,0.092,-61.096,-5.005,-24.048
0.199,-0.649,0.077,-58.35,4.089,-23.315
0.195,-0.662,0.058,-52.979,13.245,-22.156
0.223,-0.604,0.089,-46.021,21.179,-23.499
0.235,-0.554,0.101,-36.56,23.987,-22.888
0.237,-0.52,0.122,-23.376,25.635,-19.47
0.259,-0.535,0.146,-9.583,24.963,-14.954
0.259,-0.56,0.154,4.7,20.996,-10.315
0.271,-0.595,0.169,17.639,15.991,-5.798
0.262,-0.627,0.163,28.809,9.033,-2.075
0.25,-0.68,0.175,37.781,2.991,1.953
0.242,-0.759,0.182,44.434,-3.357,4.883
0.239,-0.845,0.194,47.363,-8.789,6.653
0.234,-0.905,0.192,47.302,-15.015,6.47
0.219,-0.96,0.184,44.922,-20.63,6.409
0.201,-1.016,0.183,40.71,-25.024,7.69
0.191,-1.067,0.18,34.912,-28.625,9.46
0.188,-1.098,0.18,27.954,-31.494,10.681
0.184,-1.12,0.173,20.508,-34.363,11.597
0.178,-1.141,0.16,13.489,-36.499,11.658
0.171,-1.162,0.149,7.629,-37.292,10.62
0.164,-1.165,0.15,3.174,-37.109,8.179
0.162,-1.171,0.151,0.671,-36.316,5.127
0.171,-1.183,0.158,0.0,-35.278,2.014
0.173,-1.151,0.157,0.061,-33.752,-1.648
0.179,-1.103,0.159,0.488,-32.532,-3.967
0.194,-1.071,0.134,1.953,-31.738,-5.92
0.394,-1.999,0.322,41.626,-11.963,25.146
0.368,-2.091,0.314,36.804,-12.695,34.241
0.353,-2.181,0.297,29.724,-10.742,40.955
0.326,-2.273,0.269,21.24,-7.019,44.983
0.282,-2.364,0.241,12.146,-1.099,46.326
0.237,-2.439,0.213,2.441,7.263,45.471
0.207,-2.486,0.186,-8.057,17.517,42.664
0.202,-2.483,0.167,-18.86,28.442,36.926
0.231,-2.443,0.157,-28.931,39.734,28.076
0.283,-2.38,0.153,-36.438,50.293,15.564
0.339,-2.305,0.155,-40.833,58.777,0.061
0.391,-2.219,0.167,-41.687,64.514,-16.541
0.445,-2.111,0.185,-39.49,66.895,-33.386
0.503,-1.994,0.212,-33.63,66.04,-48.95
0.536,-1.862,0.241,-24.353,61.523,-61.34
0.524,-1.714,0.261,-14.832,53.467,-68.298
0.472,-1.573,0.252,-7.385,44.006,-69.641
0.383,-1.43,0.215,-3.052,36.011,-66.895
0.287,-1.274,0.168,-2.869,33.02,-60.364
0.199,-1.097,0.106,-6.653,35.706,-52.673
0.07,-0.646,-0.003,-18.921,60.059,-36.438
0.046,-0.23,-0.057,-24.475,102.417,-22.095
0.074,-0.071,-0.088,-25.513,123.718,-15.808
0.12,0.053,-0.106,-24.963,141.846,-10.071
0.172,0.14,-0.1,-22.949,154.419,-4.639
0.216,0.178,-0.077,-19.348,159.729,0.854
0.252,0.165,-0.047,-14.465,157.104,6.47
0.261,0.108,-0.019,-9.644,147.888,12.207
0.24,0.033,0.007,-5.737,132.996,17.883
0.214,-0.021,0.036,-4.089,115.662,22.156
0.199,-0.047,0.056,-4.211,96.741,24.78
0.184,-0.059,0.064,-3.784,76.965,24.963
0.151,-0.057,0.053,-2.075,57.739,22.705
0.172,-0.086,0.065,-0.427,40.222,18.982
0.155,-0.054,0.048,1.648,22.095,12.573
0.176,-0.066,0.053,4.822,5.249,6.897
0.202,-0.067,0.037,7.812,-11.23,-1.343
0.207,-0.055,0.021,10.254,-26.367,-9.399
0.203,-0.045,0.014,13.062,-39.978,-16.785
0.201,-0.058,0.005,15.808,-50.964,-21.484
0.202,-0.081,-0.002,18.494,-59.57,-24.292
0.197,-0.088,-0.005,20.142,-65.552,-25.269
0.19,-0.092,-0.005,21.179,-69.214,-23.926
0.182,-0.105,-0.005,21.118,-71.533,-20.325
0.171,-0.124,-0.01,20.508,-73.059,-14.832
0.161,-0.145,-0.012,18.555,-72.815,-7.812
0.148,-0.157,-0.009,15.808,-71.472,-0.671
0.135,-0.168,-0.003,12.939,-69.946,6.775
0.128,-0.187,0.006,10.681,-67.627,13.306
0.126,-0.205,0.024,9.155,-65.43,18.005
0.129,-0.217,0.044,8.484,-63.965,20.691
0.132,-0.232,0.059,8.423,-63.538,21.362
0.134,-0.262,0.074,8.911,-64.331,20.813
0.136,-0.306,0.093,9.949,-66.101,19.836
0.14,-0.374,0.115,11.475,-69.153,18.799
0.147,-0.449,0.136,12.573,-73.486,17.212
0.152,-0.5,0.148,12.695,-78.674,15.442
0.164,-0.542,0.166,12.207,-84.29,13.55
0.197,-0.605,0.184,12.268,-90.149,11.108
0.231,-0.702,0.195,13.245,-96.436,8.118
0.239,-0.827,0.193,15.198,-102.783,4.822
0.228,-0.992,0.178,17.09,-107.727,2.014
0.206,-1.171,0.145,16.113,-109.558,0.549
0.194,-1.325,0.118,10.925,-106.934,0.854
0.188,-1.456,0.107,5.432,-101.257,4.211
0.18,-1.55,0.097,0.916,-93.384,11.23
0.158,-1.585,0.101,-3.601,-83.13,21.606
0.135,-1.629,0.108,-6.348,-70.923,35.156
0.101,-1.755,0.113,-7.019,-57.251,51.575
0.012,-1.989,0.089,-6.897,-41.87,68.359
-0.105,-2.245,0.055,-12.207,-22.583,84.351
-0.142,-2.329,0.059,-25.024,0.793,97.046
-0.103,-2.237,0.077,-39.49,24.658,102.844
-0.034,-2.22,0.111,-45.166,46.204,99.426
0.079,-2.342,0.153,-38.33,64.819,84.778
0.244,-2.364,0.196,-25.94,79.346,59.387
0.432,-2.15,0.256,-16.602,89.905,27.466
0.597,-1.856,0.315,-9.155,94.788,-8.057
0.714,-1.668,0.333,-0.61,90.271,-43.213
0.757,-1.523,0.318,7.141,77.454,-68.97
0.749,-1.367,0.298,10.925,61.829,-80.688
0.704,-1.21,0.287,13.611,45.532,-81.665
0.657,-1.102,0.275,15.747,29.053,-75.317
0.613,-1.06,0.239,15.991,14.648,-63.66
0.568,-1.029,0.197,12.939,5.554,-49.072
0.506,-0.985,0.167,7.324,1.892,-35.278
0.445,-0.961,0.146,-0.183,1.587,-24.17
0.393,-0.956,0.135,-7.874,3.357,-17.029
0.354,-0.926,0.13,-14.709,6.226,-13.733
0.331,-0.871,0.127,-20.325,9.216,-13.245
0.32,-0.815,0.129,-23.132,11.292,-14.404
0.316,-0.767,0.128,-22.766,11.597,-16.479
0.317,-0.729,0.125,-20.081,10.803,-18.555
0.313,-0.687,0.116,-14.526,8.911,-21.118
0.313,-0.66,0.121,-7.507,6.409,-23.254
0.319,-0.656,0.11,0.427,3.357,-25.146
0.312,-0.64,0.119,8.179,0.488,-26.55
0.31,-0.625,0.121,15.686,-2.319,-25.818
0.289,-0.593,0.123,22.339,-5.127,-23.56
0.271,-0.593,0.121,27.71,-7.751,-18.86
0.259,-0.611,0.111,32.104,-9.338,-13.123
0.241,-0.627,0.112,34.241,-9.949,-7.568
0.222,-0.637,0.121,35.034,-10.437,-2.38
0.219,-0.683,0.135,34.546,-11.475,3.601
0.215,-0.73,0.144,32.715,-13.062,8.789
0.199,-0.759,0.152,29.419,-15.259,13.123
0.183,-0.801,0.157,25.574,-17.883,16.907
0.166,-0.86,0.156,21.851,-20.447,19.775
0.141,-0.921,0.152,18.494,-22.217,21.729
0.114,-0.97,0.141,14.587,-23.376,22.461
0.096,-1.0,0.129,9.827,-23.254,22.034
0.087,-1.033,0.117,5.31,-21.973,20.081
0.08,-1.087,0.107,1.587,-20.386,17.761
0.083,-1.153,0.107,-1.77,-18.799,14.893
0.094,-1.21,0.11,-2.991,-18.005,10.132
0.102,-1.238,0.111,-3.662,-17.151,4.395
0.113,-1.225,0.11,-3.601,-16.235,-1.892
0.134,-1.191,0.105,-2.869,-15.442,-7.446
0.159,-1.162,0.103,-1.404,-15.503,-13.428
0.462,-2.154,0.283,12.512,-15.869,4.333
0.455,-2.348,0.288,11.475,-12.024,8.606
0.428,-2.482,0.284,4.822,-5.432,16.113
0.409,-2.503,0.277,-7.019,3.418,25.391
0.414,-2.462,0.266,-19.104,14.221,34.668
0.415,-2.42,0.251,-28.564,26.184,43.091
0.404,-2.404,0.242,-34.79,38.879,48.523
0.406,-2.395,0.238,-38.269,51.331,49.5
0.432,-2.385,0.245,-38.513,62.134,45.654
0.48,-2.357,0.266,-35.95,69.519,38.818
0.531,-2.33,0.294,-30.945,73.12,29.48
0.584,-2.306,0.318,-24.109,72.144,18.066
0.633,-2.268,0.334,-17.578,67.017,5.188
0.686,-2.189,0.348,-11.658,58.777,-9.033
0.733,-2.084,0.353,-7.202,48.523,-24.475
0.748,-1.943,0.345,-5.981,36.987,-38.208
0.717,-1.762,0.33,-6.897,26.062,-47.729
0.64,-1.573,0.304,-9.827,16.602,-51.941
0.534,-1.385,0.252,-14.526,9.888,-51.941
0.425,-1.191,0.194,-21.545,8.24,-48.035
0.321,-0.99,0.136,-29.724,12.207,-41.016
0.233,-0.76,0.079,-38.94,21.912,-31.616
0.163,-0.517,0.032,-46.692,35.95,-20.325
0.133,-0.297,-0.006,-52.002,52.307,-7.446
0.142,-0.107,-0.033,-55.054,67.871,5.554
0.158,0.045,-0.055,-55.298,79.956,18.433
0.166,0.159,-0.066,-52.49,87.646,30.701
0.163,0.226,-0.068,-47.546,89.844,42.603
0.146,0.246,-0.068,-41.443,86.975,52.673
0.112,0.226,-0.059,-35.339,79.712,60.852
0.074,0.17,-0.043,-29.968,68.909,66.345
0.032,0.097,-0.027,-25.146,55.725,67.688
0.005,0.037,0.008,-20.996,42.236,64.148
0.002,0.028,0.021,-17.517,28.137,54.932
0.03,0.006,0.052,-12.573,14.038,42.603
0.043,0.01,0.052,-5.859,-0.488,27.954
0.04,0.009,0.057,1.709,-14.648,13.367
0.044,0.018,0.052,9.399,-28.381,1.282
0.048,0.019,0.032,16.724,-40.1,-6.592
0.043,0.014,0.015,23.132,-47.729,-12.146
0.041,0.016,0.008,28.198,-51.086,-15.625
0.043,0.007,0.001,31.372,-51.086,-17.09
0.045,-0.003,-0.004,33.142,-48.34,-17.395
0.046,-0.03,-0.01,33.752,-43.396,-16.541
0.051,-0.065,-0.009,32.471,-36.377,-14.343
0.058,-0.099,-0.009,30.334,-28.748,-11.536
0.061,-0.131,-0.01,26.367,-20.935,-8.667
0.07,-0.156,-0.008,20.935,-13.672,-5.31
0.086,-0.177,0.0,15.259,-7.812,-2.38
0.108,-0.189,0.006,9.705,-3.906,0.488
0.127,-0.203,0.018,4.517,-2.075,3.723
0.145,-0.227,0.031,0.183,-3.601,6.653
0.157,-0.268,0.045,-2.869,-7.69,8.545
0.16,-0.322,0.056,-4.395,-14.099,9.521
0.162,-0.37,0.076,-4.517,-22.278,9.888
0.163,-0.405,0.096,-3.54,-31.738,9.399
0.168,-0.422,0.114,-1.77,-42.542,8.24
0.166,-0.446,0.123,1.465,-54.016,6.897
0.161,-0.489,0.133,5.493,-65.552,5.676
0.156,-0.553,0.144,9.766,-76.233,4.944
0.153,-0.641,0.148,14.099,-85.999,4.15
0.153,-0.733,0.155,17.761,-93.689,3.235
0.143,-0.824,0.16,20.935,-99.731,1.221
0.115,-0.935,0.154,24.475,-103.577,-1.16
0.09,-1.041,0.143,26.672,-104.187,-2.747
0.076,-1.089,0.119,25.879,-101.379,-4.639
0.076,-1.076,0.116,23.621,-93.75,-8.057
0.075,-1.062,0.152,24.17,-81.787,-10.498
0.067,-1.108,0.212,30.151,-69.092,-8.728
0.082,-1.189,0.285,38.757,-59.326,-3.845
0.112,-1.296,0.336,45.105,-56.519,1.404
0.057,-1.515,0.325,48.096,-60.059,7.141
-0.085,-1.793,0.266,44.006,-65.125,12.451
-0.287,-2.041,0.183,30.579,-64.514,15.869
-0.473,-2.24,0.055,7.751,-54.81,16.479
-0.46,-2.328,-0.038,-21.24,-33.813,10.01
-0.24,-2.314,-0.068,-43.518,-1.648,-10.681
0.073,-2.226,-0.064,-49.561,36.804,-44.25
0.336,-2.015,-0.005,-41.382,75.134,-79.407
0.488,-1.78,0.087,-23.743,106.873,-108.215
0.589,-1.595,0.203,1.526,128.601,-125.122
0.656,-1.463,0.325,30.518,139.893,-127.625
0.712,-1.384,0.374,57.434,137.878,-119.507
0.702,-1.323,0.387,77.698,125.732,-104.797
0.669,-1.302,0.342,88.562,109.68,-84.778
0.574,-1.231,0.251,89.172,93.506,-63.171
0.543,-1.17,0.308,82.764,81.421,-41.321
0.557,-1.207,0.199,71.045,63.171,-22.034
0.532,-1.118,0.239,55.054,50.476,-9.827
0.479,-1.073,0.199,39.856,36.499,1.77
0.371,-1.043,0.16,26.611,25.33,12.207
0.274,-1.099,0.168,13.977,21.301,24.414
0.226,-1.144,0.214,2.563,18.738,32.532
0.183,-1.102,0.227,-7.812,13.672,36.377
0.216,-1.16,0.221,-16.113,9.827,39.673
0.163,-1.132,0.14,-24.292,7.935,33.63
0.111,-1.073,0.148,-31.677,14.465,25.452
0.115,-1.005,0.109,-37.842,19.775,17.761
0.149,-0.956,0.07,-41.504,25.94,9.338
0.176,-0.911,0.067,-43.335,33.508,0.671
0.208,-0.844,0.092,-43.152,38.452,-7.69
0.259,-0.77,0.106,-39.856,38.513,-14.954
0.305,-0.704,0.112,-33.508,35.339,-19.836
0.33,-0.649,0.125,-24.475,30.396,-22.034
0.342,-0.633,0.151,-13.794,23.743,-21.79
0.35,-0.665,0.173,-2.563,14.771,-19.104
0.351,-0.719,0.192,8.057,4.395,-15.137
0.329,-0.775,0.204,17.212,-5.249,-9.949
0.282,-0.829,0.211,23.987,-12.939,-4.211
0.235,-0.875,0.214,28.809,-18.433,0.977
0.199,-0.926,0.207,31.799,-21.179,5.432
0.169,-0.978,0.195,32.715,-20.63,7.812
0.154,-1.026,0.192,30.64,-17.212,8.545
0.164,-1.084,0.19,26.855,-12.573,7.69
0.181,-1.134,0.184,20.996,-8.85,4.944
0.195,-1.178,0.182,14.16,-6.531,1.16
0.214,-1.238,0.202,8.118,-5.554,-2.014
0.229,-1.288,0.184,2.258,-6.714,-4.272
0.238,-1.311,0.209,-3.784,-9.827,-6.287
0.208,-2.099,0.281,16.541,-69.275,35.095
0.15,-2.231,0.274,7.629,-67.322,43.152
0.109,-2.324,0.26,-4.395,-61.584,50.781
0.087,-2.376,0.249,-15.32,-52.856,56.091
0.08,-2.41,0.247,-23.926,-40.955,58.533
0.089,-2.423,0.249,-29.48,-27.588,57.495
0.119,-2.394,0.249,-32.837,-13.245,52.002
0.178,-2.32,0.252,-33.875,0.61,41.626
0.253,-2.226,0.253,-31.555,13.245,27.405
0.329,-2.149,0.255,-26.123,23.743,10.986
0.395,-2.08,0.268,-19.47,31.494,-5.371
0.461,-1.997,0.288,-12.756,36.072,-20.752
0.506,-1.906,0.304,-5.92,37.048,-32.715
0.502,-1.831,0.31,1.099,34.851,-38.574
0.484,-1.731,0.324,6.531,31.494,-39.001
0.47,-1.676,0.341,11.414,27.832,-35.217
0.46,-1.651,0.345,15.442,23.682,-29.358
0.436,-1.583,0.344,17.456,19.897,-23.804
0.397,-1.481,0.33,16.785,17.7,-19.287
0.355,-1.368,0.305,13.794,17.273,-16.052
0.314,-1.233,0.271,9.583,19.287,-15.076
0.275,-1.062,0.237,4.028,24.963,-15.686
0.244,-0.863,0.204,-2.991,33.569,-16.541
0.214,-0.639,0.161,-9.521,44.861,-16.541
0.188,-0.421,0.11,-14.771,57.434,-14.038
0.161,-0.217,0.063,-18.616,71.655,-8.789
0.138,-0.062,0.03,-20.264,86.182,-1.221
0.13,0.027,0.0,-20.874,100.464,8.484
0.127,0.079,-0.019,-20.996,113.831,19.531
0.135,0.089,-0.027,-21.729,124.39,31.616
0.175,0.093,-0.011,-23.865,130.066,43.64
0.191,0.129,-0.001,-26.611,130.066,54.626
0.234,0.062,0.049,-28.564,124.207,65.43
0.238,0.055,0.094,-31.128,109.741,70.984
0.268,-0.012,0.136,-32.837,88.623,75.989
0.335,-0.091,0.143,-34.729,61.157,74.585
0.34,-0.129,0.127,-37.781,31.494,65.491
0.288,-0.109,0.1,-41.199,3.54,53.04
0.223,-0.073,0.067,-41.809,-21.606,42.175
0.159,-0.032,0.043,-38.635,-41.382,33.447
0.134,-0.039,0.024,-33.142,-55.969,26.917
0.129,-0.029,0.004,-28.015,-65.796,19.958
0.101,0.002,-0.008,-23.376,-70.923,13.367
0.049,0.025,-0.019,-19.165,-71.716,9.338
0.024,0.006,-0.04,-14.832,-69.336,7.935
0.022,-0.019,-0.078,-12.024,-63.782,5.737
-0.002,-0.023,-0.1,-10.315,-55.542,2.075
-0.023,-0.01,-0.102,-9.705,-45.044,-0.549
-0.012,-0.02,-0.097,-8.972,-34.79,-0.671
0.01,-0.047,-0.083,-7.69,-25.94,0.305
0.026,-0.073,-0.066,-6.165,-18.982,0.671
0.036,-0.086,-0.043,-4.883,-14.709,1.282
0.046,-0.102,-0.026,-2.93,-13.611,2.075
0.057,-0.13,-0.008,0.61,-15.015,2.014
0.054,-0.172,0.006,5.005,-18.738,1.099
0.044,-0.225,0.035,9.644,-24.536,-0.671
0.031,-0.284,0.07,15.015,-31.982,-3.296
0.02,-0.351,0.107,19.775,-40.405,-7.202
0.016,-0.419,0.138,23.987,-49.744,-12.39
0.021,-0.517,0.172,27.588,-59.814,-17.578
0.054,-0.626,0.209,29.846,-70.129,-21.423
0.108,-0.726,0.254,30.457,-81.36,-23.621
0.152,-0.85,0.31,28.87,-93.689,-21.729
0.177,-0.974,0.352,23.071,-107.91,-13.245
0.184,-1.06,0.372,14.526,-123.413,-1.099
0.186,-1.125,0.378,3.052,-135.559,13.123
0.193,-1.237,0.406,-12.634,-138.977,29.663
0.177,-1.384,0.399,-31.86,-136.78,46.448
0.128,-1.487,0.348,-53.467,-129.761,62.683
0.096,-1.503,0.283,-71.838,-116.882,76.904
0.041,-1.534,0.246,-81.909,-96.069,86.121
-0.023,-1.582,0.246,-80.933,-68.848,88.562
-0.045,-1.619,0.265,-70.679,-40.527,81.909
-0.046,-1.737,0.259,-58.228,-14.099,69.519
-0.001,-1.826,0.266,-50.903,7.751,56.274
0.183,-1.765,0.345,-44.922,21.606,42.175
0.424,-1.708,0.458,-33.081,25.391,27.771
0.568,-1.703,0.547,-13.245,18.921,14.587
0.626,-1.738,0.62,8.301,5.31,4.883
0.671,-1.728,0.66,26.733,-11.475,-0.122
0.659,-1.612,0.677,39.978,-28.015,0.305
0.585,-1.515,0.661,51.086,-40.649,7.996
0.491,-1.504,0.612,60.669,-47.546,18.738
0.398,-1.519,0.574,65.735,-46.814,26.123
0.311,-1.501,0.543,64.758,-38.391,26.733
0.245,-1.453,0.501,57.922,-23.01,20.142
0.213,-1.405,0.451,47.668,-2.197,8.24
0.197,-1.345,0.395,37.109,20.935,-8.118
0.213,-1.269,0.373,27.222,44.922,-27.161
0.253,-1.197,0.347,18.86,65.613,-46.326
0.305,-1.134,0.343,13.062,80.872,-65.063
0.354,-1.049,0.323,9.094,90.332,-81.787
0.381,-0.939,0.31,7.324,95.093,-94.177
0.414,-0.848,0.339,9.705,95.398,-100.83
0.437,-0.789,0.338,16.052,90.393,-103.21
0.469,-0.753,0.283,24.78,82.642,-103.882
0.479,-0.701,0.306,33.508,74.951,-104.126
0.465,-0.635,0.314,42.542,64.941,-101.379
0.462,-0.61,0.304,52.856,53.284,-95.093
0.455,-0.629,0.289,62.5,42.053,-87.097
0.439,-0.652,0.285,70.618,31.738,-78.674
0.417,-0.657,0.286,76.538,22.156,-70.19
0.399,-0.649,0.292,80.688,12.573,-61.279
0.38,-0.652,0.292,83.435,2.625,-51.88
0.362,-0.672,0.284,84.717,-6.775,-42.603
0.342,-0.702,0.278,83.923,-15.259,-34.485
0.319,-0.745,0.273,81.421,-23.499,-27.588
0.288,-0.797,0.266,77.82,-31.006,-22.278
0.253,-0.848,0.255,73.12,-37.17,-17.578
0.217,-0.9,0.243,66.406,-41.931,-13.428
0.184,-0.958,0.227,58.411,-45.227,-9.399
0.155,-1.024,0.211,49.133,-46.875,-5.615
0.122,-1.092,0.186,38.818,-46.936,-2.93
0.107,-1.183,0.169,27.344,-44.861,-0.305
0.088,-1.217,0.162,15.808,-41.992,0.854
0.079,-1.259,0.149,5.066,-37.842,2.625
0.076,-1.28,0.144,-4.089,-33.447,2.869
0.073,-1.292,0.137,-11.23,-28.809,2.38
0.076,-1.278,0.131,-16.113,-23.926,0.977
0.388,-2.231,0.289,3.967,-36.804,-7.629
0.326,-2.493,0.256,-0.061,-44.983,-6.958
0.245,-2.687,0.212,-8.85,-47.241,-5.005
0.19,-2.789,0.177,-21.79,-41.931,-2.686
0.172,-2.791,0.151,-35.217,-30.64,-0.488
0.185,-2.705,0.148,-45.105,-15.259,0.0
0.217,-2.59,0.161,-50.72,1.526,-1.404
0.255,-2.482,0.169,-51.697,18.25,-5.188
0.283,-2.375,0.18,-49.072,33.936,-10.742
0.306,-2.289,0.194,-42.725,47.852,-17.09
0.348,-2.232,0.206,-32.837,59.326,-23.743
0.402,-2.17,0.225,-20.935,66.711,-30.518
0.442,-2.084,0.248,-8.423,70.251,-37.292
0.469,-1.993,0.267,3.906,70.496,-43.579
0.497,-1.893,0.286,14.771,68.665,-48.706
0.508,-1.766,0.292,22.156,65.369,-52.307
0.488,-1.616,0.281,26.184,61.279,-54.26
0.456,-1.47,0.26,27.161,57.678,-53.955
0.43,-1.318,0.236,25.33,55.969,-52.979
0.411,-1.134,0.21,20.996,56.458,-51.331
0.397,-0.94,0.179,15.808,59.448,-49.316
0.375,-0.75,0.139,10.254,64.392,-46.814
0.342,-0.539,0.088,3.723,71.838,-43.335
0.324,-0.292,0.056,-3.235,81.604,-38.269
0.325,-0.07,0.03,-7.629,92.102,-30.884
0.326,0.096,0.014,-9.094,101.135,-19.958
0.343,0.178,-0.006,-8.362,107.178,-5.493
0.325,0.244,-0.048,-7.202,110.291,10.193
0.29,0.265,-0.06,-5.127,113.892,28.198
0.265,0.242,-0.037,-1.404,114.563,45.959
0.231,0.132,0.017,2.563,111.023,61.279
0.268,0.005,0.026,5.493,99.487,70.435
0.104,0.212,0.02,6.958,90.515,76.538
0.237,-0.101,0.088,10.986,86.914,83.74
0.187,0.078,0.129,10.01,67.139,69.641
0.161,0.084,0.211,15.198,45.166,70.435
0.161,0.012,0.208,19.653,17.334,65.735
0.197,-0.088,0.192,22.705,-7.629,57.251
0.128,-0.067,0.167,20.02,-31.494,42.114
0.054,0.01,0.169,16.907,-52.185,29.175
0.019,0.034,0.133,15.869,-70.129,20.569
0.01,0.016,0.105,15.32,-82.458,14.709
0.016,0.006,0.094,13.977,-89.783,8.728
0.0,0.016,0.066,12.573,-94.36,3.54
-0.007,0.0,0.058,11.169,-94.238,1.77
0.005,-0.032,0.042,10.315,-92.163,2.38
0.026,-0.085,0.034,10.132,-88.379,4.15
0.04,-0.113,0.035,9.888,-83.496,4.883
0.038,-0.112,0.047,8.911,-78.125,5.676
0.031,-0.134,0.053,8.24,-72.876,8.423
0.051,-0.19,0.064,6.958,-66.956,11.78
0.047,-0.214,0.059,4.7,-60.791,13.245
0.041,-0.266,0.075,2.014,-54.016,15.686
0.048,-0.312,0.08,-0.916,-47.729,17.456
0.047,-0.353,0.082,-3.479,-42.358,19.348
0.047,-0.402,0.093,-6.653,-36.621,21.545
0.057,-0.473,0.102,-9.766,-32.166,23.01
0.076,-0.538,0.119,-12.39,-28.87,24.17
0.124,-0.608,0.149,-13.977,-26.917,24.536
0.193,-0.69,0.181,-14.282,-28.564,23.254
0.268,-0.793,0.219,-12.573,-34.729,20.874
0.341,-0.928,0.255,-8.789,-45.166,17.578
0.41,-1.089,0.268,-5.676,-60.608,14.832
0.46,-1.22,0.255,-6.042,-79.346,12.695
0.475,-1.274,0.234,-10.742,-98.022,11.719
0.47,-1.294,0.21,-17.761,-114.319,14.587
0.445,-1.317,0.192,-24.658,-127.319,23.01
0.394,-1.402,0.176,-30.64,-135.681,35.156
0.318,-1.571,0.153,-36.316,-138.184,49.072
0.244,-1.781,0.143,-43.274,-133.728,62.622
0.184,-1.942,0.151,-50.232,-123.352,72.021
0.101,-2.073,0.152,-55.115,-108.582,76.538
0.031,-2.187,0.154,-59.021,-90.576,77.759
0.046,-2.183,0.179,-62.988,-70.068,74.768
0.166,-2.056,0.25,-62.195,-49.988,63.599
0.354,-1.905,0.331,-50.598,-32.654,43.884
0.521,-1.724,0.4,-28.503,-19.836,18.433
0.587,-1.543,0.474,-0.916,-12.207,-7.507
0.597,-1.527,0.501,28.198,-11.292,-33.081
0.603,-1.535,0.484,50.049,-13.489,-56.885
0.568,-1.392,0.469,62.256,-13.55,-72.327
0.525,-1.31,0.445,70.801,-13.245,-74.524
0.479,-1.255,0.41,76.111,-14.526,-72.754
0.441,-1.237,0.339,77.515,-13.611,-67.383
0.427,-1.245,0.308,75.134,-8.24,-61.218
0.399,-1.216,0.274,67.871,-1.892,-58.044
0.373,-1.16,0.258,58.35,5.676,-56.03
0.364,-1.102,0.246,47.424,12.878,-53.65
0.353,-1.043,0.235,36.316,18.982,-50.842
0.331,-0.987,0.216,25.513,23.926,-47.058
0.308,-0.947,0.192,16.479,28.076,-42.786
0.285,-0.908,0.18,9.033,33.02,-38.086
0.269,-0.87,0.166,4.089,37.17,-33.508
0.257,-0.83,0.15,2.258,40.833,-29.114
0.243,-0.796,0.138,3.113,44.861,-24.78
0.238,-0.787,0.137,6.287,48.645,-20.691
0.235,-0.783,0.135,11.047,52.49,-17.09
0.236,-0.776,0.139,17.151,55.359,-13.977
0.238,-0.766,0.151,24.17,56.824,-11.108
0.242,-0.76,0.165,31.86,56.763,-8.362
0.245,-0.759,0.173,39.124,54.932,-5.737
0.258,-0.762,0.194,45.532,51.575,-3.54
0.266,-0.785,0.202,50.781,46.326,-2.014
0.266,-0.838,0.184,53.284,40.1,-1.526
0.189,-0.815,0.148,52.551,36.865,-2.93
0.171,-0.797,0.276,50.598,36.377,-1.282
0.279,-0.966,0.209,48.34,25.391,1.343
0.327,-0.966,0.278,41.992,13.611,-1.648
0.186,-0.971,0.21,33.936,1.648,1.282
0.17,-1.048,0.193,28.198,-5.188,4.761
0.133,-1.064,0.126,21.423,-7.874,4.028
0.125,-1.057,0.22,14.893,-5.981,2.38
0.138,-1.11,0.178,8.911,-8.484,0.305
0.169,-1.084,0.178,2.197,-10.437,-3.479
0.16,-1.038,0.171,-4.395,-11.658,-5.005
0.175,-1.047,0.146,-8.728,-14.16,-5.493
0.162,-1.033,0.117,-12.573,-15.991,-6.531
0.141,-0.983,0.11,-16.052,-16.235,-6.775
0.159,-1.008,0.086,-18.433,-16.479,-5.249
0.144,-2.377,0.332,-17.517,-27.344,49.622
0.148,-2.472,0.303,-22.339,-20.508,49.683
0.191,-2.488,0.287,-28.442,-9.399,46.265
0.252,-2.496,0.283,-33.569,4.333,39.368
0.295,-2.497,0.287,-37.415,19.409,30.151
0.337,-2.476,0.286,-40.833,34.485,18.311
0.421,-2.422,0.272,-44.067,48.157,4.578
0.53,-2.339,0.26,-45.959,59.021,-9.033
0.618,-2.236,0.263,-45.166,66.711,-21.667
0.651,-2.097,0.28,-41.809,70.435,-29.297
0.634,-1.953,0.295,-35.461,70.862,-31.128
0.599,-1.864,0.305,-26.794,69.824,-28.87
0.579,-1.827,0.301,-18.738,69.336,-25.757
0.582,-1.783,0.288,-13.733,70.313,-23.926
0.578,-1.697,0.265,-11.963,72.815,-23.865
0.541,-1.581,0.232,-12.939,75.745,-25.391
0.486,-1.443,0.189,-16.602,80.017,-27.1
0.442,-1.277,0.157,-21.301,85.999,-28.687
0.426,-1.089,0.135,-25.146,93.323,-29.541
0.42,-0.892,0.116,-26.55,101.013,-29.175
0.423,-0.735,0.11,-25.146,108.582,-26.855
0.449,-0.646,0.119,-21.606,114.014,-24.902
0.465,-0.543,0.098,-18.921,115.967,-26.55
0.459,-0.36,0.092,-17.151,117.126,-29.297
0.463,-0.161,0.111,-14.404,116.821,-28.32
0.5,-0.03,0.134,-10.193,111.45,-23.254
0.506,0.049,0.103,-5.859,99.426,-16.479
0.449,0.108,0.064,-3.174,86.548,-7.324
0.388,0.099,0.046,-1.709,73.303,4.395
0.349,0.065,0.002,-1.709,59.509,16.296
0.25,0.088,-0.03,-2.502,47.974,30.579
0.24,-0.059,0.029,-1.953,39.673,46.509
0.192,-0.079,0.032,-3.906,27.405,51.88
0.155,-0.107,0.041,-5.432,17.212,56.763
0.126,-0.101,0.066,-7.935,9.094,56.396
0.111,-0.097,0.072,-9.949,0.793,54.81
0.094,-0.084,0.068,-11.108,-7.874,52.307
0.087,-0.086,0.069,-11.536,-17.09,49.561
0.085,-0.062,0.065,-11.902,-27.649,46.021
0.079,-0.038,0.052,-12.329,-37.415,43.884
0.073,-0.036,0.037,-11.658,-45.959,42.908
0.062,-0.044,0.026,-10.986,-52.49,42.114
0.044,-0.047,0.019,-10.315,-57.068,40.771
0.024,-0.042,0.012,-9.888,-59.082,39.368
0.008,-0.043,0.001,-9.644,-59.265,38.574
-0.007,-0.053,-0.008,-10.681,-56.702,38.391
-0.018,-0.069,-0.016,-11.902,-52.002,38.025
-0.026,-0.085,-0.02,-13.672,-46.082,37.598
-0.031,-0.096,-0.025,-16.052,-38.818,36.865
-0.031,-0.11,-0.029,-18.677,-31.372,36.133
-0.026,-0.115,-0.031,-20.874,-23.926,35.339
-0.013,-0.125,-0.029,-22.583,-16.479,34.851
0.003,-0.157,-0.019,-23.193,-10.132,33.875
0.027,-0.201,-0.004,-22.766,-5.615,32.837
0.056,-0.247,0.014,-21.057,-2.869,31.494
0.092,-0.288,0.036,-18.433,-2.441,30.029
0.135,-0.335,0.058,-15.259,-4.822,28.137
0.181,-0.413,0.085,-11.597,-9.277,25.635
0.23,-0.521,0.115,-6.348,-16.785,22.644
0.288,-0.625,0.151,-0.854,-27.039,18.86
0.352,-0.707,0.188,4.944,-39.124,13.611
0.418,-0.785,0.22,12.695,-53.345,7.324
0.463,-0.874,0.244,22.217,-68.359,1.343
0.462,-0.93,0.266,33.142,-82.153,-1.648
0.42,-0.959,0.266,45.105,-92.896,-0.854
0.36,-0.987,0.251,54.138,-97.9,4.028
0.308,-1.036,0.25,59.937,-95.825,12.146
0.258,-1.101,0.251,63.599,-87.952,22.888
0.2,-1.173,0.245,64.514,-74.646,34.668
0.137,-1.287,0.234,63.721,-56.03,45.776
0.085,-1.463,0.225,62.195,-34.058,55.725
0.049,-1.654,0.23,59.753,-10.132,63.416
0.049,-1.78,0.248,53.162,13.0,67.139
0.131,-1.813,0.26,42.847,32.776,65.979
0.256,-1.842,0.266,33.447,48.95,56.152
0.437,-1.963,0.269,29.968,63.965,33.813
0.685,-2.175,0.286,32.166,78.247,-1.831
0.899,-2.366,0.307,35.095,90.698,-46.021
0.954,-2.344,0.331,34.546,98.083,-89.478
0.956,-2.163,0.349,32.959,99.121,-124.817
0.979,-1.968,0.356,34.058,97.168,-148.376
0.949,-1.742,0.349,36.804,92.468,-158.325
0.891,-1.548,0.351,39.124,85.388,-153.076
0.857,-1.385,0.319,37.781,75.867,-139.282
0.809,-1.136,0.316,31.982,65.613,-121.46
0.764,-0.978,0.305,26.672,52.917,-93.323
0.727,-0.893,0.251,21.545,38.452,-63.477
0.658,-0.858,0.195,16.235,26.672,-37.231
0.587,-0.886,0.195,10.315,18.433,-14.221
0.515,-0.857,0.171,3.784,10.254,2.808
0.453,-0.821,0.154,-2.441,4.517,18.494
0.391,-0.785,0.166,-7.629,1.709,31.311
0.342,-0.764,0.171,-12.756,-0.977,41.077
0.338,-0.774,0.183,-17.212,-3.418,46.997
0.341,-0.812,0.151,-22.217,-5.737,46.143
0.212,-0.647,0.114,-27.527,-4.7,39.429
0.159,-0.621,0.099,-29.297,1.038,39.673
0.243,-0.73,0.109,-29.846,8.667,34.729
0.182,-0.615,0.096,-31.921,15.503,21.729
0.25,-0.687,0.128,-31.921,21.667,14.954
0.282,-0.651,0.092,-32.288,22.949,2.441
0.302,-0.617,0.123,-30.945,25.208,-7.324
0.351,-0.626,0.118,-27.222,22.339,-15.259
0.377,-0.617,0.119,-21.484,18.738,-23.865
0.369,-0.589,0.119,-14.893,14.587,-29.175
0.389,-0.606,0.125,-7.324,10.01,-30.701
0.398,-0.617,0.121,0.305,6.165,-30.212
0.389,-0.644,0.122,6.836,3.601,-25.513
0.391,-0.7,0.133,12.451,1.77,-17.517
0.382,-0.753,0.136,16.235,-0.061,-8.667
0.351,-0.81,0.136,18.677,-1.343,-0.732
0.329,-0.879,0.137,19.958,-1.221,6.165
0.307,-0.946,0.132,20.02,0.0,10.498
0.286,-1.008,0.127,18.921,2.93,12.268
0.275,-1.079,0.122,17.456,7.263,11.78
0.282,-1.168,0.13,15.625,12.756,10.437
0.299,-1.255,0.143,13.733,18.433,7.202
0.323,-1.307,0.154,11.78,23.254,2.93
0.359,-1.317,0.168,10.864,26.672,-2.136
1.844,-0.025,0.917,-2.869,16.357,10.132
1.888,0.0,0.977,1.587,3.54,21.118
1.868,0.031,1.015,7.08,-12.268,30.701
1.813,0.05,1.039,12.695,-29.114,34.546
1.748,0.048,1.056,17.334,-43.396,31.006
1.694,0.042,1.067,18.555,-51.758,22.339
1.643,0.044,1.055,14.893,-54.321,11.414
1.59,0.071,1.005,7.629,-51.575,-0.732
1.531,0.123,0.93,-1.709,-42.847,-13.245
1.462,0.181,0.837,-10.437,-28.442,-25.452
1.433,0.209,0.757,-16.235,-9.705,-35.889
1.454,0.205,0.693,-19.104,10.376,-45.105
1.498,0.182,0.649,-19.043,28.32,-54.504
1.494,0.129,0.609,-17.09,39.734,-61.523
1.394,0.081,0.571,-13.916,43.823,-64.392
1.238,0.03,0.532,-9.216,43.396,-62.195
1.036,-0.044,0.489,-1.77,40.588,-58.167
0.86,-0.147,0.448,5.798,37.964,-55.603
0.761,-0.25,0.423,12.329,35.339,-56.763
0.697,-0.311,0.405,15.442,29.663,-61.462
0.63,-0.337,0.387,15.808,20.081,-68.054
0.566,-0.333,0.369,14.282,8.24,-73.792
0.5,-0.304,0.344,12.817,-2.319,-77.332
0.443,-0.258,0.306,11.108,-9.949,-77.148
0.393,-0.204,0.266,10.315,-14.526,-74.524
0.376,-0.143,0.238,10.193,-15.93,-69.946
0.352,-0.087,0.211,9.705,-16.602,-62.5
0.319,-0.027,0.183,8.362,-17.517,-52.917
0.279,0.027,0.155,6.592,-18.921,-44.067
0.236,0.068,0.126,4.456,-20.874,-37.354
0.194,0.087,0.099,3.296,-23.804,-34.058
0.15,0.087,0.076,2.38,-27.405,-33.63
0.109,0.094,0.055,1.648,-30.334,-34.668
0.086,0.103,0.035,1.465,-31.86,-36.804
0.101,0.111,0.025,2.563,-32.104,-40.1
0.139,0.101,0.024,4.456,-31.86,-43.274
0.191,0.088,0.034,6.226,-31.555,-44.556
0.241,0.081,0.042,6.592,-31.128,-43.945
0.293,0.07,0.055,5.981,-30.334,-41.504
0.333,0.063,0.062,4.761,-28.625,-38.208
0.366,0.047,0.066,2.808,-24.902,-34.668
0.401,0.032,0.072,0.671,-19.348,-30.762
0.436,0.027,0.083,-2.136,-13.428,-26.367
0.455,0.024,0.088,-4.822,-7.996,-21.729
0.465,0.016,0.089,-6.775,-3.479,-16.663
0.475,0.006,0.092,-8.118,0.366,-11.902
0.478,-0.002,0.092,-9.216,2.747,-6.958
0.472,-0.003,0.093,-9.949,3.723,-3.052
0.465,-0.008,0.091,-9.644,3.54,0.305
0.461,-0.013,0.093,-9.338,2.38,4.456
0.457,-0.024,0.096,-8.85,0.854,8.85
0.452,-0.035,0.099,-8.24,-0.793,13.123
0.441,-0.042,0.103,-8.179,-1.099,17.7
0.442,-0.045,0.112,-8.118,-0.61,21.606
0.452,-0.056,0.129,-7.324,0.793,24.597
0.469,-0.066,0.156,-5.798,2.136,26.917
0.511,-0.072,0.19,-4.211,2.991,28.748
0.563,-0.085,0.231,-2.258,3.052,29.48
0.61,-0.088,0.28,-0.793,2.625,29.541
0.678,-0.085,0.345,0.366,2.93,29.175
0.766,-0.113,0.41,1.648,4.944,28.32
0.878,-0.18,0.478,2.686,7.935,27.161
0.991,-0.255,0.542,2.686,10.498,25.818
1.063,-0.311,0.595,1.831,12.024,24.231
1.094,-0.326,0.626,0.854,13.611,23.315
1.114,-0.327,0.65,1.282,18.005,23.499
1.128,-0.34,0.679,3.113,25.879,25.269
1.166,-0.334,0.705,4.944,34.973,30.334
1.215,-0.313,0.736,6.042,41.992,39.307
1.251,-0.317,0.763,8.057,42.908,48.889
1.251,-0.356,0.786,10.925,36.987,55.786
1.196,-0.362,0.812,14.526,25.757,59.448
1.129,-0.289,0.815,18.555,11.353,61.768
1.132,-0.215,0.803,21.057,-6.104,62.378
1.076,-0.197,0.764,22.644,-25.818,53.894
1.001,-0.246,0.743,24.17,-40.039,34.18
1.071,-0.284,0.804,25.085,-41.992,7.263
1.287,-0.387,0.871,26.184,-35.767,-21.729
1.365,-0.482,0.917,25.146,-24.902,-45.959
1.448,-0.51,0.944,18.005,-9.155,-53.772
1.455,-0.503,0.907,8.545,8.728,-47.485
1.398,-0.426,0.864,-1.648,26.611,-35.034
1.307,-0.354,0.789,-8.911,39.673,-22.522
1.221,-0.283,0.721,-11.169,46.997,-16.846
1.185,-0.223,0.672,-9.766,48.035,-19.287
1.181,-0.197,0.635,-6.836,40.894,-26.184
1.202,-0.174,0.621,-4.7,27.527,-35.828
1.221,-0.144,0.614,-3.357,10.498,-43.823
1.224,-0.104,0.608,-2.258,-7.629,-46.204
1.202,-0.075,0.599,0.122,-24.475,-43.091
1.152,-0.053,0.583,3.845,-38.513,-36.255
1.079,-0.036,0.56,7.446,-47.18,-26.367
0.99,-0.031,0.53,11.047,-49.438,-16.724
0.895,-0.038,0.503,14.099,-45.105,-10.437
0.829,-0.048,0.488,15.625,-35.278,-8.179
0.78,-0.057,0.472,14.893,-22.095,-8.789
0.746,-0.062,0.455,12.634,-8.545,-10.559
0.733,-0.061,0.447,8.789,3.845,-11.963
0.732,-0.047,0.439,4.944,13.916,-12.39
0.743,-0.042,0.43,1.892,20.996,-11.841
0.735,-0.042,0.417,0.732,23.682,-10.376
0.725,-0.036,0.407,0.793,22.827,-7.507
0.716,-0.034,0.398,1.77,19.775,-3.845
0.709,-0.046,0.391,3.052,14.099,-0.488
0.706,-0.057,0.387,4.639,6.836,3.357
0.706,-0.072,0.386,5.798,0.122,7.324
0.694,-0.093,0.384,6.47,-5.127,11.536
0.687,-0.111,0.386,6.897,-8.484,15.808
0.689,-0.13,0.398,7.202,-9.277,19.348
0.692,-0.138,0.409,7.263,-8.789,21.973
0.701,-0.146,0.424,7.568,-7.263,23.254
0.718,-0.154,0.439,7.385,-5.005,23.499
0.745,-0.172,0.447,7.385,-2.869,23.193
0.777,-0.191,0.458,7.019,-1.099,22.034
0.8,-0.206,0.464,6.775,-0.427,19.592
0.817,-0.223,0.466,6.042,-0.793,16.357
0.827,-0.226,0.473,5.859,-1.831,12.756
0.832,-0.222,0.478,5.554,-3.54,9.094
0.828,-0.22,0.483,6.042,-5.737,4.456
1.696,-0.275,0.969,14.099,13.367,26.733
1.785,-0.317,1.046,18.921,9.399,36.926
1.845,-0.391,1.119,20.203,6.287,48.767
1.882,-0.485,1.192,18.066,2.808,58.899
1.868,-0.527,1.23,13.428,-2.93,64.087
1.786,-0.511,1.224,7.141,-9.766,63.538
1.675,-0.473,1.198,1.648,-16.052,57.251
1.583,-0.459,1.174,-3.174,-18.127,46.265
1.555,-0.459,1.153,-7.019,-13.855,31.555
1.581,-0.472,1.128,-10.498,-5.188,15.259
1.668,-0.46,1.106,-15.869,5.249,0.305
1.766,-0.391,1.083,-23.804,14.465,-12.329
1.874,-0.28,1.062,-30.945,20.02,-22.888
2.073,-0.212,1.019,-34.851,19.348,-29.846
1.981,-0.172,0.864,-37.415,11.719,-37.781
1.744,0.039,0.807,-41.687,9.338,-45.105
1.815,-0.048,0.7,-37.17,12.878,-44.983
1.742,-0.038,0.682,-28.015,18.921,-51.27
1.773,-0.091,0.601,-19.226,17.395,-57.495
1.476,-0.106,0.526,-10.376,8.606,-61.89
1.206,-0.107,0.434,-1.343,1.587,-61.035
0.979,-0.187,0.344,10.132,-0.671,-57.251
0.729,-0.232,0.271,18.677,2.258,-56.946
0.503,-0.266,0.196,23.193,8.789,-58.105
0.369,-0.269,0.161,24.963,20.142,-60.303
0.279,-0.26,0.136,24.78,34.058,-63.66
0.269,-0.241,0.122,22.644,46.204,-65.125
0.269,-0.171,0.12,18.127,52.795,-64.453
0.268,-0.094,0.11,13.55,52.551,-61.584
0.273,-0.026,0.094,10.742,46.448,-57.312
0.25,0.026,0.062,9.155,36.56,-52.856
0.221,0.075,0.056,8.545,24.78,-47.974
0.202,0.074,0.037,9.033,12.085,-41.626
0.174,0.065,0.021,9.338,0.61,-36.926
0.133,0.062,0.023,7.812,-9.094,-34.058
0.117,0.046,0.02,6.104,-18.005,-31.799
0.115,0.033,0.013,3.845,-25.513,-30.823
0.114,0.029,0.004,1.16,-31.128,-29.968
0.117,0.029,-0.007,-1.526,-34.729,-27.893
0.128,0.042,-0.021,-3.723,-35.4,-24.719
0.137,0.05,-0.033,-4.883,-33.02,-21.362
0.154,0.047,-0.038,-4.333,-28.32,-19.287
0.181,0.039,-0.036,-2.136,-22.156,-18.799
0.212,0.026,-0.025,0.244,-14.709,-19.043
0.246,0.017,-0.011,2.441,-7.568,-18.982
0.27,0.016,0.006,4.089,-1.526,-17.456
0.291,0.001,0.02,5.188,4.089,-14.404
0.308,-0.018,0.035,6.104,9.155,-10.986
0.312,-0.03,0.047,6.165,12.939,-7.935
0.312,-0.047,0.051,4.7,15.869,-4.822
0.315,-0.053,0.054,2.441,18.127,-2.075
0.325,-0.043,0.054,-0.244,19.287,0.854
0.327,-0.031,0.047,-2.686,19.226,4.395
0.313,-0.027,0.037,-3.906,17.822,8.301
0.298,-0.028,0.027,-4.272,16.113,12.39
0.288,-0.033,0.02,-3.906,14.16,15.869
0.279,-0.045,0.019,-3.235,12.39,18.005
0.276,-0.053,0.024,-2.808,10.925,19.104
0.284,-0.07,0.028,-2.808,9.277,19.836
0.318,-0.092,0.038,-3.357,6.775,20.02
0.361,-0.107,0.057,-4.028,3.906,19.592
0.425,-0.135,0.088,-4.517,0.183,18.372
0.503,-0.176,0.13,-4.15,-4.395,17.273
0.599,-0.209,0.184,-3.662,-10.437,16.113
0.697,-0.25,0.239,-2.93,-18.188,15.381
0.792,-0.273,0.295,-2.991,-26.55,16.663
0.873,-0.277,0.355,-3.784,-32.715,21.545
0.925,-0.298,0.407,-4.211,-35.645,30.518
0.948,-0.324,0.451,-4.15,-35.156,42.603
0.943,-0.358,0.485,-3.601,-31.128,53.711
0.929,-0.389,0.521,-3.235,-23.743,60.913
0.925,-0.436,0.559,-3.418,-13.428,64.514
0.947,-0.443,0.619,-4.944,-2.563,66.895
0.984,-0.445,0.688,-6.592,7.019,70.801
1.002,-0.51,0.733,-8.057,12.939,75.195
0.974,-0.6,0.741,-11.292,14.099,76.66
0.918,-0.632,0.74,-15.259,11.597,73.12
0.889,-0.506,0.747,-19.409,6.775,64.819
0.959,-0.367,0.757,-22.217,-0.732,53.162
1.093,-0.313,0.755,-22.156,-11.963,36.133
1.142,-0.334,0.749,-19.653,-23.987,13.245
1.28,-0.405,0.777,-18.738,-30.945,-4.944
1.468,-0.469,0.811,-18.738,-33.813,-18.738
1.824,-0.443,0.909,-17.151,-33.508,-31.372
1.946,-0.449,0.887,-11.108,-35.034,-41.443
1.816,-0.351,0.875,-5.127,-32.776,-42.175
1.626,-0.287,0.798,0.61,-22.156,-25.94
1.391,-0.272,0.692,7.629,-2.136,-5.798
1.239,-0.208,0.689,15.564,24.78,6.409
1.118,-0.187,0.617,24.719,46.936,10.681
1.052,-0.198,0.599,30.945,59.937,10.742
0.999,-0.209,0.58,32.227,62.317,9.033
0.975,-0.221,0.563,29.846,56.458,4.272
0.92,-0.209,0.551,24.902,45.288,-4.517
0.895,-0.181,0.544,17.761,32.41,-11.963
0.931,-0.164,0.542,10.376,19.531,-15.015
0.966,-0.144,0.53,4.395,7.202,-15.869
0.955,-0.118,0.505,0.061,-3.052,-15.808
0.906,-0.087,0.471,-2.747,-8.972,-14.771
0.885,-0.071,0.448,-3.113,-10.315,-12.939
0.912,-0.076,0.427,-2.38,-8.362,-10.376
0.934,-0.069,0.415,-1.709,-4.639,-9.399
0.917,-0.063,0.399,-1.038,-0.244,-9.888
0.919,-0.069,0.387,-0.183,7.019,-11.047
0.932,-0.075,0.38,0.0,15.381,-12.634
0.942,-0.073,0.382,-0.427,23.743,-14.587
0.946,-0.076,0.379,-0.305,30.518,-16.541
0.95,-0.083,0.375,0.122,35.461,-17.944
0.966,-0.086,0.383,1.221,37.781,-18.005
1.045,-0.103,0.416,1.77,33.447,-17.029
1.093,-0.116,0.436,3.174,25.513,-15.198
1.171,-0.129,0.461,5.554,14.526,-11.292
1.211,-0.138,0.47,8.667,1.282,-6.836
1.188,-0.146,0.465,11.475,-11.78,-1.831
1.138,-0.153,0.451,14.343,-21.851,5.005
1.077,-0.167,0.438,16.113,-27.954,13.245
1.007,-0.193,0.422,17.761,-30.273,19.592
0.937,-0.211,0.406,19.104,-28.625,22.827
0.883,-0.231,0.397,19.226,-23.621,23.926
1.775,-0.344,0.614,2.686,7.874,37.354
1.818,-0.434,0.664,11.658,-13.977,47.607
1.829,-0.533,0.71,18.982,-27.771,54.077
1.795,-0.637,0.754,23.254,-32.288,56.274
1.784,-0.705,0.797,23.437,-29.236,57.983
1.781,-0.742,0.826,19.348,-23.621,60.059
1.76,-0.745,0.845,12.634,-18.799,58.96
1.721,-0.711,0.853,4.395,-14.771,54.688
1.685,-0.685,0.854,-3.052,-10.742,46.936
1.678,-0.663,0.853,-9.094,-6.042,34.912
1.711,-0.655,0.847,-14.771,-1.404,20.142
1.782,-0.634,0.831,-22.095,2.502,5.493
1.851,-0.58,0.804,-30.579,4.578,-5.737
1.917,-0.507,0.771,-38.879,4.944,-13.916
1.97,-0.432,0.74,-44.189,3.235,-19.775
1.973,-0.377,0.698,-45.776,-0.61,-22.827
1.949,-0.353,0.659,-43.823,-5.676,-23.743
1.933,-0.362,0.636,-39.001,-12.146,-24.719
1.92,-0.36,0.631,-32.166,-21.606,-26.123
1.879,-0.338,0.636,-23.804,-36.987,-26.062
1.729,-0.326,0.619,-12.878,-58.899,-23.56
1.484,-0.335,0.572,-1.038,-82.397,-19.226
1.188,-0.343,0.51,10.01,-100.281,-15.564
0.881,-0.354,0.436,18.86,-107.91,-15.198
0.615,-0.373,0.363,24.597,-104.004,-19.409
0.418,-0.391,0.302,25.94,-88.867,-28.076
0.276,-0.391,0.246,23.071,-65.308,-40.283
0.189,-0.352,0.197,16.479,-35.706,-53.772
0.153,-0.292,0.16,8.057,-3.54,-64.636
0.162,-0.226,0.124,-0.977,28.259,-70.129
0.212,-0.138,0.098,-10.193,57.495,-70.374
0.278,-0.025,0.087,-18.372,80.322,-66.223
0.332,0.064,0.069,-24.048,93.811,-58.167
0.371,0.132,0.045,-26.855,98.022,-48.218
0.362,0.169,0.022,-27.893,94.116,-37.72
0.316,0.184,0.007,-27.405,85.144,-28.442
0.276,0.167,-0.01,-25.635,73.792,-20.874
0.22,0.153,-0.017,-24.109,61.89,-16.357
0.164,0.143,-0.023,-22.278,49.744,-13.245
0.126,0.129,-0.041,-19.653,38.269,-10.986
0.098,0.117,-0.051,-16.479,28.87,-10.437
0.078,0.106,-0.064,-13.245,22.034,-11.047
0.07,0.097,-0.067,-10.62,17.151,-10.986
0.084,0.087,-0.065,-8.423,14.404,-9.766
0.109,0.078,-0.057,-6.531,13.184,-7.629
0.131,0.066,-0.044,-5.188,11.963,-5.615
0.165,0.015,-0.018,-2.869,9.399,-3.418
0.189,-0.011,-0.002,-2.686,8.972,-2.93
0.213,-0.04,0.009,-2.93,8.667,-2.38
0.235,-0.067,0.02,-3.601,8.728,-1.343
0.252,-0.081,0.026,-5.005,8.606,0.183
0.267,-0.088,0.028,-6.165,8.667,1.526
0.286,-0.09,0.034,-6.836,8.85,3.235
0.311,-0.089,0.035,-7.08,8.606,5.127
0.329,-0.084,0.038,-5.92,7.507,6.897
0.345,-0.08,0.045,-3.967,5.493,8.728
0.353,-0.08,0.055,-1.709,2.747,10.742
0.359,-0.094,0.066,0.977,0.0,12.329
0.38,-0.119,0.075,4.7,-2.014,13.611
0.416,-0.139,0.087,7.263,-3.967,14.526
0.456,-0.151,0.101,8.667,-5.798,15.198
0.505,-0.156,0.126,9.338,-8.24,17.09
0.573,-0.159,0.151,10.254,-10.315,18.738
0.648,-0.18,0.186,11.841,-12.573,19.287
0.722,-0.223,0.225,14.587,-15.137,19.348
0.795,-0.268,0.26,17.822,-16.907,18.555
0.85,-0.316,0.291,21.423,-18.25,17.09
0.875,-0.334,0.341,25.208,-18.494,17.883
0.886,-0.339,0.398,28.992,-18.005,26.428
0.923,-0.35,0.457,31.982,-17.822,45.166
0.959,-0.363,0.496,33.508,-17.212,68.97
0.957,-0.368,0.503,33.203,-14.404,89.05
0.973,-0.36,0.537,31.128,-7.324,101.624
1.026,-0.334,0.583,28.625,1.77,106.567
1.069,-0.339,0.623,25.757,9.46,106.018
1.138,-0.411,0.649,21.606,13.123,104.858
1.133,-0.402,0.648,15.381,10.925,103.088
1.12,-0.25,0.638,6.47,4.333,101.868
1.172,-0.135,0.665,-0.977,-4.395,97.839
1.153,-0.178,0.668,-3.601,-13.245,84.351
1.186,-0.346,0.659,-4.7,-19.043,60.486
1.461,-0.56,0.681,-8.545,-19.836,25.208
1.83,-0.689,0.68,-16.968,-20.081,-23.254
2.059,-0.657,0.679,-30.823,-21.912,-74.829
2.214,-0.559,0.672,-46.936,-22.522,-102.539
2.264,-0.382,0.666,-62.073,-20.508,-95.825
2.105,-0.166,0.612,-69.519,-18.433,-63.538
1.809,-0.053,0.487,-63.354,-11.841,-21.851
1.542,-0.009,0.398,-47.424,5.554,7.385
1.271,0.063,0.365,-26.733,28.809,17.639
1.07,0.062,0.347,-7.874,50.11,21.118
1.021,-0.051,0.329,6.531,64.941,21.179
1.078,-0.129,0.381,13.184,72.998,12.512
1.096,-0.153,0.403,13.916,67.383,-0.916
1.047,-0.142,0.397,9.705,48.279,-12.207
0.998,-0.106,0.375,3.662,23.621,-20.142
0.971,-0.08,0.34,-0.427,0.061,-25.024
0.961,-0.064,0.308,-1.709,-19.409,-27.771
0.929,-0.043,0.285,-1.343,-35.095,-28.931
0.889,-0.046,0.264,1.282,-45.959,-26.978
0.85,-0.061,0.243,5.127,-49.866,-22.949
0.81,-0.061,0.236,10.864,-45.41,-18.555
0.779,-0.064,0.238,17.944,-34.302,-14.648
0.797,-0.088,0.245,25.146,-19.104,-11.047
0.831,-0.096,0.282,31.006,-2.991,-9.338
0.871,-0.109,0.305,33.936,9.827,-7.751
0.9,-0.133,0.32,33.875,18.433,-4.395
0.916,-0.131,0.339,31.555,22.156,-0.122
0.909,-0.137,0.338,28.687,20.752,5.432
0.875,-0.155,0.32,26.978,15.564,10.559
0.826,-0.164,0.304,26.184,8.972,14.343
0.774,-0.165,0.285,26.855,2.563,17.517
0.737,-0.171,0.278,28.625,-2.014,20.142
0.732,-0.182,0.282,30.945,-5.188,21.423
0.739,-0.183,0.297,32.715,-7.751,22.156
0.752,-0.187,0.307,33.569,-10.132,23.254
0.776,-0.215,0.32,33.63,-12.756,24.475
0.806,-0.247,0.343,33.447,-15.259,23.743
0.828,-0.275,0.364,32.593,-17.883,20.996
1.579,-0.454,0.714,-7.019,16.174,29.785
1.72,-0.522,0.78,-8.667,20.508,40.283
1.851,-0.611,0.836,-10.254,23.437,50.049
1.911,-0.659,0.878,-11.23,22.156,54.932
1.91,-0.66,0.894,-13.306,17.212,56.641
1.879,-0.615,0.886,-15.747,11.108,55.603
1.831,-0.582,0.874,-18.677,5.92,49.866
1.785,-0.581,0.843,-20.813,3.784,39.673
1.762,-0.578,0.807,-24.109,6.714,27.405
1.773,-0.531,0.764,-29.724,14.038,15.686
1.789,-0.461,0.71,-36.926,24.719,6.531
1.832,-0.386,0.649,-43.396,38.391,0.488
1.912,-0.312,0.593,-48.035,53.162,-3.54
2.013,-0.249,0.549,-50.598,66.284,-6.592
2.092,-0.205,0.516,-51.575,73.792,-7.751
2.115,-0.185,0.49,-51.208,72.632,-5.493
2.086,-0.177,0.458,-49.438,63.721,-1.343
1.995,-0.173,0.421,-45.349,49.622,1.404
1.849,-0.167,0.392,-37.72,33.02,0.793
1.667,-0.162,0.371,-28.137,15.442,-2.136
1.448,-0.157,0.343,-17.944,-2.808,-6.165
1.192,-0.153,0.304,-7.568,-20.264,-11.475
0.942,-0.154,0.266,2.502,-34.485,-17.761
0.717,-0.175,0.218,12.085,-42.725,-25.452
0.501,-0.177,0.176,19.775,-43.64,-35.217
0.343,-0.162,0.166,25.574,-37.964,-44.678
0.298,-0.176,0.173,29.968,-28.564,-51.697
0.277,-0.187,0.174,31.433,-18.738,-56.03
0.255,-0.177,0.168,28.198,-11.047,-54.626
0.241,-0.118,0.167,20.935,-5.615,-46.814
0.234,-0.059,0.153,12.695,-1.404,-34.302
0.23,-0.013,0.121,5.981,0.671,-20.935
0.204,0.023,0.099,1.526,1.587,-11.353
0.174,0.034,0.085,-0.61,1.282,-6.042
0.149,0.029,0.068,-1.648,-0.366,-2.808
0.127,0.04,0.062,-2.075,-2.808,-0.427
0.111,0.047,0.054,-1.16,-6.47,2.136
0.101,0.051,0.044,0.366,-10.803,4.944
0.093,0.051,0.029,2.38,-15.32,7.263
0.083,0.041,0.014,4.456,-19.653,8.911
0.081,0.034,0.002,5.371,-23.071,10.193
0.078,0.031,-0.01,5.371,-25.085,10.62
0.065,0.026,-0.023,5.066,-25.513,10.437
0.058,0.026,-0.034,3.845,-23.254,9.827
0.062,0.041,-0.037,2.93,-18.372,8.301
0.077,0.049,-0.032,2.93,-11.658,7.141
0.114,0.039,-0.019,2.625,-4.578,7.324
0.165,0.018,-0.005,2.808,1.16,8.362
0.192,0.012,0.009,2.319,5.31,10.315
0.207,0.005,0.014,1.343,7.141,13.367
0.219,-0.006,0.019,0.671,7.507,16.602
0.224,-0.013,0.022,-0.549,6.653,19.104
0.221,-0.024,0.019,-2.014,4.944,21.057
0.214,-0.032,0.015,-3.235,3.357,23.437
0.21,-0.039,0.011,-4.15,2.197,25.33
0.208,-0.045,0.007,-4.7,1.953,25.818
0.22,-0.047,0.007,-4.456,2.869,25.269
0.248,-0.052,0.014,-4.517,4.517,25.208
0.297,-0.06,0.029,-4.7,5.798,25.452
0.35,-0.066,0.052,-5.005,5.737,25.879
0.407,-0.058,0.072,-5.005,4.15,26.55
0.469,-0.055,0.1,-4.7,1.77,27.405
0.552,-0.069,0.135,-3.113,-1.038,29.175
0.653,-0.088,0.185,-1.282,-4.333,30.762
0.762,-0.104,0.244,0.977,-8.484,32.104
0.861,-0.133,0.308,3.601,-13.977,34.241
0.928,-0.174,0.367,6.531,-19.165,38.269
1.005,-0.181,0.435,8.24,-21.362,45.654
1.063,-0.146,0.495,9.827,-21.423,55.237
1.135,-0.149,0.525,11.719,-19.348,65.491
1.204,-0.133,0.567,13.672,-16.479,72.021
1.241,-0.103,0.615,15.503,-12.451,73.242
1.357,-0.151,0.632,16.785,-8.118,72.815
1.377,-0.155,0.7,13.977,-3.845,71.35
1.407,-0.22,0.718,9.094,-2.747,74.585
1.384,-0.24,0.719,4.517,-2.625,79.712
1.315,-0.025,0.743,1.526,-2.869,81.604
1.324,0.116,0.727,4.028,-6.714,80.078
1.35,0.077,0.701,8.545,-10.986,68.054
1.339,-0.028,0.706,11.23,-12.39,44.312
1.55,-0.159,0.753,9.644,-10.498,16.357
1.782,-0.279,0.754,4.883,-10.498,-16.541
2.161,-0.24,0.854,-3.967,-14.343,-49.133
2.288,-0.349,0.749,-10.803,-24.902,-69.031
2.253,-0.178,0.781,-20.386,-30.945,-72.998
2.01,-0.076,0.662,-26.184,-30.212,-51.88
1.786,0.0,0.548,-23.132,-17.151,-22.888
1.556,0.071,0.491,-13.367,4.822,-1.709
1.363,0.058,0.405,1.282,26.855,10.559
1.237,0.071,0.397,13.062,47.058,13.0
1.151,0.057,0.392,21.606,57.861,11.108
1.096,0.024,0.393,24.78,58.35,7.629
1.096,0.042,0.422,22.522,49.133,3.296
1.058,0.036,0.42,18.555,31.372,-0.671
1.039,0.022,0.405,12.756,9.216,-3.235
0.972,0.047,0.361,2.136,-30.701,-10.986
0.926,0.041,0.327,0.488,-42.725,-14.526
0.889,0.034,0.299,-0.244,-46.448,-16.541
0.846,0.032,0.279,-0.244,-42.358,-17.517
0.798,0.031,0.262,0.977,-32.654,-17.334
0.766,0.025,0.255,3.113,-19.104,-16.235
0.762,0.007,0.258,5.371,-4.639,-15.625
0.773,0.0,0.271,6.958,7.69,-16.052
0.789,-0.01,0.283,7.751,17.09,-16.174
0.796,-0.029,0.295,8.057,22.095,-15.869
0.809,-0.044,0.307,7.629,24.109,-14.221
0.82,-0.065,0.311,6.653,22.705,-10.559
0.812,-0.068,0.311,5.31,18.555,-7.202
0.797,-0.062,0.307,4.395,13.0,-4.761
0.774,-0.061,0.294,4.089,7.202,-2.808
0.753,-0.065,0.285,4.211,2.075,-0.549
0.728,-0.077,0.275,4.333,-1.831,1.709
0.698,-0.08,0.27,4.089,-3.967,4.211
0.681,-0.083,0.268,4.028,-4.333,6.042
0.683,-0.086,0.267,3.906,-3.357,6.958
0.697,-0.083,0.271,3.296,-1.221,7.141
0.732,-0.084,0.284,3.54,0.183,6.47
0.775,-0.1,0.301,4.028,0.916,5.981
0.823,-0.114,0.323,4.456,0.244,5.31
1.347,-0.397,0.809,1.16,0.244,58.105
1.371,-0.368,0.81,1.404,4.211,52.429
1.454,-0.376,0.824,0.916,8.179,45.288
1.604,-0.371,0.862,-1.221,10.559,34.424
1.781,-0.36,0.897,-4.15,10.071,20.813
1.941,-0.335,0.925,-7.263,6.836,7.202
2.073,-0.286,0.939,-10.742,1.953,-2.93
2.15,-0.232,0.927,-14.099,-2.502,-7.812
2.161,-0.185,0.898,-17.09,-4.089,-8.545
2.134,-0.151,0.854,-19.409,0.061,-7.69
2.118,-0.134,0.807,-20.203,10.803,-8.85
2.136,-0.122,0.768,-19.958,25.513,-13.306
2.17,-0.103,0.746,-18.982,39.551,-19.714
2.123,-0.043,0.691,-13.977,51.697,-28.076
1.96,-0.004,0.64,-9.46,48.95,-27.222
1.718,0.006,0.574,-3.601,43.213,-23.621
1.446,-0.007,0.508,2.686,38.757,-20.691
1.185,-0.051,0.462,7.751,36.804,-21.423
0.956,-0.134,0.404,10.864,35.828,-26.306
0.754,-0.192,0.345,10.01,36.377,-34.363
0.59,-0.222,0.296,6.714,38.452,-44.128
0.476,-0.226,0.254,2.319,41.565,-52.856
0.403,-0.206,0.209,-1.892,45.166,-58.533
0.357,-0.141,0.181,-5.676,47.668,-59.631
0.335,-0.056,0.155,-7.751,48.096,-55.908
0.302,0.02,0.127,-7.324,45.471,-48.523
0.254,0.091,0.099,-4.639,39.978,-38.513
0.205,0.138,0.07,-0.61,33.325,-26.917
0.166,0.153,0.047,3.967,26.978,-15.32
0.12,0.139,0.034,8.24,21.362,-6.47
0.058,0.115,0.039,10.742,15.869,-0.488
0.014,0.074,0.046,10.437,10.254,5.066
-0.002,0.05,0.049,8.301,4.639,8.789
-0.011,0.046,0.055,5.066,-1.16,9.521
-0.018,0.056,0.054,2.441,-7.69,8.423
-0.01,0.064,0.047,0.916,-15.076,6.897
-0.003,0.066,0.028,0.916,-22.827,5.31
0.003,0.061,0.008,1.587,-29.236,4.333
0.02,0.061,-0.001,3.052,-33.63,3.174
0.032,0.057,-0.007,4.7,-36.072,2.197
0.047,0.05,-0.005,6.47,-35.889,1.953
0.074,0.035,0.001,7.935,-33.508,2.563
0.094,0.019,0.007,8.728,-29.724,3.662
0.103,0.0,0.009,8.24,-24.78,5.127
0.113,-0.019,0.013,6.714,-18.738,6.775
0.137,-0.037,0.021,4.333,-11.658,8.362
0.157,-0.046,0.026,1.77,-5.066,9.827
0.176,-0.054,0.034,-0.488,0.366,11.719
0.202,-0.062,0.044,-2.869,4.333,14.465
0.224,-0.061,0.052,-4.761,6.104,16.724
0.239,-0.055,0.053,-5.676,4.761,18.555
0.248,-0.054,0.05,-5.859,1.648,19.47
0.257,-0.054,0.051,-5.432,-2.38,19.897
0.27,-0.05,0.057,-4.883,-6.714,20.569
0.29,-0.051,0.063,-5.005,-11.475,21.667
0.301,-0.049,0.063,-4.578,-16.907,22.217
0.307,-0.045,0.066,-4.15,-21.912,22.156
0.316,-0.042,0.079,-3.174,-26.306,21.851
0.34,-0.044,0.11,-1.16,-29.541,21.362
0.406,-0.073,0.149,2.319,-33.02,19.897
0.482,-0.119,0.193,5.554,-36.987,16.418
0.547,-0.155,0.24,7.812,-42.175,12.146
0.599,-0.184,0.286,9.399,-47.363,9.644
0.632,-0.221,0.318,10.315,-51.086,11.841
0.652,-0.239,0.352,8.728,-50.659,17.944
0.675,-0.225,0.381,6.836,-45.044,25.635
0.734,-0.166,0.412,5.127,-33.569,32.471
0.816,-0.112,0.451,5.676,-18.372,35.828
0.967,-0.089,0.519,7.996,-2.93,36.438
1.161,-0.107,0.603,11.414,9.644,35.278
1.307,-0.155,0.668,15.32,17.029,32.959
1.394,-0.231,0.703,16.418,19.226,32.41
1.476,-0.229,0.731,12.939,19.165,34.363
1.505,-0.029,0.764,7.263,17.517,35.217
1.518,0.077,0.803,4.395,11.78,34.058
1.753,-0.137,0.853,6.226,3.052,24.536
2.044,-0.33,0.873,8.301,-6.47,-6.897
2.083,-0.417,0.875,5.127,-14.709,-52.734
2.095,-0.438,0.872,-7.019,-15.869,-81.726
2.228,-0.46,0.899,-24.231,-8.972,-84.412
2.259,-0.391,0.893,-38.94,0.61,-74.097
2.021,-0.276,0.825,-45.593,9.949,-59.692
1.781,-0.196,0.732,-43.884,22.522,-41.992
1.678,-0.173,0.689,-35.095,39.551,-29.602
1.68,-0.136,0.707,-23.254,54.688,-25.879
1.651,-0.208,0.639,-12.939,57.739,-24.78
1.581,-0.131,0.646,-10.742,51.941,-24.231
1.541,-0.183,0.586,-13.0,39.185,-18.86
1.473,-0.081,0.578,-17.517,24.292,-17.822
1.392,-0.062,0.506,-20.203,8.057,-17.7
1.233,-0.01,0.443,-22.4,-7.019,-17.822
1.064,0.03,0.367,-22.888,-17.395,-16.541
0.917,0.067,0.309,-20.874,-21.362,-15.747
0.806,0.064,0.265,-16.418,-18.494,-13.794
0.745,0.061,0.245,-11.597,-10.864,-10.498
0.708,0.041,0.228,-6.714,-1.892,-6.531
0.676,0.021,0.215,-2.563,7.019,-3.601
0.659,0.006,0.207,0.916,14.282,-2.991
0.669,-0.003,0.207,2.808,20.081,-3.296
0.695,-0.015,0.21,3.601,22.888,-4.211
0.714,-0.018,0.208,3.662,22.827,-4.883
0.719,-0.009,0.206,2.869,20.02,-3.601
0.716,-0.008,0.197,2.747,15.137,-0.549
0.732,-0.012,0.198,3.113,9.094,3.601
0.738,-0.014,0.201,4.395,2.075,7.141
0.741,-0.022,0.209,6.104,-4.578,10.62
0.739,-0.033,0.212,8.362,-10.376,14.099
0.736,-0.046,0.214,10.315,-14.832,17.212
0.728,-0.067,0.222,11.963,-16.785,20.386
0.724,-0.088,0.241,13.0,-16.174,23.499
0.73,-0.113,0.267,14.343,-14.282,25.818
0.729,-0.135,0.297,15.32,-12.329,27.039
0.734,-0.155,0.325,16.846,-10.254,26.733
0.75,-0.178,0.352,17.456,-7.996,25.208
0.777,-0.198,0.378,17.09,-6.104,22.034
0.813,-0.218,0.395,15.442,-5.432,17.761
0.87,-0.234,0.408,12.146,-5.676,12.451
0.936,-0.245,0.417,8.301,-7.446,5.676
1.005,-0.241,0.426,3.906,-9.827,-2.502
1.728,-0.354,0.723,2.991,22.461,29.541
1.769,-0.42,0.775,6.836,35.4,36.56
1.781,-0.466,0.815,12.024,42.48,42.908
1.781,-0.463,0.846,17.7,43.03,48.157
1.764,-0.443,0.864,22.522,36.072,52.551
1.769,-0.417,0.888,26.123,23.437,53.589
