aX,aY,aZ,gX,gY,gZ
0.709,1.291,0.692,-10.559,88.745,81.97
0.706,1.368,0.701,-6.653,87.097,90.698
0.706,1.434,0.657,-1.831,86.487,98.694
0.762,1.429,0.626,3.601,88.44,107.178
0.807,1.404,0.648,9.399,92.896,115.234
0.864,1.359,0.706,14.465,96.558,122.742
0.911,1.302,0.734,18.127,96.741,130.249
0.921,1.255,0.73,19.897,93.933,139.099
0.895,1.188,0.7,21.057,89.478,148.804
0.87,1.153,0.639,19.775,84.656,160.583
0.822,1.136,0.566,16.235,78.43,172.791
0.746,1.169,0.491,12.268,69.58,184.143
0.664,1.208,0.43,9.888,59.631,192.932
0.58,1.232,0.371,10.742,49.744,198.486
0.51,1.273,0.318,13.184,42.114,199.524
0.508,1.328,0.298,15.259,36.072,198.181
0.525,1.366,0.294,17.09,27.283,195.679
0.508,1.322,0.272,21.423,14.709,190.308
0.454,1.212,0.231,27.161,1.77,182.19
0.41,1.131,0.211,33.386,-6.897,174.133
0.432,1.056,0.242,39.429,-9.399,169.8
0.442,0.985,0.264,43.518,-9.644,173.462
0.428,0.911,0.279,45.898,-11.475,182.739
0.362,0.779,0.268,48.462,-13.0,190.43
0.263,0.62,0.242,52.673,-12.146,190.552
0.189,0.468,0.22,58.228,-9.155,181.274
0.236,0.349,0.247,64.27,-7.263,167.297
0.272,0.224,0.29,69.397,-16.479,153.381
0.23,0.12,0.308,74.768,-40.588,141.663
0.128,0.029,0.314,82.397,-71.777,131.592
0.033,-0.063,0.315,92.59,-100.769,123.352
-0.08,-0.174,0.335,102.478,-122.253,118.591
-0.235,-0.311,0.355,108.032,-131.775,120.422
-0.337,-0.451,0.386,108.276,-129.7,126.221
-0.395,-0.558,0.414,107.056,-118.591,126.709
-0.424,-0.62,0.434,106.323,-101.44,118.591
-0.416,-0.658,0.479,107.483,-81.36,105.774
-0.401,-0.674,0.535,112.488,-63.232,90.271
-0.395,-0.7,0.611,124.634,-45.715,73.181
-0.36,-0.738,0.723,142.395,-28.198,55.786
-0.279,-0.82,0.874,162.537,-13.245,39.795
-0.166,-0.903,1.046,177.979,-4.456,31.555
-0.071,-0.954,1.181,184.692,-6.775,30.579
-0.085,-1.019,1.282,183.228,-17.517,31.25
-0.114,-1.023,1.331,171.57,-30.273,32.41
-0.154,-0.999,1.341,154.175,-40.771,29.785
-0.224,-0.966,1.286,132.568,-44.922,19.226
-0.279,-0.915,1.217,107.666,-39.001,3.723
-0.315,-0.85,1.166,82.092,-23.132,-12.939
-0.315,-0.781,1.112,58.105,-0.244,-28.931
-0.263,-0.694,1.082,35.889,27.161,-40.405
-0.172,-0.62,1.08,16.724,54.993,-43.823
-0.069,-0.541,1.085,0.61,78.125,-36.621
0.02,-0.472,1.09,-12.39,93.14,-22.522
0.07,-0.414,1.102,-22.095,98.511,-7.751
0.092,-0.391,1.114,-28.015,95.276,4.272
0.098,-0.376,1.116,-32.41,86.426,13.123
0.077,-0.359,1.105,-35.889,73.364,17.7
0.025,-0.337,1.09,-40.161,59.265,20.386
-0.035,-0.305,1.067,-44.495,47.302,23.254
-0.093,-0.268,1.037,-48.95,39.917,26.611
-0.129,-0.234,1.021,-52.917,37.109,29.724
-0.157,-0.209,1.017,-56.641,37.659,32.288
-0.19,-0.188,1.0,-58.655,39.917,33.264
-0.214,-0.153,1.001,-60.181,44.678,32.715
-0.22,-0.123,1.009,-60.974,50.476,31.738
-0.219,-0.111,1.011,-59.57,54.81,30.884
-0.201,-0.06,1.026,-58.105,57.495,29.236
-0.167,-0.02,1.056,-56.702,56.458,27.283
-0.124,-0.012,1.064,-54.138,49.744,25.879
-0.108,-0.025,1.051,-51.453,39.307,24.78
-0.11,-0.035,1.055,-49.316,28.259,23.499
-0.144,-0.041,1.005,-46.875,18.433,22.583
-0.195,-0.011,0.987,-45.227,13.489,21.851
-0.218,0.006,0.973,-44.189,12.146,22.034
-0.22,0.015,0.954,-42.358,13.062,22.644
-0.215,0.022,0.944,-41.87,15.93,23.132
-0.225,0.017,0.929,-42.664,18.677,23.499
-0.255,0.034,0.898,-43.884,22.034,23.01
-0.258,0.071,0.908,-45.288,27.222,20.508
-0.242,0.102,0.929,-44.8,31.738,17.395
-0.245,0.11,0.891,-42.908,33.203,14.587
-0.239,0.136,0.9,-41.077,35.706,11.23
-0.221,0.163,0.911,-38.513,37.476,8.728
-0.215,0.193,0.901,-34.485,37.659,6.226
-0.158,0.264,0.976,-31.311,37.354,3.662
-0.11,0.246,0.991,-27.832,30.579,5.432
-0.097,0.207,0.998,-25.635,18.25,9.033
-0.092,0.203,1.01,-25.513,4.761,11.23
-0.124,0.185,0.996,-25.818,-9.338,11.169
-0.186,0.193,0.954,-26.611,-20.447,8.606
-0.248,0.247,0.918,-27.893,-25.208,4.211
-0.285,0.284,0.9,-28.381,-23.01,-0.366
-0.279,0.276,0.897,-27.649,-15.015,-4.395
-0.255,0.281,0.914,-25.513,-5.493,-8.362
-0.214,0.278,0.924,-23.865,1.892,-11.292
-0.172,0.234,0.909,-23.682,6.287,-11.841
-0.159,0.23,0.903,-25.757,9.399,-10.803
-0.157,0.231,0.88,-28.442,10.986,-10.01
-0.171,0.26,0.85,-30.945,13.428,-10.376
-0.184,0.295,0.838,-32.41,18.127,-12.085
-0.17,0.313,0.844,-31.616,23.926,-14.282
-0.127,0.316,0.866,-28.931,28.503,-16.846
-0.092,0.271,0.834,-25.574,29.541,-19.104
-0.099,0.234,0.761,-22.888,31.555,-21.79
-0.106,0.275,0.773,-20.813,39.429,-25.208
-0.002,0.325,0.972,-18.677,44.556,-26.55
0.106,0.313,0.888,-18.005,28.687,-21.79
0.126,0.304,0.838,-19.836,11.108,-16.235
0.072,0.336,0.841,-22.766,0.061,-15.015
0.011,0.379,0.848,-24.597,-10.254,-14.465
-0.029,0.362,0.826,-25.513,-20.691,-14.709
-0.048,0.351,0.805,-25.879,-26.855,-17.029
-0.075,0.365,0.801,-26.855,-28.992,-20.569
-0.086,0.337,0.778,-27.161,-28.381,-23.804
-0.109,0.336,0.766,-27.283,-23.926,-27.161
-0.102,0.36,0.793,-26.917,-17.273,-30.701
-0.1,0.372,0.796,-26.55,-12.268,-32.654
-0.113,0.405,0.782,-28.442,-9.277,-32.227
0.587,1.6,0.412,23.437,93.933,102.6
0.643,1.569,0.43,31.494,90.759,104.98
0.686,1.503,0.457,38.513,81.36,107.666
0.691,1.42,0.458,43.213,66.833,111.877
0.656,1.324,0.429,42.786,49.866,120.544
0.561,1.271,0.38,36.621,33.386,132.263
0.415,1.246,0.315,26.428,21.118,144.409
0.267,1.245,0.231,16.113,16.113,154.541
0.141,1.251,0.144,6.287,19.531,162.109
0.037,1.282,0.053,-2.93,29.48,166.565
0.002,1.317,0.011,-10.193,44.067,166.443
-0.007,1.314,-0.007,-12.268,59.692,160.95
0.042,1.313,0.005,-10.559,72.51,152.771
0.206,1.329,0.072,-6.104,76.66,143.677
0.328,1.356,0.123,3.54,66.711,130.798
0.365,1.403,0.128,19.836,44.983,117.31
0.356,1.426,0.122,38.33,17.761,109.314
0.306,1.388,0.094,57.922,-8.606,107.361
0.261,1.313,0.09,78.247,-28.931,106.018
0.185,1.228,0.09,99.915,-40.527,100.525
0.094,1.127,0.081,122.009,-42.297,91.858
0.049,1.046,0.079,142.273,-33.508,81.848
0.068,0.952,0.109,159.058,-15.869,73.12
0.121,0.818,0.158,171.143,3.54,67.688
0.251,0.638,0.249,176.697,17.7,67.261
0.362,0.474,0.346,174.927,17.334,69.397
0.401,0.372,0.412,168.152,-0.244,70.862
0.382,0.307,0.451,158.386,-31.128,72.083
0.303,0.217,0.439,147.4,-70.129,72.205
0.172,0.159,0.39,136.108,-107.849,70.984
0.032,0.099,0.338,126.526,-137.146,67.444
-0.113,0.008,0.274,120.056,-156.494,61.89
-0.257,-0.093,0.226,116.577,-164.307,54.565
-0.349,-0.195,0.199,115.417,-160.889,45.593
-0.415,-0.267,0.19,115.784,-149.109,36.865
-0.474,-0.328,0.199,116.455,-130.615,30.884
-0.505,-0.396,0.232,117.432,-106.995,28.87
-0.526,-0.457,0.287,119.69,-80.688,30.212
-0.532,-0.517,0.354,123.535,-54.749,30.518
-0.522,-0.603,0.436,129.15,-31.067,27.405
-0.502,-0.693,0.519,135.742,-10.437,21.667
-0.468,-0.745,0.61,141.418,5.798,14.038
-0.407,-0.777,0.698,145.508,18.677,5.188
-0.356,-0.807,0.779,146.851,27.527,-1.038
-0.315,-0.837,0.865,144.287,33.142,-2.625
-0.267,-0.875,0.939,136.963,36.072,-2.747
-0.237,-0.891,0.996,125.244,37.292,-3.723
-0.236,-0.879,1.033,110.901,39.124,-8.24
-0.25,-0.843,1.075,95.581,44.189,-13.977
-0.241,-0.782,1.117,79.407,52.856,-17.761
-0.209,-0.716,1.15,64.026,63.232,-19.714
-0.165,-0.659,1.178,49.011,72.998,-18.799
-0.122,-0.6,1.204,34.485,80.75,-14.771
-0.078,-0.548,1.214,19.958,84.9,-9.583
-0.054,-0.498,1.213,7.019,85.083,-4.883
-0.044,-0.44,1.196,-4.211,82.825,-0.916
-0.046,-0.386,1.178,-13.489,78.491,4.211
-0.055,-0.346,1.148,-20.813,73.425,9.644
-0.068,-0.305,1.124,-26.855,68.726,15.259
-0.082,-0.265,1.1,-31.067,64.27,20.569
-0.111,-0.247,1.059,-33.508,60.852,23.804
-0.145,-0.21,1.025,-35.889,60.059,25.146
-0.155,-0.134,1.028,-38.086,61.401,26.062
-0.139,-0.096,1.014,-38.025,61.707,27.71
-0.127,-0.068,1.024,-37.598,60.974,29.236
-0.103,-0.039,1.052,-36.377,58.35,29.602
-0.081,-0.03,1.067,-33.142,52.795,29.419
-0.058,-0.023,1.106,-29.602,45.227,29.419
-0.047,-0.045,1.14,-25.879,35.217,31.189
-0.065,-0.076,1.156,-22.766,24.048,33.691
-0.088,-0.096,1.156,-21.729,14.343,35.278
-0.117,-0.099,1.151,-22.217,6.958,34.607
-0.137,-0.09,1.145,-23.743,2.869,33.142
-0.142,-0.089,1.143,-25.94,1.282,32.532
-0.156,-0.093,1.131,-28.442,1.709,32.837
-0.194,-0.091,1.12,-30.579,3.906,33.752
-0.238,-0.089,1.113,-33.02,8.545,35.278
-0.269,-0.096,1.101,-33.386,15.869,35.278
-0.276,-0.097,1.075,-32.898,25.879,32.471
-0.25,-0.091,1.055,-33.691,37.415,28.442
-0.215,-0.096,1.038,-36.377,48.584,25.024
-0.202,-0.085,1.001,-40.344,58.777,21.912
-0.195,-0.059,0.967,-45.41,70.007,18.25
-0.167,-0.004,0.975,-48.767,81.726,13.428
-0.085,0.091,1.051,-50.049,89.417,10.376
0.055,0.135,1.117,-49.011,85.144,14.587
0.193,0.069,1.092,-48.035,66.345,24.475
0.234,0.037,1.07,-50.049,41.321,32.227
0.167,0.063,1.043,-53.833,16.113,35.4
0.071,0.1,0.994,-56.885,-6.042,35.583
-0.009,0.157,0.954,-58.228,-21.179,32.898
-0.07,0.207,0.919,-57.556,-29.541,27.954
-0.123,0.223,0.871,-55.42,-32.043,22.644
-0.145,0.212,0.847,-54.138,-28.137,17.578
-0.154,0.216,0.828,-53.894,-19.104,12.817
-0.143,0.209,0.821,-54.749,-7.324,8.057
-0.104,0.217,0.815,-57.556,5.127,5.066
-0.042,0.275,0.821,-62.439,15.442,4.333
0.025,0.315,0.829,-66.345,21.606,4.395
0.065,0.348,0.823,-69.763,22.583,4.333
0.075,0.383,0.809,-72.815,18.494,4.944
0.063,0.416,0.787,-74.28,11.536,5.432
0.024,0.477,0.748,-73.608,4.944,4.15
-0.008,0.533,0.713,-71.533,0.61,1.709
-0.038,0.548,0.68,-67.627,-1.038,-0.916
-0.059,0.552,0.65,-64.087,-0.366,-3.357
-0.078,0.576,0.627,-60.181,2.502,-6.104
-0.084,0.555,0.612,-55.176,7.629,-8.972
-0.082,0.553,0.632,-50.171,14.16,-11.292
-0.03,0.572,0.667,-45.898,18.372,-12.207
0.005,0.576,0.689,-41.016,16.968,-11.536
0.026,0.591,0.728,-38.086,11.536,-10.315
0.057,0.603,0.748,-36.682,1.465,-8.362
0.068,0.618,0.756,-36.682,-10.742,-7.874
0.029,0.634,0.738,-37.903,-23.865,-9.888
-0.002,0.635,0.713,-40.649,-35.583,-12.695
-0.037,0.616,0.679,-44.312,-44.189,-16.113
-0.069,0.619,0.651,-48.95,-49.011,-19.714
-0.105,0.639,0.624,-52.734,-50.049,-22.705
0.853,1.465,0.337,11.23,32.104,48.584
0.883,1.534,0.313,10.681,27.405,61.157
0.888,1.605,0.294,10.62,20.447,74.097
0.874,1.636,0.286,11.292,13.062,86.792
0.84,1.619,0.265,13.977,5.737,97.839
0.798,1.615,0.255,18.982,-0.854,105.53
0.75,1.618,0.272,27.161,-6.226,109.802
0.695,1.602,0.272,39.612,-11.475,113.037
0.646,1.614,0.266,54.504,-17.395,115.845
0.593,1.616,0.263,69.397,-23.437,118.469
0.533,1.598,0.265,83.435,-29.236,122.253
0.48,1.541,0.27,94.788,-33.875,127.93
0.451,1.433,0.289,101.929,-37.231,134.155
0.371,1.354,0.301,100.586,-38.269,143.005
0.294,1.233,0.309,90.942,-36.804,154.785
0.241,1.132,0.304,75.134,-31.982,164.551
0.205,1.147,0.328,55.603,-24.231,166.931
0.193,1.159,0.354,37.109,-16.235,163.086
0.192,1.076,0.34,23.132,-10.498,156.433
0.182,1.026,0.341,12.268,-6.592,147.278
0.165,0.988,0.342,6.714,-2.686,135.376
0.169,0.936,0.345,8.728,0.977,122.253
0.164,0.796,0.339,17.639,3.845,109.131
0.159,0.644,0.357,30.151,5.005,96.191
0.205,0.516,0.421,44.434,3.113,83.069
0.235,0.389,0.494,58.777,-5.859,73.242
0.21,0.284,0.553,70.129,-24.841,71.838
0.166,0.237,0.597,77.576,-52.307,75.5
0.067,0.1,0.603,84.351,-84.656,76.111
-0.056,-0.078,0.578,89.294,-114.441,69.214
-0.18,-0.182,0.553,92.041,-134.644,54.077
-0.268,-0.243,0.55,94.299,-142.822,35.095
-0.326,-0.333,0.541,96.191,-140.32,19.043
-0.353,-0.444,0.561,97.473,-129.028,7.996
-0.354,-0.502,0.597,97.29,-110.718,1.77
-0.315,-0.518,0.672,94.421,-91.003,1.221
-0.246,-0.554,0.761,90.271,-76.904,6.226
-0.212,-0.593,0.822,86.975,-72.266,13.916
-0.202,-0.601,0.888,85.815,-75.012,20.081
-0.211,-0.596,0.945,88.44,-83.862,20.996
-0.246,-0.608,0.953,94.849,-95.215,14.771
-0.289,-0.616,0.94,102.417,-102.173,3.357
-0.318,-0.601,0.94,108.215,-101.746,-7.263
-0.348,-0.583,0.942,110.962,-93.933,-14.099
-0.355,-0.589,0.96,110.413,-78.857,-15.991
-0.355,-0.606,0.985,107.666,-60.12,-15.076
-0.351,-0.594,1.013,102.783,-40.894,-13.489
-0.332,-0.55,1.055,96.313,-23.315,-12.39
-0.314,-0.472,1.079,90.393,-9.644,-12.268
-0.29,-0.401,1.107,84.839,0.488,-13.306
-0.269,-0.36,1.127,79.529,8.484,-14.343
-0.248,-0.321,1.145,74.097,13.855,-16.235
-0.235,-0.297,1.161,68.115,16.785,-17.822
-0.249,-0.28,1.156,61.218,17.822,-18.005
-0.275,-0.253,1.143,53.772,18.921,-17.334
-0.302,-0.241,1.126,45.898,21.667,-16.479
-0.315,-0.236,1.101,37.598,27.039,-16.357
-0.292,-0.202,1.077,28.625,34.119,-17.395
-0.237,-0.161,1.053,19.531,40.405,-18.921
-0.186,-0.137,1.02,10.864,44.189,-20.203
-0.161,-0.095,0.977,2.991,45.776,-20.386
-0.158,-0.049,0.937,-3.845,47.18,-19.958
-0.159,-0.021,0.882,-8.606,49.316,-19.043
-0.16,0.018,0.829,-11.292,52.673,-19.104
-0.148,0.048,0.803,-11.963,57.922,-19.531
-0.117,0.076,0.803,-10.376,62.927,-19.287
-0.052,0.119,0.836,-6.836,64.514,-18.005
0.011,0.119,0.848,-2.258,60.791,-15.015
0.043,0.143,0.886,1.099,51.697,-10.742
0.057,0.104,0.866,4.639,38.086,-4.272
-0.021,0.137,0.887,6.47,27.527,-1.221
-0.034,0.169,0.941,7.629,19.836,2.625
-0.016,0.129,0.967,10.559,10.315,7.874
-0.042,0.122,0.981,10.254,1.343,11.047
-0.101,0.121,0.98,9.216,-5.981,11.719
-0.161,0.141,1.001,8.423,-9.949,9.521
-0.186,0.158,1.003,8.545,-11.475,7.385
-0.193,0.147,1.006,8.911,-10.62,7.263
-0.206,0.14,1.011,9.033,-8.057,6.958
-0.219,0.133,1.017,8.789,-4.089,5.798
-0.213,0.136,1.034,8.789,0.244,3.845
-0.202,0.138,1.061,9.216,3.54,1.587
-0.175,0.139,1.084,9.766,5.798,0.122
-0.144,0.122,1.084,10.315,5.676,-0.488
-0.155,0.103,1.068,9.888,4.272,-0.916
-0.177,0.116,1.059,7.08,4.333,-0.977
-0.186,0.119,1.055,4.517,6.348,-0.549
-0.174,0.125,1.066,2.686,9.277,-0.122
-0.154,0.11,1.071,0.916,11.414,0.61
-0.135,0.108,1.086,-0.488,12.085,0.732
-0.132,0.101,1.093,-2.014,11.047,0.244
-0.143,0.097,1.089,-3.601,9.827,0.183
-0.16,0.098,1.076,-5.127,9.583,0.061
-0.17,0.09,1.064,-6.531,11.536,-0.366
-0.158,0.077,1.066,-7.996,15.015,-0.61
-0.128,0.084,1.067,-10.986,18.188,-0.916
-0.109,0.091,1.054,-13.916,19.958,-1.099
-0.098,0.098,1.046,-17.151,20.508,-0.427
-0.088,0.112,1.039,-19.897,20.203,0.916
-0.076,0.129,1.028,-22.156,19.775,2.197
-0.073,0.136,1.013,-23.499,19.226,3.113
-0.076,0.139,1.007,-24.841,18.799,4.456
-0.066,0.144,1.007,-25.818,18.555,6.226
-0.057,0.148,1.008,-26.794,17.639,7.568
-0.076,0.15,0.996,-27.161,15.32,8.728
-0.075,0.169,0.976,-27.954,13.489,9.155
-0.073,0.197,0.959,-28.87,12.329,8.667
-0.081,0.219,0.94,-29.297,10.986,7.996
-0.082,0.243,0.926,-29.602,10.437,8.179
-0.084,0.259,0.917,-28.748,9.888,9.216
-0.092,0.26,0.917,-26.55,9.155,10.132
-0.104,0.237,0.925,-24.109,8.484,10.986
-0.112,0.233,0.929,-21.545,7.69,11.536
-0.126,0.237,0.922,-19.714,6.836,10.986
-0.135,0.221,0.927,-19.104,6.714,10.071
-0.135,0.221,0.929,-18.921,7.08,9.277
-0.135,0.242,0.923,-19.409,7.568,8.789
-0.133,0.247,0.92,-20.142,8.179,8.606
-0.126,0.237,0.932,-20.203,8.728,8.179
0.692,1.467,0.531,5.737,10.62,21.912
0.738,1.536,0.514,0.671,7.141,32.227
0.754,1.584,0.507,-3.784,5.432,43.579
0.747,1.599,0.497,-6.775,5.737,56.274
0.71,1.601,0.484,-6.958,7.019,69.214
0.655,1.608,0.465,-5.31,9.094,81.36
0.576,1.648,0.436,-1.953,11.902,93.262
0.498,1.713,0.396,2.991,15.076,103.333
0.424,1.753,0.369,9.46,18.677,111.633
0.372,1.797,0.337,16.785,21.912,118.164
0.347,1.825,0.323,25.024,24.109,122.131
0.344,1.822,0.31,32.593,23.315,124.023
0.341,1.78,0.299,39.917,19.47,124.573
0.346,1.743,0.292,45.593,12.146,124.146
0.352,1.646,0.276,49.927,2.075,123.352
0.34,1.627,0.262,52.063,-9.644,122.62
0.323,1.659,0.258,53.833,-21.973,121.765
0.285,1.545,0.22,57.373,-34.302,121.216
0.236,1.429,0.17,58.777,-44.922,120.544
0.157,1.304,0.139,56.03,-53.101,119.263
0.057,1.141,0.099,50.903,-58.899,118.225
-0.036,0.946,0.062,43.457,-60.791,116.516
-0.124,0.795,0.029,35.339,-58.899,112.305
-0.205,0.681,0.014,27.466,-53.65,105.591
-0.282,0.496,-0.002,23.132,-45.715,97.29
-0.339,0.323,-0.012,22.339,-34.241,87.402
-0.357,0.169,0.019,24.536,-20.386,76.05
-0.358,-0.025,0.1,31.372,-8.545,63.965
-0.321,-0.233,0.189,42.175,-1.038,52.185
-0.221,-0.439,0.342,57.251,2.991,42.114
-0.16,-0.645,0.559,74.951,1.16,38.879
-0.17,-0.836,0.786,92.102,-9.399,44.983
-0.191,-1.041,0.982,106.079,-28.992,54.443
-0.204,-1.237,1.106,115.967,-55.786,56.885
-0.24,-1.361,1.173,120.422,-85.632,47.424
-0.325,-1.401,1.174,120.789,-111.633,29.358
-0.419,-1.382,1.171,119.995,-125.366,9.644
-0.487,-1.338,1.176,119.507,-122.803,-5.432
-0.531,-1.287,1.177,117.859,-105.591,-12.878
-0.544,-1.191,1.174,115.295,-76.843,-15.503
-0.511,-1.068,1.198,112.61,-41.199,-17.029
-0.436,-0.958,1.232,111.206,-4.883,-21.362
-0.308,-0.849,1.284,109.802,27.344,-30.64
-0.168,-0.769,1.34,106.995,50.72,-41.443
-0.06,-0.689,1.372,99.426,62.988,-48.523
0.032,-0.612,1.384,87.097,66.345,-50.476
0.113,-0.555,1.374,70.618,64.27,-47.241
0.152,-0.489,1.36,52.307,57.739,-40.833
0.176,-0.39,1.35,34.607,47.791,-32.898
0.158,-0.287,1.32,20.935,35.217,-24.231
0.135,-0.194,1.286,11.108,22.522,-15.198
0.069,-0.145,1.234,5.371,10.498,-6.592
-0.006,-0.12,1.184,1.587,1.282,0.427
-0.074,-0.11,1.132,-2.075,-2.869,6.104
-0.148,-0.1,1.079,-7.263,-3.174,10.62
-0.19,-0.067,1.04,-13.855,-0.732,14.038
-0.18,-0.037,0.999,-20.386,2.38,15.381
-0.158,-0.015,0.957,-26.062,5.066,14.282
-0.187,-0.016,0.864,-30.823,5.981,11.902
-0.224,0.109,0.888,-35.156,8.789,8.972
-0.245,0.101,0.746,-34.241,10.803,9.216
-0.3,0.179,0.708,-32.104,20.264,5.371
-0.298,0.298,0.74,-28.076,33.813,0.427
-0.226,0.325,0.768,-18.25,42.847,-0.427
-0.135,0.362,0.84,-8.24,45.044,0.366
-0.053,0.336,0.886,1.404,38.757,3.113
-0.05,0.357,0.94,8.972,25.208,5.554
-0.053,0.321,0.981,14.16,8.301,10.01
-0.097,0.262,0.983,19.287,-8.789,13.123
-0.199,0.225,0.974,22.095,-21.24,12.817
-0.277,0.232,0.976,20.813,-25.757,11.169
-0.323,0.188,0.943,19.287,-24.719,9.949
-0.354,0.215,0.947,16.052,-17.334,5.859
-0.342,0.224,0.946,13.123,-7.69,2.563
-0.318,0.21,0.954,11.292,1.404,0.0
-0.291,0.228,0.974,10.193,8.911,-2.563
-0.259,0.223,0.98,10.559,12.939,-3.479
-0.234,0.207,0.986,10.803,14.16,-3.723
-0.215,0.202,0.985,10.376,13.0,-3.662
-0.213,0.209,0.984,8.667,10.01,-3.296
-0.203,0.221,0.993,7.69,6.592,-3.052
-0.203,0.219,0.994,7.69,2.563,-2.747
-0.214,0.215,0.991,8.118,-0.916,-2.563
-0.228,0.207,0.985,8.667,-2.808,-3.052
-0.237,0.191,0.989,8.911,-3.235,-3.54
-0.236,0.176,0.986,8.362,-2.686,-3.967
-0.226,0.164,0.984,7.324,-1.648,-4.944
-0.216,0.156,0.978,5.188,-0.671,-6.348
-0.206,0.15,0.97,2.93,0.0,-7.324
-0.208,0.152,0.962,0.61,1.099,-7.751
-0.208,0.156,0.954,-1.404,2.869,-7.751
-0.2,0.156,0.951,-3.174,5.31,-7.446
-0.194,0.152,0.955,-4.028,7.324,-7.202
-0.178,0.151,0.955,-4.333,8.728,-7.202
-0.161,0.16,0.955,-4.7,9.155,-7.751
-0.148,0.165,0.965,-4.517,8.484,-8.484
-0.14,0.161,0.97,-3.906,7.385,-8.362
-0.128,0.167,0.973,-3.296,6.348,-7.69
-0.112,0.168,0.986,-2.625,5.432,-7.019
-0.092,0.161,1.007,-2.258,4.639,-5.249
-0.075,0.161,1.026,-1.892,3.174,-2.93
-0.066,0.16,1.037,-2.014,1.404,-0.916
-0.066,0.16,1.054,-2.563,-0.427,1.282
-0.089,0.148,1.07,-2.869,-1.953,2.808
-0.095,0.121,1.077,-2.075,-2.502,3.235
-0.1,0.104,1.065,-1.465,-1.038,1.221
-0.094,0.075,1.06,-0.122,2.747,-2.625
-0.073,0.044,1.063,2.197,8.24,-6.836
-0.058,0.018,1.027,5.92,15.076,-11.902
-0.05,0.036,0.984,9.277,23.865,-16.907
-0.022,0.084,0.963,12.146,34.058,-20.081
0.03,0.105,0.968,16.174,43.701,-19.226
0.101,0.095,0.996,21.667,48.889,-14.587
0.168,0.045,1.04,28.198,47.058,-8.118
0.216,-0.029,1.078,33.875,38.818,-0.732
0.21,-0.112,1.087,36.804,24.841,7.629
0.174,-0.141,1.092,35.645,8.179,14.221
0.141,-0.156,1.092,29.663,-7.08,19.958
0.076,-0.173,1.063,19.531,-21.667,26.672
1.083,1.669,0.359,56.519,175.964,45.349
1.089,1.649,0.417,73.303,103.149,40.588
1.031,1.672,0.405,86.792,31.555,34.363
0.796,1.597,0.302,97.107,-24.109,33.264
0.465,1.488,0.173,99.609,-50.964,45.044
0.147,1.413,0.136,90.942,-34.363,56.458
-0.075,1.355,0.094,75.256,24.841,55.298
-0.151,1.327,-0.005,60.364,110.779,41.565
-0.145,1.31,-0.09,52.551,208.374,20.752
-0.012,1.207,-0.135,53.589,304.504,-2.38
0.353,1.086,-0.096,61.462,381.714,-21.423
0.888,0.937,0.111,72.449,417.175,-34.241
1.417,0.761,0.423,81.055,391.724,-39.246
1.669,0.617,0.702,84.351,301.331,-39.429
1.618,0.561,0.837,81.299,164.368,-37.659
1.361,0.464,0.756,76.111,13.062,-32.043
0.925,0.408,0.586,71.228,-117.126,-23.804
0.507,0.338,0.403,68.054,-206.97,-17.151
0.142,0.218,0.283,64.941,-247.986,-11.414
-0.156,0.096,0.233,59.998,-246.155,-5.31
-0.34,-0.017,0.237,52.979,-215.881,-0.183
-0.406,-0.183,0.255,48.401,-169.128,1.526
-0.379,-0.396,0.277,50.354,-116.638,-3.601
-0.292,-0.53,0.347,55.847,-63.232,-18.494
-0.13,-0.656,0.471,63.049,-11.108,-35.583
0.118,-0.809,0.624,72.876,34.241,-45.471
0.383,-0.903,0.805,83.069,67.139,-48.401
0.591,-0.931,0.946,91.736,82.642,-47.913
0.776,-0.934,1.014,99.731,80.261,-43.884
0.863,-0.958,1.028,107.605,65.674,-37.842
0.802,-0.984,0.969,113.037,46.631,-37.476
0.702,-0.996,0.87,113.403,37.476,-47.241
0.62,-0.978,0.784,107.422,45.776,-64.209
0.552,-0.903,0.758,92.59,69.58,-83.13
0.613,-0.805,0.765,70.984,104.37,-97.473
0.764,-0.708,0.782,45.105,140.503,-102.417
0.938,-0.572,0.806,17.761,167.053,-98.328
1.075,-0.448,0.806,-6.287,177.734,-87.708
1.138,-0.344,0.773,-24.414,172.241,-73.853
1.143,-0.228,0.732,-36.804,155.518,-59.204
1.078,-0.15,0.662,-43.579,133.545,-47.607
1.01,-0.127,0.594,-44.739,113.953,-39.063
0.968,-0.087,0.551,-42.297,99.976,-32.227
0.93,-0.032,0.529,-37.781,90.393,-26.367
0.89,0.002,0.496,-30.884,83.984,-19.775
0.869,0.041,0.471,-23.315,80.078,-12.268
0.851,0.066,0.454,-15.93,77.271,-5.737
0.853,0.068,0.453,-10.01,74.768,-1.465
0.845,0.049,0.458,-5.188,72.021,1.709
0.821,0.047,0.467,-2.075,69.458,3.113
0.819,0.058,0.475,-1.038,67.383,3.906
0.835,0.08,0.484,-1.587,65.491,5.005
0.879,0.103,0.496,-3.052,62.012,6.47
0.922,0.141,0.511,-4.333,55.725,7.812
0.947,0.179,0.525,-3.418,46.509,8.606
0.977,0.203,0.543,-0.427,34.851,9.766
1.001,0.213,0.563,3.113,20.813,11.292
1.023,0.205,0.575,6.531,5.493,12.573
1.012,0.203,0.58,9.521,-9.521,14.16
1.007,0.196,0.572,10.315,-23.376,17.212
0.987,0.193,0.566,9.521,-35.461,20.386
0.941,0.21,0.577,7.263,-45.837,21.362
0.919,0.179,0.575,6.042,-53.833,20.813
0.909,0.211,0.583,4.944,-58.35,18.494
0.906,0.177,0.58,4.089,-58.777,17.578
0.925,0.18,0.612,2.197,-56.458,18.494
0.925,0.183,0.626,1.892,-53.955,21.24
0.932,0.171,0.633,1.648,-52.368,24.902
0.962,0.15,0.645,-0.427,-52.307,30.273
0.892,0.157,0.632,-4.089,-55.359,35.461
0.8,0.162,0.593,-6.348,-56.091,37.231
0.766,0.144,0.577,-8.118,-49.683,37.537
0.752,0.132,0.578,-9.399,-38.391,36.133
0.758,0.137,0.59,-11.292,-26.184,34.241
0.78,0.13,0.606,-13.123,-16.418,32.227
0.81,0.114,0.615,-14.954,-9.827,30.334
0.84,0.127,0.617,-17.639,-6.714,28.87
0.88,0.132,0.624,-20.447,-7.202,28.32
0.911,0.13,0.619,-23.254,-11.719,28.87
0.904,0.161,0.595,-25.452,-19.653,30.396
0.914,0.176,0.584,-26.428,-28.076,34.485
0.922,0.188,0.576,-26.55,-37.048,41.382
0.89,0.217,0.559,-24.597,-46.997,48.523
0.847,0.242,0.543,-20.508,-55.908,54.443
0.794,0.251,0.531,-14.099,-62.5,58.716
0.722,0.25,0.521,-6.592,-66.467,60.913
0.658,0.24,0.513,0.977,-65.918,60.059
0.606,0.235,0.506,7.812,-61.646,56.091
0.568,0.231,0.5,12.756,-53.833,50.842
0.577,0.228,0.505,15.076,-43.579,46.753
0.591,0.24,0.513,14.465,-33.752,43.884
0.61,0.255,0.532,11.719,-26.123,42.847
0.654,0.242,0.573,7.446,-22.217,43.579
0.696,0.233,0.597,3.906,-23.254,44.434
0.729,0.246,0.617,1.587,-28.137,43.945
0.741,0.264,0.63,0.671,-35.461,42.725
0.702,0.274,0.621,1.343,-44.189,42.297
0.655,0.318,0.594,2.38,-51.819,43.335
0.621,0.348,0.572,3.784,-55.969,44.861
0.598,0.364,0.539,5.493,-57.007,46.265
0.596,0.406,0.521,5.676,-54.565,47.18
0.583,0.45,0.511,5.493,-50.964,48.523
0.528,0.465,0.5,5.066,-48.706,51.392
0.48,0.456,0.501,5.432,-45.349,53.284
0.455,0.428,0.513,7.202,-39.185,52.246
0.429,0.409,0.532,10.01,-31.799,48.584
0.47,0.378,0.569,12.207,-24.78,45.532
0.538,0.39,0.596,14.648,-20.508,41.809
0.516,0.444,0.605,16.541,-20.447,35.156
0.509,0.463,0.631,18.433,-23.01,30.029
0.536,0.481,0.65,20.081,-27.466,29.663
0.545,0.505,0.672,22.156,-33.569,31.677
0.539,0.53,0.703,23.01,-41.443,33.752
0.504,0.551,0.711,23.621,-52.124,37.109
0.466,0.521,0.71,23.499,-63.293,40.833
0.458,0.451,0.714,21.729,-72.083,42.725
0.431,0.429,0.705,18.25,-78.247,40.466
0.409,0.44,0.704,12.878,-80.688,35.339
0.379,0.464,0.694,6.165,-80.505,29.968
0.401,-1.213,1.036,79.895,-117.371,-55.969
0.356,-1.13,1.062,66.589,-163.696,-35.095
0.242,-1.041,1.083,61.157,-204.102,-14.587
0.059,-0.959,1.068,63.721,-232.483,-1.465
-0.149,-0.886,1.038,71.777,-244.08,5.188
-0.341,-0.812,1.025,80.811,-236.633,7.019
-0.477,-0.758,1.034,87.28,-210.632,5.432
-0.557,-0.687,1.043,88.257,-169.617,2.441
-0.564,-0.604,1.07,83.313,-120.605,-0.427
-0.511,-0.545,1.111,74.463,-70.251,-2.258
-0.418,-0.504,1.154,62.927,-24.963,-1.953
-0.307,-0.453,1.19,50.842,9.46,0.427
-0.22,-0.368,1.212,39.673,32.227,4.7
-0.176,-0.292,1.23,31.799,43.457,10.071
-0.155,-0.268,1.206,25.635,44.861,14.771
-0.149,-0.241,1.176,18.738,40.588,16.541
-0.155,-0.212,1.158,10.803,33.203,16.052
-0.174,-0.178,1.14,3.601,23.01,14.648
-0.195,-0.131,1.106,-2.991,11.658,13.245
-0.214,-0.081,1.064,-8.85,1.77,12.451
-0.231,-0.036,1.029,-13.245,-5.981,12.146
-0.238,0.007,1.005,-16.541,-12.268,11.963
-0.246,0.052,0.995,-18.066,-17.334,11.536
-0.243,0.088,0.998,-16.724,-21.729,11.23
-0.237,0.1,1.004,-12.817,-26.184,11.597
-0.244,0.108,1.017,-7.874,-30.334,12.634
-0.254,0.099,1.017,-2.014,-34.18,14.587
-0.334,0.061,0.976,3.113,-36.072,15.747
-0.443,0.084,0.951,6.409,-30.396,13.611
-0.502,0.102,0.934,10.01,-17.639,9.705
-0.507,0.113,0.957,14.587,-0.183,4.7
-0.466,0.1,0.986,19.165,17.029,1.16
-0.401,0.098,1.014,21.729,30.64,-1.282
-0.334,0.039,1.023,22.339,39.612,-2.991
-0.305,0.03,1.055,21.057,44.434,-5.127
-0.258,0.07,1.092,17.822,46.448,-7.996
-0.196,0.045,1.084,14.954,43.274,-8.057
-0.163,0.037,1.089,10.986,38.391,-7.568
-0.15,0.049,1.08,6.531,32.288,-6.226
-0.163,0.061,1.062,2.563,25.94,-4.517
-0.188,0.087,1.046,-0.61,20.874,-3.296
-0.199,0.082,1.013,-2.93,17.334,-2.258
-0.212,0.078,0.993,-5.31,16.541,-1.709
-0.211,0.091,0.983,-7.385,17.944,-2.197
-0.198,0.102,0.975,-8.057,19.531,-3.052
-0.171,0.111,0.971,-7.935,20.935,-3.357
-0.147,0.117,0.969,-7.019,20.996,-3.479
-0.13,0.11,0.969,-5.615,19.653,-3.357
-0.119,0.108,0.982,-4.333,17.822,-3.235
-0.114,0.114,0.999,-3.54,14.771,-3.357
-0.104,0.113,1.005,-2.869,10.62,-4.272
-0.098,0.11,1.013,-2.991,6.042,-5.432
-0.104,0.115,1.018,-3.723,1.038,-6.775
-0.117,0.128,1.009,-4.333,-3.174,-7.263
-0.128,0.137,1.001,-4.7,-5.859,-7.446
-0.141,0.137,1.0,-4.944,-6.836,-7.324
-0.149,0.14,0.988,-4.639,-6.409,-7.751
-0.15,0.147,0.978,-4.822,-4.517,-8.667
-0.151,0.147,0.969,-4.761,-1.709,-9.827
-0.152,0.152,0.961,-5.127,1.587,-10.742
-0.147,0.161,0.956,-6.042,5.737,-11.047
-0.144,0.166,0.949,-6.897,10.498,-11.108
-0.135,0.171,0.945,-7.446,15.259,-11.169
-0.119,0.172,0.945,-8.545,20.203,-11.108
-0.101,0.175,0.953,-9.277,24.292,-11.414
-0.087,0.173,0.96,-9.338,26.672,-12.329
-0.066,0.169,0.97,-9.094,27.344,-13.123
-0.05,0.154,0.987,-8.545,26.489,-13.794
-0.033,0.146,0.996,-8.057,24.109,-13.855
-0.021,0.142,1.0,-8.362,21.301,-13.855
-0.015,0.133,1.001,-9.033,18.372,-13.611
-0.008,0.136,1.006,-10.01,15.808,-12.329
0.0,0.13,1.013,-11.108,13.428,-10.925
0.0,0.118,1.013,-11.719,11.292,-9.583
-0.005,0.117,1.011,-12.573,9.949,-8.667
-0.011,0.115,1.009,-14.038,9.521,-7.996
-0.021,0.116,0.998,-15.625,10.193,-7.324
-0.034,0.132,0.984,-17.639,12.634,-6.714
-0.035,0.138,0.983,-19.714,16.602,-5.859
-0.019,0.15,0.995,-20.325,20.63,-4.822
0.008,0.158,1.0,-20.386,23.132,-3.174
0.035,0.151,1.0,-20.935,23.56,-0.977
0.046,0.141,1.005,-21.423,22.156,0.854
0.049,0.144,1.01,-21.729,18.738,2.319
0.043,0.175,1.001,-21.423,14.16,3.113
0.035,0.189,0.986,-21.484,9.399,3.357
0.019,0.197,0.974,-22.156,5.981,3.54
0.012,0.207,0.963,-23.071,3.723,3.601
0.011,0.212,0.955,-23.926,2.686,3.113
0.009,0.21,0.953,-23.926,2.502,2.808
0.007,0.211,0.957,-23.437,2.625,2.686
0.013,0.208,0.958,-22.095,2.319,3.357
0.029,0.196,0.964,-21.362,2.014,4.517
0.044,0.206,0.964,-20.996,0.671,5.432
0.045,0.208,0.961,-21.423,-1.404,5.798
0.042,0.195,0.962,-21.851,-3.723,6.226
0.033,0.194,0.969,-22.034,-5.615,6.836
0.027,0.181,0.971,-21.729,-6.836,7.69
0.026,0.155,0.975,-22.095,-7.019,8.85
0.026,0.135,0.974,-22.4,-6.897,9.033
0.029,0.134,0.971,-23.376,-6.287,9.399
0.04,0.154,0.965,-25.085,-5.554,9.705
0.046,0.179,0.964,-27.405,-4.578,10.01
0.056,0.181,0.971,-29.602,-3.723,11.169
0.069,0.181,0.977,-31.677,-3.479,12.939
0.063,0.18,0.968,-33.081,-4.272,13.794
0.054,0.174,0.954,-34.79,-4.944,14.099
0.043,0.16,0.939,-35.95,-5.005,14.526
0.032,0.164,0.92,-37.109,-4.822,15.259
0.022,0.162,0.909,-37.659,-4.395,16.235
0.02,0.188,0.898,-38.391,-3.418,17.395
0.013,0.226,0.902,-38.513,-2.563,18.494
0.009,0.215,0.908,-37.903,-2.258,20.63
-0.007,0.197,0.903,-36.804,-2.808,22.583
-0.033,0.182,0.893,-36.56,-2.38,23.254
-0.048,0.167,0.874,-37.537,-0.916,23.499
-0.052,0.205,0.858,-40.71,2.319,23.437
-0.057,0.238,0.843,-45.044,6.958,23.804
-0.061,0.261,0.817,-49.561,11.719,25.757
0.339,2.025,0.339,37.109,61.584,91.614
0.382,2.001,0.326,49.561,48.828,80.872
0.413,2.011,0.294,63.354,35.645,71.838
0.449,1.907,0.297,79.041,25.33,66.162
0.503,1.723,0.307,91.553,16.296,67.749
0.557,1.59,0.364,94.666,5.188,78.43
0.541,1.379,0.407,89.539,-12.939,93.933
0.42,1.168,0.406,79.529,-39.368,106.995
0.228,0.958,0.411,64.27,-67.505,112.854
0.006,0.753,0.351,48.523,-92.468,109.558
-0.21,0.543,0.278,36.682,-108.459,96.802
-0.358,0.295,0.207,31.128,-109.68,77.393
-0.427,0.068,0.187,31.738,-97.229,55.664
-0.449,-0.095,0.242,37.476,-78.857,35.522
-0.443,-0.215,0.332,49.255,-61.646,19.409
-0.405,-0.351,0.425,67.566,-47.424,8.789
-0.331,-0.52,0.539,87.036,-37.17,4.211
-0.246,-0.707,0.651,101.257,-31.86,5.859
-0.137,-0.857,0.754,110.352,-32.898,11.292
-0.023,-0.936,0.84,118.53,-42.297,15.198
0.041,-1.0,0.89,129.761,-60.059,13.794
0.045,-1.069,0.904,144.287,-80.933,9.399
-0.027,-1.114,0.939,161.316,-98.206,3.601
-0.091,-1.212,1.021,177.917,-105.347,-0.488
-0.107,-1.292,1.112,187.805,-104.187,-3.601
-0.112,-1.307,1.197,185.669,-97.961,-10.376
-0.131,-1.252,1.276,171.875,-87.402,-20.447
-0.121,-1.15,1.339,149.048,-74.463,-30.884
-0.123,-1.003,1.357,120.911,-60.242,-40.344
-0.144,-0.849,1.334,90.271,-44.25,-46.997
-0.153,-0.713,1.245,59.448,-25.513,-50.476
-0.161,-0.573,1.128,29.297,-3.479,-52.246
-0.142,-0.431,1.017,2.38,21.362,-51.758
-0.073,-0.308,0.938,-18.86,44.922,-47.302
-0.002,-0.205,0.884,-32.349,62.744,-40.466
0.05,-0.106,0.843,-39.001,71.35,-32.166
0.062,-0.019,0.832,-39.124,70.801,-23.499
0.04,0.019,0.822,-33.569,63.293,-13.855
0.0,0.016,0.801,-24.841,51.27,-4.517
-0.059,-0.001,0.783,-16.541,37.903,2.258
-0.135,0.012,0.754,-9.766,25.696,7.019
-0.218,0.058,0.715,-5.127,16.968,10.193
-0.267,0.112,0.699,-1.526,12.573,11.78
-0.269,0.15,0.732,1.953,11.108,13.489
-0.233,0.142,0.764,6.409,8.728,15.869
-0.234,0.127,0.78,10.559,3.784,16.724
-0.256,0.168,0.841,13.855,-1.587,15.32
-0.254,0.147,0.826,18.066,-7.996,15.076
-0.293,0.132,0.819,21.545,-11.902,12.756
-0.307,0.172,0.849,23.376,-10.864,8.362
-0.293,0.191,0.879,26.917,-8.484,5.249
-0.281,0.184,0.918,32.104,-6.042,3.662
-0.28,0.169,0.949,36.621,-4.456,3.418
-0.287,0.139,0.953,39.673,-3.418,2.93
-0.328,0.145,0.965,40.1,-1.221,0.61
-0.332,0.125,0.992,39.063,2.441,-1.465
-0.315,0.078,0.99,37.109,6.531,-3.174
-0.309,0.089,1.005,32.654,11.23,-6.226
-0.292,0.108,1.038,26.489,15.503,-7.935
-0.244,0.108,1.057,21.667,17.456,-7.812
-0.198,0.126,1.077,17.334,15.991,-7.69
-0.169,0.118,1.074,14.099,11.414,-7.385
-0.158,0.118,1.07,12.146,5.127,-7.202
-0.156,0.129,1.059,11.353,-0.61,-6.714
-0.149,0.13,1.06,11.23,-4.456,-5.493
-0.152,0.125,1.061,12.207,-7.141,-3.662
-0.205,0.114,1.058,13.0,-8.179,-1.465
-0.22,0.094,1.057,13.062,-6.836,2.075
-0.224,0.074,1.061,11.292,-3.967,4.944
-0.24,0.067,1.067,8.545,-0.916,5.31
-0.253,0.075,1.073,5.615,1.953,4.272
-0.252,0.082,1.078,3.662,4.578,3.052
-0.248,0.08,1.075,2.258,6.531,2.563
-0.243,0.077,1.073,0.366,7.935,2.686
-0.234,0.078,1.068,-2.075,8.301,2.93
-0.231,0.078,1.065,-4.089,8.118,3.113
-0.232,0.082,1.054,-5.798,7.69,3.052
-0.242,0.09,1.04,-7.202,7.263,2.991
-0.245,0.092,1.021,-8.789,7.385,3.479
-0.244,0.094,1.014,-10.254,7.996,3.479
-0.24,0.093,1.005,-10.742,9.46,2.808
-0.227,0.095,0.995,-10.681,11.475,1.16
-0.203,0.108,0.998,-10.681,13.794,-0.488
-0.169,0.114,1.012,-9.949,15.442,-1.16
-0.129,0.117,1.037,-7.874,15.442,-0.854
-0.096,0.109,1.063,-5.371,13.55,-0.183
-0.054,0.098,1.087,-2.625,10.071,1.099
-0.031,0.091,1.11,-0.793,5.31,3.54
-0.021,0.075,1.129,-0.854,-0.549,7.935
-0.026,0.051,1.139,-2.197,-7.446,13.611
-0.057,0.023,1.131,-4.578,-14.709,17.822
-0.106,0.009,1.117,-7.751,-20.447,20.081
-0.166,0.01,1.098,-10.193,-22.888,20.325
-0.219,0.013,1.075,-12.085,-20.447,18.555
-0.253,0.009,1.049,-12.695,-13.0,15.442
-0.253,0.002,1.032,-12.024,-2.38,11.169
-0.232,-0.015,1.028,-9.521,10.986,6.531
-0.167,-0.022,1.021,-5.92,24.353,1.282
-0.088,-0.031,1.018,-3.784,34.79,-2.563
-0.018,-0.049,1.032,-4.089,40.955,-2.93
0.022,-0.066,1.051,-5.615,41.321,1.709
0.05,-0.069,1.067,-7.69,36.804,9.644
0.077,-0.081,1.084,-10.193,28.625,17.7
0.081,-0.14,1.098,-11.597,17.7,24.292
0.032,-0.245,1.06,-11.841,7.141,28.381
-0.041,-0.253,1.047,-14.526,1.343,28.076
-0.091,-0.238,1.016,-18.982,-0.122,27.588
-0.127,-0.246,0.964,-24.231,1.648,28.198
-0.142,-0.184,0.931,-31.372,7.812,26.428
-0.109,-0.1,0.912,-39.734,16.296,24.78
-0.05,-0.056,0.907,-47.607,22.827,24.78
0.005,-0.047,0.906,-55.786,24.902,27.039
0.036,-0.063,0.912,-63.171,21.118,31.555
0.038,-0.097,0.911,-68.054,13.0,36.865
0.005,-0.125,0.894,-70.129,3.113,40.466
-0.05,-0.099,0.865,-70.19,-5.005,41.321
-0.097,-0.002,0.843,-68.909,-9.583,40.1
-0.131,0.091,0.829,-65.43,-10.132,37.537
-0.153,0.162,0.813,-59.387,-8.728,34.424
0.624,1.69,0.33,32.776,165.894,122.62
0.64,1.684,0.344,46.997,146.606,119.446
0.628,1.615,0.354,58.777,122.253,109.985
0.571,1.48,0.334,67.383,95.459,95.398
0.492,1.346,0.302,74.768,71.472,78.308
0.433,1.287,0.299,82.397,53.711,62.988
0.369,1.2,0.295,91.248,42.542,55.481
0.249,1.066,0.293,100.403,39.612,59.509
0.15,0.954,0.282,106.506,46.997,72.876
0.101,0.821,0.29,109.924,62.927,86.548
0.04,0.602,0.294,111.084,84.839,92.896
0.001,0.429,0.317,109.131,110.779,90.088
0.002,0.323,0.327,106.812,137.451,76.294
0.077,0.172,0.338,105.713,163.269,53.162
0.141,0.032,0.356,103.821,187.439,28.198
0.146,-0.1,0.346,101.379,208.13,3.601
0.239,-0.266,0.356,99.304,229.37,-20.325
0.419,-0.404,0.41,92.957,249.634,-39.124
0.632,-0.498,0.512,83.13,261.047,-50.049
0.819,-0.574,0.632,70.19,258.728,-49.561
0.969,-0.622,0.718,56.519,240.295,-38.574
1.034,-0.657,0.771,47.119,208.252,-27.71
1.026,-0.688,0.771,42.053,170.044,-27.222
1.037,-0.726,0.743,38.696,135.315,-38.696
1.055,-0.767,0.723,35.095,105.286,-57.861
1.05,-0.778,0.713,27.405,80.2,-76.721
1.052,-0.734,0.681,12.756,59.509,-85.205
1.043,-0.664,0.632,-4.578,41.199,-83.374
1.04,-0.561,0.608,-18.005,27.588,-78.43
1.039,-0.45,0.613,-25.085,17.639,-72.937
1.035,-0.35,0.629,-24.17,7.202,-68.176
1.015,-0.273,0.623,-15.503,-4.028,-64.331
0.974,-0.214,0.612,-1.892,-13.611,-62.134
0.919,-0.189,0.595,14.038,-20.081,-61.829
0.873,-0.18,0.579,29.785,-21.24,-62.805
0.845,-0.18,0.587,42.542,-18.433,-63.599
0.818,-0.194,0.596,52.795,-13.611,-63.599
0.819,-0.181,0.621,58.044,-7.385,-59.753
0.864,-0.169,0.681,57.434,-2.502,-51.208
0.902,-0.173,0.73,52.917,-1.831,-39.001
0.913,-0.166,0.757,44.128,-5.493,-24.78
0.894,-0.175,0.76,33.63,-12.329,-11.292
0.841,-0.175,0.74,23.193,-20.325,-3.601
0.738,-0.14,0.7,13.733,-25.635,-2.258
0.632,-0.091,0.648,6.287,-25.208,-3.479
0.578,-0.046,0.609,0.61,-17.761,-5.005
0.546,-0.009,0.576,-4.028,-6.042,-6.531
0.544,0.012,0.556,-6.958,7.202,-7.507
0.573,0.024,0.539,-8.789,19.653,-8.667
0.608,0.051,0.537,-9.827,29.541,-9.827
0.647,0.074,0.542,-9.949,35.645,-10.071
0.678,0.089,0.541,-9.033,37.415,-9.46
0.686,0.132,0.536,-8.301,36.804,-8.484
0.715,0.148,0.541,-6.714,35.645,-7.935
0.754,0.152,0.547,-4.272,33.875,-7.69
0.796,0.157,0.568,-1.16,31.128,-8.423
0.84,0.163,0.594,2.625,26.306,-8.789
0.863,0.174,0.622,7.141,19.958,-8.179
0.887,0.174,0.644,11.292,12.268,-5.371
0.897,0.146,0.656,15.015,4.028,-2.38
0.862,0.105,0.64,16.785,-2.808,0.366
0.82,0.114,0.654,15.991,-5.371,1.099
0.824,0.141,0.682,14.526,-4.7,1.221
0.837,0.113,0.679,12.573,-3.845,2.258
0.844,0.113,0.684,8.789,-2.258,3.418
0.826,0.114,0.675,5.005,0.0,5.249
0.804,0.12,0.661,0.977,4.822,7.568
0.791,0.127,0.636,-2.808,12.146,10.254
0.793,0.129,0.619,-6.226,21.179,12.207
0.819,0.127,0.614,-8.911,29.968,13.123
0.86,0.119,0.614,-10.62,37.659,13.306
0.912,0.101,0.62,-11.475,41.87,13.184
0.959,0.078,0.624,-11.353,42.236,13.428
0.987,0.066,0.615,-11.658,38.452,13.977
0.997,0.098,0.598,-12.268,31.677,14.771
1.01,0.119,0.59,-12.451,22.888,16.724
1.01,0.131,0.579,-11.475,12.695,20.02
0.992,0.146,0.572,-9.338,2.502,23.499
0.958,0.137,0.559,-6.165,-6.592,26.123
0.917,0.132,0.548,-3.54,-13.0,27.771
0.882,0.152,0.546,-1.099,-16.418,29.236
0.871,0.173,0.559,-0.122,-17.517,32.166
0.849,0.173,0.572,0.61,-17.822,35.828
0.838,0.164,0.581,2.014,-17.822,38.33
0.834,0.159,0.585,3.723,-17.029,39.307
0.822,0.142,0.583,5.676,-16.846,38.818
0.826,0.122,0.584,7.69,-17.395,37.537
0.818,0.131,0.579,8.972,-18.982,35.889
0.792,0.151,0.578,10.315,-21.118,34.058
0.78,0.166,0.574,12.024,-22.339,32.898
0.787,0.19,0.579,13.245,-22.522,32.837
0.8,0.199,0.598,14.282,-23.437,33.508
0.802,0.193,0.605,14.893,-26.245,34.851
0.813,0.173,0.627,14.343,-30.334,36.255
0.824,0.151,0.645,13.245,-36.438,37.415
0.81,0.146,0.642,11.719,-44.739,37.292
0.784,0.15,0.634,9.521,-53.406,37.476
0.76,0.125,0.623,7.08,-60.974,38.94
0.729,0.128,0.61,3.967,-66.284,41.565
0.678,0.179,0.609,0.427,-68.665,44.25
0.625,0.189,0.61,-1.038,-67.932,46.57
0.582,0.156,0.601,-1.526,-62.805,48.34
0.53,0.11,0.597,-2.747,-53.528,49.377
0.508,0.056,0.607,-5.127,-41.26,49.133
0.5,0.043,0.606,-8.606,-27.222,48.096
0.495,0.063,0.607,-13.55,-13.428,46.326
0.533,0.144,0.627,-18.127,-2.502,46.509
0.592,0.234,0.66,-20.386,3.479,47.546
0.646,0.253,0.688,-20.386,2.93,47.485
0.699,0.241,0.707,-20.264,-4.211,47.058
0.704,0.229,0.712,-20.447,-16.785,45.959
0.687,0.193,0.697,-21.667,-31.006,44.312
0.671,0.16,0.674,-24.963,-43.274,42.725
0.615,0.156,0.649,-29.297,-53.711,42.664
0.56,0.193,0.628,-34.302,-61.279,44.861
0.499,0.252,0.612,-36.926,-65.002,47.607
0.454,0.298,0.603,-36.743,-64.209,49.377
0.416,0.348,0.598,-35.278,-57.983,49.011
0.395,0.387,0.6,-32.837,-47.913,47.668
0.497,1.359,0.828,26.123,0.793,13.794
0.563,1.452,0.868,31.616,-7.141,17.639
0.621,1.538,0.916,37.903,-17.822,23.56
0.674,1.592,0.955,45.044,-30.212,31.433
0.72,1.664,0.984,52.185,-42.542,39.795
0.734,1.768,1.003,58.411,-53.955,47.974
0.739,1.854,1.001,63.354,-63.66,55.847
0.734,1.862,0.984,67.566,-70.679,63.416
0.715,1.802,0.948,70.435,-75.195,71.228
0.692,1.703,0.911,70.679,-77.515,79.773
0.672,1.582,0.853,66.589,-79.102,89.355
0.649,1.464,0.792,58.716,-81.055,100.769
0.623,1.399,0.745,48.645,-83.374,113.281
0.581,1.389,0.709,39.673,-86.792,125.61
0.505,1.281,0.648,34.546,-90.759,136.963
0.436,1.186,0.588,29.419,-93.75,146.057
0.342,1.129,0.537,23.621,-95.459,150.696
0.208,1.008,0.465,18.494,-96.863,152.954
0.111,0.836,0.383,11.414,-96.68,152.71
0.036,0.67,0.319,-0.61,-95.52,146.606
-0.053,0.515,0.255,-14.587,-95.764,135.132
-0.11,0.365,0.204,-29.236,-97.595,122.803
-0.148,0.153,0.172,-41.87,-100.769,111.267
-0.199,-0.078,0.147,-52.002,-103.821,101.196
-0.304,-0.261,0.155,-57.434,-103.638,93.933
-0.419,-0.374,0.19,-56.458,-97.9,88.44
-0.481,-0.469,0.24,-47.546,-85.815,83.557
-0.521,-0.559,0.323,-32.593,-71.167,78.491
-0.514,-0.665,0.433,-14.404,-58.96,73.12
-0.481,-0.79,0.537,5.432,-54.688,68.726
-0.429,-0.943,0.665,26.306,-59.937,61.646
-0.403,-1.077,0.794,47.302,-70.129,49.866
-0.433,-1.191,0.948,68.42,-78.735,38.513
-0.502,-1.239,1.073,87.158,-83.069,32.104
-0.57,-1.252,1.154,103.21,-81.238,29.053
-0.644,-1.275,1.175,115.051,-71.106,24.353
-0.675,-1.285,1.18,120.422,-50.964,14.038
-0.652,-1.237,1.188,117.859,-24.658,-1.465
-0.59,-1.149,1.191,107.727,3.174,-16.174
-0.493,-1.042,1.181,92.407,29.541,-25.208
-0.371,-0.933,1.162,74.951,51.819,-28.137
-0.256,-0.825,1.132,56.824,68.298,-27.771
-0.164,-0.736,1.112,40.71,78.186,-25.33
-0.077,-0.638,1.09,27.893,80.75,-23.254
-0.017,-0.526,1.087,18.311,77.332,-22.339
0.009,-0.442,1.096,13.062,67.993,-20.203
0.016,-0.368,1.094,11.719,53.894,-14.893
-0.028,-0.311,1.102,12.756,37.72,-6.897
-0.119,-0.306,1.094,15.808,21.545,1.343
-0.22,-0.314,1.059,18.982,8.789,7.812
-0.316,-0.298,1.024,19.043,2.136,10.01
-0.391,-0.281,0.99,16.907,0.732,8.545
-0.43,-0.25,0.947,13.123,3.357,4.578
-0.422,-0.205,0.89,7.324,9.277,-0.671
-0.399,-0.148,0.837,0.061,16.602,-3.662
-0.366,-0.091,0.81,-6.592,23.926,-3.845
-0.302,-0.038,0.79,-10.864,29.236,-2.258
-0.236,-0.014,0.772,-12.207,31.067,-0.122
-0.224,-0.017,0.734,-11.108,29.541,1.709
-0.241,0.039,0.763,-9.033,27.466,2.075
-0.174,0.051,0.78,-3.662,23.132,3.906
-0.168,0.014,0.754,4.456,15.686,4.7
-0.196,0.054,0.79,9.949,9.338,3.54
-0.202,0.067,0.83,16.785,2.747,4.272
-0.195,0.038,0.858,23.499,-4.272,7.629
-0.205,0.031,0.901,28.564,-11.108,10.62
-0.227,0.016,0.929,32.41,-18.677,12.939
-0.274,0.001,0.957,34.485,-25.574,14.404
-0.345,0.009,0.995,34.79,-29.724,15.076
-0.407,-0.05,0.985,34.79,-30.518,16.174
-0.488,-0.054,1.002,32.227,-25.024,14.343
-0.528,-0.055,1.016,28.259,-15.808,11.414
-0.53,-0.078,1.013,23.315,-5.127,8.484
-0.511,-0.071,1.012,16.785,6.47,4.761
-0.473,-0.059,1.015,10.437,16.724,0.916
-0.43,-0.04,1.013,4.578,23.376,-2.014
-0.395,-0.02,1.003,0.488,26.794,-3.418
-0.365,-0.01,1.0,-1.709,27.893,-3.784
-0.337,-0.017,1.001,-1.953,27.344,-3.723
-0.327,-0.035,1.001,-1.648,25.208,-3.357
-0.32,-0.05,0.999,-1.465,22.278,-2.93
-0.302,-0.055,0.994,-1.404,19.409,-2.563
-0.298,-0.058,0.983,-1.77,16.602,-2.625
-0.31,-0.058,0.965,-2.441,14.709,-3.113
-0.321,-0.036,0.955,-2.686,15.564,-3.662
-0.31,-0.032,0.956,-3.052,18.799,-3.479
-0.286,-0.04,0.961,-3.479,22.278,-2.258
-0.264,-0.044,0.965,-4.639,25.146,0.305
-0.238,-0.034,0.975,-6.531,26.489,2.747
-0.227,-0.022,0.982,-8.118,25.635,4.333
-0.213,-0.01,0.993,-8.789,23.437,5.188
-0.214,0.003,0.997,-9.46,20.081,6.348
-0.224,0.009,0.991,-9.521,15.991,7.69
-0.232,0.009,0.99,-9.521,11.963,9.155
-0.24,0.004,0.993,-9.338,8.423,10.315
-0.253,0.002,0.993,-9.155,5.188,10.132
-0.269,0.004,0.997,-8.362,2.686,9.399
-0.277,0.0,1.001,-7.812,1.282,8.606
-0.275,-0.01,1.001,-7.202,0.732,7.446
-0.271,-0.015,1.005,-6.47,1.099,6.226
-0.26,-0.008,1.006,-6.592,2.136,4.761
-0.246,-0.012,1.01,-6.287,3.479,3.662
-0.231,-0.028,1.016,-5.798,4.822,3.662
-0.211,-0.03,1.025,-6.409,5.92,4.456
-0.207,-0.036,1.028,-7.141,6.592,5.249
-0.208,-0.035,1.022,-8.789,7.08,6.531
-0.208,-0.035,1.028,-10.986,7.568,8.118
-0.207,-0.038,1.025,-13.0,8.057,9.583
-0.204,-0.049,1.032,-14.893,8.667,10.986
-0.198,-0.073,1.045,-16.113,9.583,11.78
-0.194,-0.115,1.065,-16.418,9.949,12.207
-0.198,-0.174,1.072,-15.869,10.071,12.634
-0.219,-0.204,1.072,-16.479,10.925,11.658
-0.227,-0.204,1.064,-18.494,13.489,8.85
-0.224,-0.19,1.044,-21.667,17.334,5.371
-0.2,-0.155,1.032,-26.184,21.912,2.747
-0.179,-0.145,1.02,-31.311,25.879,3.052
-0.152,-0.151,1.017,-36.499,29.114,6.104
-0.13,-0.181,1.015,-41.87,31.311,9.46
0.615,1.342,0.675,-12.573,25.635,26.123
0.674,1.433,0.621,-14.221,36.255,28.198
0.765,1.516,0.594,-16.174,48.34,33.447
0.889,1.583,0.586,-17.578,61.035,40.894
1.021,1.621,0.56,-18.86,72.327,51.453
1.14,1.684,0.534,-22.339,80.261,65.369
1.224,1.8,0.488,-24.231,84.229,80.261
1.286,1.923,0.433,-20.081,86.06,92.773
1.326,2.034,0.345,-9.583,87.646,100.159
1.4,2.109,0.28,5.005,90.454,104.919
1.552,2.118,0.246,19.531,91.797,109.619
1.697,2.134,0.224,31.982,86.67,114.258
1.829,2.191,0.208,43.213,73.853,118.042
1.982,2.208,0.2,55.725,55.359,121.521
2.121,2.117,0.189,69.58,31.25,123.413
2.223,1.911,0.174,85.266,1.282,120.361
2.317,1.637,0.147,100.769,-34.058,111.145
2.385,1.285,0.092,115.723,-72.327,97.168
2.346,0.96,0.081,130.92,-107.544,80.261
2.176,0.698,0.104,147.522,-137.512,66.772
1.857,0.471,0.095,164.429,-162.354,63.049
1.511,0.354,-0.018,169.739,-182.922,74.646
1.283,0.519,-0.111,152.527,-195.923,102.722
1.022,0.563,-0.069,124.512,-198.547,147.217
0.655,0.248,-0.114,94.604,-198.242,210.327
0.268,-0.104,-0.136,61.035,-188.171,274.78
-0.147,-0.284,-0.091,27.466,-163.94,316.345
-0.527,-0.391,-0.029,1.038,-131.836,327.82
-0.846,-0.583,-0.046,-18.494,-95.154,316.04
-1.109,-0.827,-0.009,-32.043,-54.565,285.339
-1.154,-1.002,0.082,-40.71,-18.372,236.572
-0.974,-1.109,0.206,-40.344,2.014,183.655
-0.817,-1.174,0.338,-33.508,0.549,140.991
-0.688,-1.283,0.458,-21.729,-18.555,118.469
-0.604,-1.406,0.533,-4.639,-48.34,115.54
-0.585,-1.477,0.614,20.142,-79.407,122.07
-0.658,-1.581,0.714,55.237,-101.074,131.531
-0.742,-1.75,0.854,99.976,-108.398,134.155
-0.786,-1.838,0.915,144.226,-101.563,115.356
-0.846,-1.791,0.89,178.772,-79.651,77.026
-0.837,-1.704,0.907,195.679,-40.283,35.278
-0.671,-1.646,0.97,191.223,8.545,3.296
-0.396,-1.482,1.029,162.72,56.152,-13.977
-0.134,-1.247,1.098,117.004,92.468,-17.09
0.08,-1.056,1.166,65.796,109.07,-8.972
0.24,-0.858,1.224,19.592,105.591,0.916
0.312,-0.64,1.259,-13.0,86.731,10.559
0.319,-0.467,1.284,-28.442,55.298,20.996
0.246,-0.362,1.234,-30.945,15.93,32.471
0.092,-0.303,1.142,-27.222,-22.888,41.687
-0.084,-0.242,1.046,-21.79,-53.528,47.485
-0.244,-0.208,0.979,-16.357,-73.486,50.964
-0.348,-0.171,0.945,-15.137,-83.435,53.162
-0.422,-0.144,0.917,-17.395,-87.341,52.124
-0.517,-0.146,0.871,-19.958,-86.853,47.485
-0.62,-0.132,0.832,-22.156,-79.468,39.551
-0.688,-0.081,0.813,-22.705,-64.514,28.259
-0.698,-0.021,0.795,-21.484,-44.006,15.32
-0.641,0.02,0.766,-18.738,-20.264,2.075
-0.557,0.058,0.761,-15.076,3.174,-9.399
-0.463,0.078,0.765,-11.292,23.376,-17.822
-0.399,0.106,0.75,-7.568,39.063,-21.484
-0.331,-0.062,0.638,-4.517,52.612,-21.912
-0.36,0.244,0.861,-3.357,69.214,-28.564
-0.103,0.328,0.993,4.517,68.97,-19.348
-0.075,-0.172,0.491,19.348,61.829,-10.376
-0.146,0.447,1.29,15.564,69.214,-17.456
-0.079,0.077,0.987,37.964,24.78,-1.587
-0.12,0.054,1.032,44.373,5.127,-1.465
-0.235,0.166,1.099,44.678,-10.193,-2.502
-0.281,-0.006,1.037,46.387,-26.733,4.822
-0.38,-0.005,1.066,41.26,-31.433,6.531
-0.439,-0.006,1.071,34.18,-28.992,7.568
-0.478,-0.062,1.056,27.405,-20.813,6.042
-0.544,-0.031,1.067,20.386,-6.531,0.122
-0.545,-0.005,1.08,14.099,11.841,-4.211
-0.494,-0.034,1.062,9.033,30.701,-6.958
-0.453,-0.024,1.045,2.991,48.645,-11.108
-0.389,0.001,1.029,-3.174,64.026,-15.015
-0.314,0.014,1.022,-7.568,74.097,-16.724
-0.243,0.007,1.018,-9.583,78.064,-17.151
-0.181,0.006,1.03,-10.62,77.148,-15.93
-0.149,0.014,1.042,-9.949,71.228,-13.245
-0.151,0.011,1.029,-7.874,62.378,-9.644
-0.166,0.005,1.015,-5.493,54.565,-6.47
-0.174,-0.001,1.009,-3.296,49.805,-3.784
-0.17,-0.025,1.016,-1.038,47.668,-0.977
-0.172,-0.062,1.007,0.671,47.424,1.648
-0.157,-0.093,0.998,0.61,49.316,2.808
-0.117,-0.113,1.001,-0.732,52.795,3.296
-0.087,-0.118,1.011,-3.052,56.152,4.211
-0.065,-0.097,1.021,-5.981,58.228,7.019
-0.049,-0.087,1.038,-9.277,58.472,11.169
-0.025,-0.105,1.054,-12.573,57.19,15.686
-0.008,-0.126,1.069,-14.893,53.345,18.677
0.009,-0.131,1.077,-17.09,47.974,19.226
0.037,-0.139,1.077,-19.714,41.382,19.043
0.026,-0.155,1.062,-22.156,32.776,19.348
-0.005,-0.16,1.037,-25.513,24.597,21.24
-0.036,-0.156,1.013,-28.076,18.494,23.621
-0.067,-0.154,0.998,-28.503,14.832,24.048
-0.086,-0.138,0.969,-26.55,14.648,21.545
-0.092,-0.112,0.952,-23.682,18.372,17.944
-0.062,-0.092,0.953,-19.775,23.621,14.954
-0.012,-0.058,0.958,-15.381,28.381,12.939
0.037,-0.046,0.968,-11.841,31.128,12.512
0.073,-0.064,0.956,-10.071,30.151,15.015
0.081,-0.074,0.935,-10.742,26.001,18.494
0.079,-0.052,0.93,-12.939,20.935,20.386
0.064,-0.026,0.925,-15.32,15.076,21.179
0.076,-0.047,0.928,-16.541,8.545,22.827
0.066,-0.079,0.911,-16.296,1.587,22.888
0.001,-0.023,0.907,-15.869,-3.784,20.142
-0.029,0.008,0.898,-14.648,-7.019,19.775
-0.013,0.054,0.895,-13.123,-9.155,20.386
-0.01,0.127,0.87,-11.047,-10.498,19.043
-0.052,0.127,0.816,-9.766,-10.437,17.029
-0.101,0.127,0.793,-10.437,-6.348,14.099
-0.095,0.159,0.813,-11.597,-0.488,9.888
0.718,1.472,0.605,-6.653,48.584,32.288
0.868,1.516,0.641,-10.742,57.373,41.321
1.001,1.529,0.688,-13.0,62.5,55.847
1.095,1.538,0.727,-14.465,62.439,76.355
1.125,1.548,0.755,-13.306,57.312,100.525
1.099,1.498,0.771,-9.338,49.5,125.793
1.044,1.414,0.763,-5.615,41.199,151.306
0.974,1.334,0.744,-5.737,33.569,174.5
0.868,1.277,0.716,-9.827,27.771,191.711
0.767,1.241,0.68,-15.747,24.597,201.599
0.704,1.203,0.634,-21.179,24.719,204.346
0.627,1.154,0.544,-24.78,27.71,200.806
0.546,1.156,0.496,-26.367,34.485,190.918
0.543,1.184,0.47,-25.574,44.678,182.312
0.6,1.155,0.435,-22.4,54.199,183.044
0.668,1.259,0.452,-18.127,61.34,187.5
0.76,1.373,0.498,-11.047,63.171,195.435
0.806,1.413,0.468,0.549,55.786,206.116
0.743,1.505,0.424,9.644,44.312,214.294
0.636,1.54,0.388,14.587,32.532,220.337
0.491,1.513,0.327,16.113,22.461,221.924
0.348,1.493,0.235,14.954,16.541,216.064
0.236,1.444,0.158,11.353,16.724,203.308
0.174,1.363,0.062,7.019,22.827,185.12
0.17,1.295,-0.017,3.296,36.194,163.391
0.264,1.188,-0.047,0.977,53.467,142.09
0.414,1.043,-0.04,-0.305,66.162,125.427
0.525,0.892,-0.016,0.916,66.528,112.427
0.559,0.808,0.007,6.042,55.786,101.135
0.51,0.745,0.013,17.09,39.246,92.773
0.451,0.676,0.013,33.569,20.386,90.637
0.383,0.554,0.027,54.565,0.671,93.323
0.291,0.391,0.058,78.735,-19.592,98.755
0.204,0.182,0.126,104.98,-41.016,103.943
0.132,-0.051,0.217,132.69,-63.232,107.056
0.073,-0.304,0.313,160.645,-85.815,106.689
0.037,-0.598,0.439,185.242,-107.3,102.234
-0.04,-0.939,0.559,201.538,-127.563,95.581
-0.095,-1.254,0.698,207.52,-142.883,85.815
-0.132,-1.476,0.837,208.679,-151.489,68.909
-0.183,-1.611,0.953,210.144,-152.893,46.875
-0.219,-1.664,1.084,212.036,-147.949,29.053
-0.247,-1.646,1.204,214.478,-139.404,20.63
-0.291,-1.621,1.29,219.604,-128.296,18.066
-0.365,-1.562,1.344,225.281,-111.633,18.311
-0.445,-1.488,1.392,229.492,-86.853,19.775
-0.486,-1.463,1.441,230.469,-54.199,19.287
-0.451,-1.5,1.48,222.107,-17.456,10.559
-0.323,-1.502,1.446,195.435,17.639,-12.512
-0.181,-1.421,1.324,149.597,48.157,-49.133
-0.06,-1.218,1.195,92.468,75.256,-83.13
0.058,-0.991,1.09,35.522,97.595,-101.44
0.208,-0.745,1.003,-9.949,113.953,-102.356
0.347,-0.488,0.967,-38.879,121.46,-89.905
0.435,-0.263,0.958,-50.476,116.089,-68.237
0.467,-0.122,0.965,-47.058,96.68,-40.344
0.415,-0.061,0.965,-34.485,65.735,-9.888
0.298,-0.06,0.983,-18.311,27.893,20.142
0.098,-0.118,0.984,-3.906,-12.146,47.302
-0.135,-0.198,0.953,4.211,-50.415,68.054
-0.372,-0.268,0.922,5.859,-80.322,77.454
-0.574,-0.32,0.888,1.587,-97.961,76.233
-0.723,-0.33,0.843,-7.568,-103.088,68.298
-0.838,-0.311,0.771,-19.775,-97.351,56.091
-0.942,-0.291,0.66,-33.447,-79.285,39.795
-1.005,-0.04,0.739,-46.387,-48.096,20.874
-0.834,-0.015,0.673,-48.218,-19.775,11.597
-0.751,-0.015,0.651,-44.617,7.202,-0.488
-0.658,0.104,0.699,-41.443,34.424,-12.207
-0.509,0.156,0.751,-33.936,51.27,-16.663
-0.367,0.118,0.781,-22.827,57.373,-18.188
-0.298,0.089,0.781,-12.756,59.143,-22.156
-0.198,0.18,0.958,-7.446,55.664,-20.935
-0.138,0.097,0.964,2.014,32.288,-13.733
-0.144,0.057,0.975,7.446,12.756,-8.728
-0.159,0.027,0.945,10.376,-6.165,-5.676
-0.257,0.085,0.978,12.146,-17.578,-4.578
-0.288,0.047,0.968,13.611,-23.926,-0.977
-0.333,0.035,0.982,15.747,-23.315,0.793
-0.35,0.033,0.976,16.907,-18.616,1.587
-0.36,0.013,0.993,16.052,-11.353,2.441
-0.365,-0.01,1.013,14.465,-3.296,1.709
-0.358,-0.012,1.041,11.902,4.7,-1.343
-0.327,-0.014,1.055,8.728,10.437,-3.662
-0.288,-0.034,1.048,4.944,13.672,-5.005
-0.267,-0.022,1.048,-0.488,15.198,-5.554
-0.251,0.001,1.059,-4.883,14.832,-5.066
-0.229,-0.012,1.036,-7.507,12.939,-3.113
-0.222,-0.005,1.032,-10.254,11.536,-1.587
-0.214,0.009,1.037,-11.719,10.193,0.244
-0.211,0.007,1.044,-12.024,8.24,2.075
-0.21,-0.002,1.032,-11.902,6.836,3.662
-0.221,-0.018,1.024,-11.902,7.324,4.822
-0.24,-0.03,1.021,-11.78,9.766,5.676
-0.266,-0.042,1.014,-10.803,13.916,5.981
-0.279,-0.059,1.001,-9.033,20.142,5.005
-0.291,-0.085,0.99,-6.348,28.748,2.93
-0.293,-0.102,0.981,-2.625,39.001,-0.427
-0.295,-0.116,0.965,2.563,50.11,-4.578
-0.289,-0.131,0.933,7.935,62.317,-9.644
-0.255,-0.14,0.917,12.756,75.073,-14.221
-0.208,-0.166,0.909,18.188,87.463,-17.09
-0.136,-0.203,0.921,22.949,98.022,-17.822
-0.032,-0.242,0.955,25.269,104.98,-15.747
0.043,-0.287,0.982,24.231,106.567,-9.46
0.087,-0.346,0.998,19.897,103.027,-0.244
0.104,-0.398,1.0,11.719,97.412,11.536
0.094,-0.422,0.979,0.061,91.064,24.414
0.079,-0.397,0.962,-14.648,86.548,34.912
0.065,-0.375,0.962,-28.992,84.106,41.199
0.054,-0.376,0.962,-40.833,82.153,44.312
0.083,-0.392,0.966,-50.232,79.59,45.715
0.105,-0.377,0.943,-58.228,73.73,45.41
0.106,-0.309,0.923,-64.514,66.223,42.175
0.104,-0.265,0.905,-68.115,58.533,39.185
0.074,-0.22,0.871,-68.176,49.438,37.231
0.021,-0.115,0.866,-65.43,41.504,34.607
-0.017,-0.083,0.858,-59.692,35.095,34.058
-0.015,-0.088,0.849,-52.856,29.663,35.583
1.101,1.324,0.181,-16.846,69.58,50.476
1.117,1.364,0.099,-10.315,65.674,63.416
1.139,1.413,0.062,-4.578,67.017,74.402
1.212,1.411,0.031,0.977,71.228,87.036
1.321,1.411,0.036,4.883,74.89,101.746
1.387,1.425,0.022,6.714,73.975,119.324
1.353,1.462,-0.033,8.667,71.106,139.038
1.294,1.511,-0.094,13.306,71.411,158.386
1.243,1.565,-0.14,21.973,76.477,174.011
1.185,1.588,-0.211,36.072,85.571,183.167
1.174,1.556,-0.243,53.955,98.694,186.279
1.238,1.467,-0.208,73.12,114.136,187.744
1.357,1.343,-0.146,89.417,126.648,193.298
1.492,1.237,-0.083,101.868,132.141,203.979
1.57,1.173,-0.038,110.291,127.319,218.079
1.603,1.098,-0.01,116.455,113.647,234.192
1.589,1.032,-0.008,122.192,94.604,249.268
1.536,1.009,-0.006,125.671,76.355,263.855
1.49,1.021,0.001,126.038,60.913,278.503
1.431,1.079,0.004,126.099,48.035,286.804
1.366,1.126,0.012,127.747,37.781,285.034
1.29,1.167,0.01,129.456,31.921,281.677
1.203,1.234,-0.017,129.395,27.954,278.87
1.1,1.281,-0.072,124.939,24.597,272.705
0.984,1.226,-0.139,117.126,22.522,263.611
0.895,1.051,-0.179,110.962,21.79,250.549
0.832,0.938,-0.197,107.3,23.193,232.361
0.852,0.877,-0.172,105.896,23.804,213.501
0.898,0.778,-0.145,111.45,15.137,196.106
0.887,0.69,-0.113,124.695,-5.737,177.673
0.837,0.61,-0.084,144.897,-35.645,159.424
0.757,0.552,-0.068,170.532,-70.374,143.188
0.619,0.459,-0.064,198.608,-106.384,128.784
0.463,0.321,-0.063,225.952,-139.587,116.089
0.312,0.149,-0.047,250.183,-166.931,103.333
0.171,0.012,-0.013,271.057,-187.927,90.82
0.058,-0.106,0.041,287.415,-203.125,79.041
-0.039,-0.281,0.088,298.706,-216.37,68.054
-0.135,-0.493,0.111,303.528,-226.379,56.824
-0.228,-0.641,0.146,298.462,-230.713,45.837
-0.322,-0.76,0.2,285.034,-229.553,34.546
-0.382,-0.883,0.256,266.663,-222.473,23.071
-0.408,-0.992,0.317,243.835,-208.74,13.794
-0.431,-1.026,0.39,216.736,-191.895,7.935
-0.42,-1.046,0.472,189.575,-174.133,3.906
-0.366,-1.079,0.556,165.344,-156.616,2.441
-0.323,-1.086,0.651,143.25,-142.639,4.761
-0.32,-1.072,0.739,124.023,-133.667,10.315
-0.361,-1.056,0.8,110.474,-127.319,15.503
-0.425,-1.056,0.839,102.661,-119.263,16.357
-0.497,-1.056,0.872,98.45,-105.896,12.085
-0.541,-1.052,0.886,93.75,-86.609,3.662
-0.553,-1.05,0.886,88.196,-62.378,-6.897
-0.525,-1.056,0.878,79.529,-35.645,-18.555
-0.457,-1.031,0.86,66.528,-10.376,-29.419
-0.371,-0.941,0.852,49.683,10.742,-36.865
-0.305,-0.8,0.848,31.128,26.306,-38.391
-0.242,-0.679,0.851,14.771,35.461,-33.875
-0.215,-0.585,0.849,3.479,38.086,-25.635
-0.208,-0.508,0.844,-3.052,35.4,-16.663
-0.245,-0.455,0.836,-5.676,29.175,-9.644
-0.311,-0.419,0.828,-5.615,22.522,-5.127
-0.378,-0.396,0.817,-4.089,17.883,-3.174
-0.443,-0.386,0.81,-1.526,16.296,-2.625
-0.505,-0.368,0.809,0.244,17.639,-2.136
-0.54,-0.348,0.812,0.0,21.545,-0.61
-0.559,-0.327,0.809,-2.808,27.222,1.16
-0.591,-0.311,0.788,-7.019,34.18,0.977
-0.55,-0.253,0.785,-13.672,43.274,-0.122
-0.519,-0.264,0.81,-18.433,50.72,-1.953
-0.453,-0.196,0.775,-20.813,51.819,-8.24
-0.406,-0.222,0.737,-25.024,55.664,-11.108
-0.364,-0.159,0.8,-26.55,60.547,-15.381
-0.295,-0.006,0.92,-24.231,54.321,-15.442
-0.076,-0.1,0.831,-18.738,39.246,-6.714
-0.166,-0.201,0.743,-10.986,25.757,-7.019
-0.264,0.102,1.028,-13.489,18.982,-9.094
-0.146,-0.147,0.846,-1.831,-0.977,3.54
-0.261,-0.121,0.957,3.235,-8.85,8.301
-0.292,-0.137,0.957,4.517,-13.55,13.428
-0.366,-0.173,0.984,4.517,-14.526,18.86
-0.444,-0.165,1.004,2.014,-10.62,19.348
-0.469,-0.193,1.002,-0.916,-3.784,17.7
-0.494,-0.21,1.002,-5.493,6.531,13.855
-0.495,-0.204,1.015,-10.803,19.348,8.85
-0.462,-0.212,1.014,-15.137,31.555,5.188
-0.415,-0.221,1.01,-19.592,42.297,2.38
-0.365,-0.212,1.0,-23.56,50.537,-0.122
-0.319,-0.19,0.981,-27.283,56.152,-2.258
-0.271,-0.178,0.971,-30.212,59.021,-2.93
-0.213,-0.166,0.971,-31.921,58.411,-2.197
-0.173,-0.164,0.977,-31.921,55.054,-1.099
-0.146,-0.161,0.969,-31.006,49.377,-0.61
-0.126,-0.163,0.977,-29.419,42.786,-0.916
-0.112,-0.186,0.983,-27.161,35.339,-0.549
-0.107,-0.198,0.981,-24.902,27.893,0.0
-0.121,-0.201,0.968,-23.132,20.63,-0.427
-0.147,-0.228,0.951,-21.729,14.526,-1.038
-0.196,-0.264,0.924,-20.874,10.376,-1.343
-0.259,-0.257,0.88,-20.691,9.277,-2.319
-0.301,-0.21,0.835,-22.766,12.817,-4.272
-0.299,-0.175,0.801,-25.452,20.813,-8.118
-0.281,-0.143,0.773,-27.405,30.762,-13.123
-0.259,-0.115,0.765,-28.259,41.931,-18.433
-0.196,-0.116,0.775,-26.855,51.514,-22.4
-0.105,-0.144,0.795,-23.56,57.068,-24.536
-0.042,-0.167,0.808,-19.592,56.274,-25.146
-0.005,-0.155,0.825,-16.907,49.622,-24.353
0.006,-0.142,0.827,-15.442,39.673,-21.362
-0.029,-0.122,0.801,-15.93,29.419,-17.09
-0.082,-0.069,0.777,-17.7,22.888,-14.221
-0.123,-0.017,0.752,-18.86,21.545,-14.648
-0.159,0.006,0.727,-19.653,24.963,-18.433
-0.184,0.017,0.705,-20.752,31.494,-23.437
-0.183,0.042,0.685,-22.217,39.49,-27.893
-0.129,0.133,0.698,-24.414,46.753,-30.64
-0.049,0.243,0.731,-25.146,48.828,-32.654
0.025,0.28,0.76,-23.682,42.297,-34.363
0.117,0.287,0.793,-22.278,27.832,-36.072
1.034,1.206,0.522,-5.371,71.838,99.426
1.161,1.254,0.544,-6.531,86.792,108.643
1.303,1.321,0.581,-8.667,94.177,121.277
1.348,1.372,0.598,-10.132,91.736,134.277
1.343,1.381,0.567,-10.803,84.839,148.804
1.273,1.404,0.507,-12.024,78.247,164.673
1.188,1.439,0.45,-13.0,75.195,178.162
1.137,1.453,0.396,-13.0,77.698,188.171
1.124,1.466,0.359,-12.207,85.815,193.726
1.149,1.507,0.333,-10.498,95.52,197.205
1.194,1.538,0.315,-7.385,102.844,199.646
1.234,1.544,0.279,-2.258,107.971,201.965
1.267,1.565,0.247,3.845,112.0,204.59
1.309,1.59,0.22,12.329,114.746,207.092
1.376,1.632,0.22,23.437,115.662,209.534
1.453,1.666,0.221,36.316,111.389,216.064
1.523,1.681,0.211,48.462,97.412,226.807
1.589,1.641,0.216,59.021,74.707,238.22
1.629,1.548,0.195,69.336,43.945,247.253
1.637,1.442,0.173,79.529,8.423,250.0
1.544,1.338,0.096,91.187,-29.358,244.324
1.375,1.192,-0.006,102.417,-65.125,233.765
1.172,1.031,-0.084,111.023,-93.079,223.694
0.944,0.842,-0.155,117.798,-110.84,216.309
0.731,0.627,-0.198,122.803,-116.943,211.731
0.563,0.404,-0.218,123.108,-109.558,212.402
0.397,0.18,-0.213,114.624,-90.759,223.022
0.286,0.032,-0.166,96.558,-66.833,239.563
0.162,0.004,-0.133,77.087,-43.152,249.451
0.027,0.043,-0.103,62.5,-21.912,249.695
-0.09,0.061,-0.057,55.237,-5.798,242.126
-0.187,0.036,0.011,55.969,3.113,226.135
-0.227,-0.003,0.083,64.758,2.38,200.256
-0.232,-0.071,0.167,78.735,-9.094,165.1
-0.23,-0.207,0.242,96.619,-30.701,125.671
-0.22,-0.355,0.307,115.967,-57.8,87.463
-0.24,-0.492,0.377,135.437,-85.144,53.528
-0.283,-0.638,0.455,152.344,-105.591,28.015
-0.267,-0.836,0.544,164.49,-114.685,13.794
-0.238,-1.042,0.629,168.335,-113.342,12.451
-0.204,-1.16,0.738,162.109,-101.685,21.973
-0.145,-1.201,0.827,152.283,-84.534,33.813
-0.108,-1.207,0.866,145.02,-64.941,38.391
-0.131,-1.161,0.91,141.357,-43.64,32.959
-0.157,-1.118,0.958,142.456,-20.752,18.799
-0.101,-1.145,1.017,145.264,1.404,-1.77
-0.034,-1.189,1.025,144.287,19.47,-30.457
0.018,-1.138,1.05,135.01,32.227,-63.293
0.08,-1.027,1.085,117.798,39.368,-89.722
0.142,-0.917,1.109,98.328,41.26,-104.919
0.232,-0.792,1.141,79.712,39.368,-109.192
0.312,-0.652,1.14,63.965,32.593,-103.271
0.356,-0.515,1.109,50.415,21.057,-90.454
0.355,-0.395,1.073,39.246,7.385,-74.524
0.312,-0.292,1.043,31.189,-5.432,-57.922
0.253,-0.202,1.028,27.344,-16.541,-41.931
0.165,-0.14,1.014,26.917,-26.001,-27.161
0.049,-0.118,1.0,28.931,-32.349,-14.221
-0.079,-0.129,0.999,32.471,-34.302,-4.333
-0.2,-0.156,0.985,35.645,-31.616,1.709
-0.303,-0.195,0.96,35.645,-24.475,4.333
-0.371,-0.219,0.932,31.921,-13.489,3.357
-0.384,-0.229,0.902,24.414,-0.671,0.488
-0.348,-0.228,0.855,14.526,12.939,-3.357
-0.401,-0.178,0.77,4.15,28.931,-10.071
-0.252,0.22,1.173,-4.333,42.542,-11.841
-0.125,-0.123,0.955,3.845,19.897,-1.892
-0.141,-0.122,0.869,4.578,5.981,-5.371
-0.249,0.164,1.024,-0.305,-0.793,-12.573
-0.135,-0.024,0.893,4.7,-18.188,-4.883
-0.209,-0.058,0.924,6.897,-24.719,-3.662
-0.22,0.11,0.946,8.667,-24.902,-5.249
-0.187,0.012,0.979,15.747,-27.466,0.427
-0.172,0.032,1.044,17.944,-25.208,4.333
-0.174,-0.005,1.061,20.447,-23.926,9.277
-0.204,-0.027,1.107,19.714,-18.982,12.329
-0.25,-0.042,1.137,16.907,-11.353,12.817
-0.28,-0.053,1.153,12.573,-2.197,11.963
-0.297,-0.051,1.167,5.798,8.606,11.353
-0.289,-0.046,1.178,-1.099,19.409,10.132
-0.273,-0.039,1.167,-6.714,27.893,7.69
-0.266,-0.025,1.145,-11.78,34.668,4.211
-0.256,-0.007,1.116,-15.869,40.527,0.549
-0.239,0.011,1.101,-18.066,45.593,-2.625
-0.204,0.015,1.095,-18.555,49.988,-4.395
-0.147,-0.002,1.091,-17.7,52.734,-4.15
-0.086,-0.018,1.093,-17.639,53.345,-2.93
-0.042,-0.039,1.093,-18.738,51.575,-0.793
-0.017,-0.059,1.095,-20.569,48.462,2.93
-0.023,-0.067,1.071,-23.804,45.776,7.69
-0.02,-0.046,1.042,-29.053,44.739,12.39
0.003,-0.019,1.036,-35.034,44.922,16.602
0.042,-0.009,1.048,-40.344,44.067,20.142
0.081,-0.004,1.063,-43.457,40.039,22.705
0.107,0.002,1.073,-44.128,31.677,24.475
0.12,-0.007,1.072,-42.664,20.02,26.184
0.106,-0.018,1.061,-38.879,6.958,27.832
0.065,-0.011,1.047,-34.668,-5.554,28.748
0.019,-0.033,1.024,-30.334,-15.137,30.334
-0.045,-0.061,1.001,-27.893,-20.874,31.677
-0.11,-0.063,0.969,-27.466,-21.24,31.372
-0.154,-0.054,0.951,-29.114,-15.93,28.992
-0.188,-0.061,0.929,-31.494,-6.287,25.269
-0.198,-0.055,0.927,-33.936,5.859,21.606
-0.168,-0.012,0.926,-37.537,18.005,19.592
-0.141,0.012,0.924,-41.321,27.161,19.409
-0.117,0.027,0.92,-44.373,32.41,20.63
-0.089,0.035,0.92,-46.204,33.936,21.851
-0.074,0.014,0.917,-45.654,33.081,21.79
-0.074,-0.017,0.895,-44.434,30.334,20.02
-0.081,0.015,0.877,-43.274,27.405,15.625
-0.067,0.083,0.854,-42.358,24.719,10.193
-0.059,0.136,0.831,-40.283,21.484,5.31
-0.051,0.183,0.81,-37.17,18.555,2.319
-0.031,0.217,0.794,-33.203,15.198,0.183
-0.009,0.225,0.785,-29.48,10.742,-1.587
0.002,0.2,0.774,-26.917,4.578,-2.197
0.023,0.177,0.761,-26.489,-1.831,-1.526
0.024,0.176,0.751,-28.015,-8.301,-1.221
0.616,1.598,0.505,-46.204,68.787,42.053
0.644,1.701,0.471,-51.086,67.322,52.307
0.639,1.752,0.427,-52.795,66.406,64.331
0.628,1.778,0.391,-51.575,67.383,78.613
0.61,1.784,0.383,-48.767,70.374,94.055
0.58,1.756,0.371,-43.091,74.097,109.497
0.557,1.683,0.378,-36.255,78.491,124.451
0.533,1.575,0.372,-31.006,83.191,138.489
0.528,1.486,0.377,-29.907,88.196,151.55
0.523,1.416,0.431,-31.677,92.407,160.828
0.516,1.3,0.494,-34.79,96.497,167.175
0.536,1.18,0.509,-40.894,101.318,174.683
0.552,1.165,0.511,-52.002,106.14,181.763
0.53,1.165,0.47,-62.439,109.436,186.707
0.511,1.19,0.383,-67.993,112.0,187.927
0.467,1.307,0.271,-68.115,113.953,185.364
0.444,1.449,0.203,-60.669,114.99,178.894
0.467,1.526,0.16,-41.992,114.258,170.349
0.517,1.57,0.163,-16.479,110.229,161.255
0.6,1.616,0.208,11.536,101.807,154.785
0.682,1.608,0.284,41.321,87.463,151.733
0.719,1.49,0.372,69.153,67.505,152.527
0.714,1.383,0.451,87.219,46.021,159.119
0.683,1.239,0.527,93.75,25.208,168.152
0.59,1.054,0.539,90.759,5.432,175.232
0.436,0.914,0.486,77.148,-8.362,177.917
0.24,0.862,0.402,53.955,-11.414,175.171
0.021,0.895,0.301,28.442,-0.916,166.382
-0.131,0.884,0.228,8.667,25.574,153.992
-0.067,0.857,0.209,-2.808,63.843,143.127
0.16,0.872,0.277,-10.437,96.619,136.719
0.337,0.862,0.33,-13.489,104.98,131.775
0.435,0.806,0.372,-10.193,88.562,128.174
0.486,0.717,0.44,-1.221,54.199,126.465
0.444,0.62,0.469,13.062,6.042,126.16
0.314,0.543,0.463,30.396,-49.194,127.319
0.101,0.451,0.41,45.776,-101.501,131.653
-0.095,0.278,0.351,56.335,-141.724,139.038
-0.309,0.09,0.302,62.012,-168.091,141.907
-0.533,-0.088,0.285,62.622,-179.321,134.521
-0.734,-0.224,0.298,62.195,-171.082,116.943
-0.825,-0.345,0.348,62.927,-142.944,93.811
-0.807,-0.444,0.419,65.491,-104.065,69.458
-0.715,-0.492,0.498,70.068,-64.819,44.983
-0.556,-0.527,0.599,78.857,-32.227,20.386
-0.406,-0.576,0.693,91.614,-10.01,-2.136
-0.248,-0.63,0.809,104.675,0.61,-17.578
-0.127,-0.681,0.912,115.723,-0.122,-25.208
-0.076,-0.745,0.995,124.146,-9.46,-27.283
-0.1,-0.802,1.033,128.479,-22.095,-25.94
-0.142,-0.83,1.05,128.052,-31.86,-22.339
-0.194,-0.832,1.044,122.864,-35.95,-21.057
-0.259,-0.792,1.008,116.455,-32.593,-26.367
-0.31,-0.711,0.975,109.07,-20.447,-36.499
-0.311,-0.623,0.952,101.257,-1.648,-47.18
-0.267,-0.536,0.932,94.543,19.897,-56.458
-0.193,-0.449,0.929,88.806,40.588,-62.866
-0.127,-0.356,0.954,82.581,55.786,-64.575
-0.06,-0.285,0.996,77.026,62.561,-61.584
-0.001,-0.224,1.027,71.655,59.998,-54.871
0.005,-0.167,1.055,65.125,48.279,-46.387
-0.034,-0.107,1.054,58.105,30.09,-36.011
-0.124,-0.056,1.024,50.842,10.559,-24.719
-0.23,-0.002,1.012,43.762,-4.639,-14.221
-0.262,0.029,1.024,40.039,-15.015,-5.615
-0.28,-0.038,0.948,39.185,-23.376,-0.793
-0.397,-0.013,0.936,34.79,-26.245,-1.77
-0.469,-0.024,0.862,28.259,-24.109,-3.052
-0.56,-0.105,0.72,25.024,-15.076,-5.615
-0.608,-0.008,0.733,16.846,4.883,-14.709
-0.549,0.03,0.699,12.268,25.818,-20.142
-0.452,0.064,0.723,8.728,43.701,-21.729
-0.369,0.12,0.763,6.226,54.077,-21.179
-0.275,0.111,0.766,6.531,54.565,-17.944
-0.243,0.128,0.776,6.653,48.462,-14.771
-0.216,0.266,0.884,7.263,39.429,-11.23
-0.199,0.237,0.847,12.634,22.705,-4.028
-0.221,0.252,0.846,18.677,6.348,0.977
-0.262,0.245,0.854,23.682,-6.653,5.127
-0.322,0.247,0.884,26.917,-14.465,9.521
-0.364,0.235,0.91,28.076,-17.456,14.282
-0.389,0.215,0.939,28.381,-17.639,17.273
-0.419,0.194,0.967,27.466,-15.93,18.005
-0.443,0.169,0.983,24.292,-12.39,17.029
-0.468,0.163,1.002,19.287,-7.324,14.16
-0.481,0.164,1.005,14.16,-0.916,10.315
-0.479,0.166,0.996,9.094,7.324,6.47
-0.454,0.197,1.0,3.967,16.907,2.441
-0.403,0.225,1.015,0.244,25.33,-0.061
-0.338,0.23,1.033,-1.221,30.212,-0.854
-0.289,0.235,1.055,-1.648,31.189,-1.404
-0.259,0.223,1.064,-0.61,28.442,-0.488
-0.245,0.2,1.073,-0.061,23.865,2.38
-0.239,0.182,1.068,-0.061,19.287,6.226
-0.25,0.179,1.051,-1.953,15.076,10.681
-0.272,0.176,1.027,-5.676,12.146,14.832
-0.294,0.172,1.006,-10.01,10.193,17.639
-0.31,0.177,0.994,-13.855,9.46,18.86
-0.322,0.182,0.982,-17.273,9.521,19.104
-0.335,0.187,0.963,-19.531,10.01,18.799
-0.344,0.195,0.945,-20.691,11.475,18.188
-0.335,0.206,0.939,-21.79,13.733,18.066
-0.306,0.217,0.941,-22.583,15.137,18.677
-0.29,0.232,0.931,-22.766,13.794,19.165
-0.287,0.254,0.923,-23.437,10.62,19.714
-0.283,0.271,0.917,-23.254,6.653,20.386
-0.29,0.283,0.912,-21.423,3.113,19.714
-0.296,0.288,0.904,-18.982,0.916,18.555
-0.304,0.289,0.896,-16.235,-0.366,17.7
-0.297,0.286,0.899,-14.099,-0.244,16.968
-0.284,0.279,0.902,-12.756,0.427,16.235
-0.286,0.275,0.893,-11.597,0.977,14.587
-0.29,0.272,0.895,-10.925,1.587,12.939
-0.294,0.26,0.903,-11.658,3.113,11.841
-0.291,0.254,0.911,-12.634,4.639,11.536
-0.289,0.256,0.906,-14.099,6.104,11.169
-0.291,0.254,0.903,-16.479,7.507,10.803
-0.291,0.249,0.892,-18.86,8.606,10.803
-0.286,0.261,0.881,-21.484,9.888,10.132
0.423,1.465,0.945,-53.955,79.224,33.447
0.519,1.643,0.854,-61.279,90.515,39.856
0.623,1.797,0.774,-68.298,101.501,46.814
0.751,1.904,0.706,-75.256,112.671,54.382
0.855,2.018,0.625,-80.322,122.009,63.416
0.936,2.113,0.558,-82.642,130.493,72.083
1.02,2.153,0.507,-82.458,140.625,83.008
1.124,2.184,0.465,-79.224,152.527,98.755
1.217,2.241,0.445,-73.547,163.757,117.676
1.301,2.267,0.479,-64.758,172.302,141.174
1.352,2.279,0.549,-50.964,174.866,169.189
1.363,2.182,0.641,-31.128,167.969,197.021
1.347,1.97,0.716,-8.85,150.085,219.849
1.318,1.752,0.795,11.047,118.958,232.727
1.304,1.515,0.844,28.809,73.547,234.375
1.256,1.289,0.827,43.64,15.137,227.783
1.147,1.082,0.705,55.603,-47.546,214.905
0.977,0.945,0.534,63.538,-103.333,199.89
0.807,0.854,0.364,66.406,-144.409,187.805
0.661,0.716,0.194,64.148,-167.358,180.298
0.536,0.604,0.049,53.04,-171.57,178.223
0.414,0.528,-0.028,31.616,-157.715,180.664
0.208,0.441,-0.13,3.784,-127.319,190.491
0.015,0.321,-0.229,-25.513,-81.116,205.261
-0.152,0.276,-0.314,-50.903,-20.63,215.942
-0.22,0.291,-0.341,-64.819,47.729,217.346
-0.181,0.357,-0.288,-62.744,111.877,212.952
-0.048,0.401,-0.156,-43.213,156.982,206.848
0.179,0.282,0.061,-9.766,170.776,202.576
0.308,0.053,0.278,30.945,143.86,192.871
0.351,-0.19,0.428,73.181,83.862,171.204
0.335,-0.436,0.509,111.023,6.409,144.104
0.169,-0.659,0.536,140.259,-74.341,118.103
-0.084,-0.874,0.52,161.072,-141.541,96.863
-0.339,-1.089,0.509,171.143,-181.396,84.167
-0.512,-1.294,0.54,169.861,-191.711,77.209
-0.634,-1.421,0.583,161.011,-175.049,71.411
-0.723,-1.463,0.641,148.193,-135.376,65.979
-0.736,-1.431,0.715,136.658,-80.566,60.12
-0.672,-1.36,0.788,131.042,-20.752,50.781
-0.561,-1.286,0.833,132.324,35.583,35.522
-0.413,-1.254,0.901,136.108,83.618,15.625
-0.232,-1.236,0.971,137.878,117.859,-9.155
-0.041,-1.188,1.023,133.972,135.437,-38.147
0.129,-1.096,1.093,123.474,136.475,-63.66
0.252,-0.973,1.135,108.093,121.704,-77.026
0.347,-0.803,1.173,91.248,94.788,-78.552
0.379,-0.658,1.169,76.721,59.814,-72.205
0.342,-0.522,1.12,64.819,22.644,-60.547
0.238,-0.395,1.069,54.932,-9.399,-46.143
0.09,-0.325,1.02,48.889,-33.142,-29.968
-0.07,-0.291,0.981,45.532,-47.668,-14.282
-0.215,-0.266,0.946,43.091,-52.612,-2.258
-0.349,-0.252,0.91,39.917,-49.561,5.615
-0.479,-0.248,0.885,36.255,-40.222,9.216
-0.578,-0.246,0.859,31.86,-25.635,8.545
-0.652,-0.236,0.83,26.733,-8.057,4.333
-0.684,-0.224,0.817,21.24,11.536,-2.625
-0.649,-0.198,0.826,15.381,31.311,-9.338
-0.527,-0.17,0.854,10.193,46.509,-14.893
-0.382,-0.145,0.855,5.92,53.162,-18.921
-0.322,-0.145,0.865,1.892,52.307,-23.987
-0.219,0.027,0.853,-4.456,49.561,-27.283
-0.296,-0.131,0.721,-0.549,46.753,-29.846
-0.236,0.08,0.88,-1.709,49.377,-41.931
-0.194,0.135,0.923,3.662,46.448,-41.26
-0.145,0.115,0.997,12.634,39.429,-34.851
-0.062,-0.06,0.969,19.714,28.32,-26.611
-0.176,0.002,0.979,21.24,20.02,-26.672
-0.132,0.094,1.128,20.081,15.381,-20.569
-0.14,-0.175,0.964,25.208,3.784,-14.16
-0.236,0.025,1.107,21.118,3.296,-22.949
-0.21,-0.031,1.018,18.738,-0.793,-21.729
-0.258,-0.052,1.013,14.16,1.282,-22.522
-0.279,0.004,1.025,9.338,8.667,-25.269
-0.256,0.041,1.001,6.592,17.029,-27.1
-0.22,0.025,0.986,4.639,27.222,-27.283
-0.192,0.077,1.006,3.845,37.109,-29.297
-0.133,0.139,1.047,5.554,43.396,-30.579
-0.059,0.094,1.045,9.399,43.762,-27.771
-0.044,0.065,1.042,12.512,40.955,-25.574
-0.044,0.091,1.081,13.794,36.926,-23.376
-0.008,0.069,1.097,14.771,29.663,-17.639
0.007,0.033,1.097,14.465,20.142,-10.864
-0.007,0.037,1.109,12.146,10.925,-5.981
-0.036,0.036,1.106,9.705,1.831,-2.747
-0.06,0.025,1.095,7.69,-5.066,-0.732
-0.084,0.006,1.07,5.981,-9.216,0.854
-0.11,0.01,1.052,4.028,-10.193,1.526
-0.135,0.024,1.041,1.953,-9.033,2.258
-0.145,0.028,1.031,0.305,-6.165,3.662
-0.15,0.028,1.028,-0.732,-2.258,4.517
-0.146,0.026,1.03,-1.526,1.709,4.944
-0.139,0.024,1.043,-1.526,5.31,5.554
-0.131,0.006,1.055,-0.671,8.301,6.165
-0.133,-0.023,1.062,0.61,11.169,6.042
-0.14,-0.038,1.063,-0.183,14.282,5.737
-0.142,-0.048,1.067,-2.563,18.066,6.592
-0.132,-0.064,1.072,-4.761,22.4,7.996
-0.121,-0.074,1.071,-6.775,26.978,8.484
-0.111,-0.078,1.073,-8.301,31.494,8.423
-0.112,-0.092,1.057,-9.094,35.645,7.812
-0.118,-0.098,1.03,-10.071,40.71,6.47
-0.113,-0.08,1.01,-11.169,47.241,4.944
-0.084,-0.094,1.001,-11.414,54.993,3.845
-0.022,-0.133,1.011,-11.047,61.707,3.845
0.052,-0.127,1.032,-12.878,64.27,6.592
0.103,-0.125,1.045,-16.663,60.242,12.39
0.125,-0.139,1.036,-22.278,51.147,19.653
0.135,-0.144,1.026,-28.625,39.856,26.001
0.151,-0.132,1.035,-35.095,28.992,31.372
0.151,-0.124,1.051,-39.917,17.456,36.316
0.119,-0.14,1.052,-42.358,5.127,39.978
0.07,-0.147,1.029,-43.091,-5.127,42.114
0.034,-0.148,1.013,-43.64,-11.23,42.542
-0.004,-0.167,0.997,-43.213,-14.709,41.321
-0.043,-0.145,0.959,-42.847,-15.137,38.513
-0.069,-0.108,0.938,-43.213,-11.597,34.851
-0.079,-0.108,0.914,-43.701,-5.615,33.02
0.912,1.708,0.005,52.063,89.6,84.534
1.003,1.631,-0.01,61.951,93.933,99.182
1.083,1.583,-0.019,66.223,97.595,115.662
1.184,1.607,0.049,64.087,99.06,128.601
1.28,1.602,0.079,61.462,96.558,139.404
1.352,1.617,0.103,58.105,90.881,148.926
1.39,1.667,0.09,53.894,84.106,156.006
1.401,1.705,0.086,52.673,78.43,162.537
1.377,1.631,0.053,56.152,75.928,170.227
1.359,1.489,-0.014,61.096,77.148,183.411
1.341,1.378,-0.002,61.951,80.627,196.594
1.293,1.32,0.017,61.34,81.299,206.238
1.22,1.278,0.019,62.439,76.355,214.722
1.078,1.288,-0.029,65.308,67.932,221.68
0.932,1.316,-0.118,68.054,61.584,226.135
0.796,1.327,-0.204,69.824,59.814,226.624
0.708,1.348,-0.234,71.96,63.904,219.055
0.714,1.289,-0.238,75.867,73.547,206.299
0.779,1.186,-0.209,81.482,82.092,191.162
0.864,1.124,-0.134,88.379,83.557,172.668
0.995,1.003,-0.066,99.182,73.486,157.837
1.046,0.898,-0.046,112.549,47.974,145.752
0.983,0.849,-0.05,130.432,14.282,130.127
0.826,0.817,-0.085,155.334,-17.639,113.281
0.628,0.726,-0.118,186.035,-40.894,97.656
0.442,0.595,-0.129,217.957,-50.964,87.402
0.276,0.429,-0.059,243.713,-49.072,86.182
0.184,0.119,0.042,258.972,-38.635,95.825
0.252,-0.244,0.252,256.104,-25.757,116.516
0.351,-0.543,0.506,234.192,-26.733,135.742
0.274,-0.738,0.618,205.383,-52.795,133.301
0.114,-0.822,0.634,177.979,-91.37,107.849
-0.062,-0.855,0.582,156.006,-128.113,74.097
-0.219,-0.832,0.536,141.418,-154.663,43.579
-0.327,-0.864,0.527,134.888,-165.161,23.254
-0.413,-0.95,0.543,133.118,-159.363,15.564
-0.403,-1.056,0.615,132.629,-139.893,14.893
-0.321,-1.193,0.715,133.057,-109.314,16.968
-0.196,-1.257,0.82,130.188,-73.181,25.513
-0.041,-1.236,0.92,123.657,-40.161,35.217
0.089,-1.193,0.996,120.239,-15.015,37.537
0.239,-1.157,1.07,119.324,-0.61,30.029
0.354,-1.103,1.145,115.295,1.16,16.602
0.397,-1.027,1.184,106.689,-8.484,0.061
0.349,-0.946,1.193,93.384,-24.109,-14.587
0.261,-0.859,1.153,76.721,-39.124,-25.146
0.166,-0.745,1.094,58.533,-47.668,-32.41
0.084,-0.607,1.038,42.114,-47.913,-35.767
0.02,-0.481,0.987,30.212,-41.077,-33.813
-0.015,-0.354,0.937,22.827,-29.724,-26.917
-0.011,-0.264,0.918,20.691,-17.761,-18.738
-0.015,-0.219,0.899,23.682,-9.583,-11.414
-0.051,-0.186,0.899,28.381,-6.042,-5.981
-0.074,-0.165,0.905,33.875,-6.287,-1.953
-0.13,-0.152,0.906,38.696,-9.46,2.625
-0.201,-0.14,0.92,41.626,-13.977,7.935
-0.27,-0.16,0.932,42.542,-18.127,13.428
-0.331,-0.184,0.963,40.283,-22.461,17.7
-0.385,-0.193,0.984,35.217,-27.039,17.883
-0.428,-0.194,0.994,27.954,-31.433,13.672
-0.448,-0.175,0.991,19.104,-33.813,7.629
-0.453,-0.132,0.982,10.437,-33.264,1.404
-0.441,-0.088,0.961,5.188,-29.236,-4.395
-0.423,-0.039,0.928,3.174,-21.179,-10.315
-0.406,-0.084,0.86,3.418,-9.888,-15.015
-0.369,0.058,0.954,1.038,6.104,-18.921
-0.296,0.064,0.974,3.418,17.09,-18.799
-0.105,0.082,1.204,6.287,20.447,-12.146
-0.108,-0.201,0.79,11.902,9.766,-4.15
-0.27,0.079,1.114,5.615,9.094,-11.658
-0.23,0.047,0.991,0.122,6.653,-8.606
-0.318,-0.055,0.923,2.747,7.263,-5.066
-0.31,0.068,0.934,-2.747,15.076,-9.644
-0.354,0.043,0.893,-1.526,22.4,-11.292
-0.33,0.075,0.913,-3.723,32.471,-13.611
-0.294,0.066,0.904,-1.648,42.542,-17.029
-0.236,0.086,0.936,-0.244,51.392,-21.24
-0.168,0.102,0.972,0.793,56.03,-23.621
-0.087,0.11,1.004,2.075,55.42,-23.499
-0.012,0.112,1.047,3.418,49.438,-21.729
0.05,0.098,1.077,3.723,37.842,-16.479
0.059,0.091,1.085,2.258,22.888,-9.949
0.016,0.095,1.078,0.244,7.874,-4.944
-0.042,0.094,1.055,-1.282,-3.723,-1.77
-0.094,0.085,1.022,-3.296,-10.62,0.305
-0.124,0.093,1.0,-5.31,-13.489,0.183
-0.135,0.112,0.984,-6.958,-13.367,-1.038
-0.122,0.113,0.964,-6.714,-12.085,-2.014
-0.11,0.121,0.956,-5.92,-11.169,-2.38
-0.125,0.133,0.948,-5.249,-10.986,-2.258
-0.142,0.129,0.94,-4.028,-11.108,-2.197
-0.149,0.128,0.939,-2.686,-10.315,-2.075
-0.155,0.131,0.943,-1.831,-9.338,-2.014
-0.159,0.131,0.951,-1.404,-8.301,-2.441
-0.154,0.127,0.965,-0.793,-6.775,-3.052
-0.148,0.122,0.983,-1.038,-5.859,-3.296
-0.151,0.129,1.003,-2.502,-5.798,-3.235
-0.15,0.134,1.02,-3.174,-5.615,-3.113
-0.142,0.115,1.011,-2.991,-5.615,-2.93
-0.149,0.104,1.01,-4.456,-5.737,-3.113
-0.172,0.099,0.998,-6.775,-4.761,-3.296
-0.19,0.09,0.975,-9.094,-0.732,-4.578
-0.207,0.093,0.959,-11.475,6.104,-6.348
-0.191,0.114,0.975,-13.428,14.893,-7.385
-0.135,0.109,0.985,-14.343,21.729,-7.324
-0.092,0.093,0.982,-15.015,24.536,-7.08
-0.076,0.101,0.979,-16.357,23.987,-7.324
-0.071,0.116,0.982,-18.372,21.545,-6.958
-0.063,0.115,0.97,-18.86,19.104,-6.47
-0.063,0.115,0.946,-18.127,17.029,-6.836
-0.074,0.133,0.937,-17.883,16.052,-7.874
-0.074,0.147,0.939,-17.395,15.747,-8.423
-0.064,0.156,0.943,-15.442,15.869,-8.85
-0.05,0.145,0.942,-12.573,15.625,-9.216
-0.037,0.125,0.948,-10.193,15.137,-9.033
-0.023,0.107,0.954,-9.644,14.648,-7.263
-0.016,0.102,0.96,-11.23,14.099,-3.967
-0.015,0.101,0.965,-13.489,13.55,-0.793
-0.018,0.096,0.961,-15.32,12.939,1.892
0.989,1.426,0.373,-2.075,20.203,37.109
1.101,1.572,0.268,-6.653,27.344,44.067
1.204,1.722,0.156,-10.681,34.18,54.626
1.29,1.838,0.086,-11.108,41.26,68.42
1.374,1.913,0.046,-6.775,48.645,86.853
1.467,1.956,0.061,2.014,55.603,109.192
1.536,1.963,0.073,14.099,59.143,133.911
1.577,1.943,0.066,28.198,56.763,158.081
1.568,1.9,0.055,41.382,50.171,177.002
1.537,1.812,0.068,52.124,44.128,191.772
1.521,1.709,0.056,56.824,42.48,208.13
1.526,1.673,0.06,51.575,44.373,225.525
1.524,1.715,0.066,41.443,47.18,239.624
1.565,1.805,0.083,33.142,49.194,248.413
1.61,1.846,0.108,33.02,48.767,249.146
1.554,1.751,0.074,41.199,43.579,244.385
1.493,1.578,0.037,49.5,33.386,240.906
1.355,1.445,-0.016,53.955,19.775,239.258
1.201,1.357,-0.112,55.786,7.385,239.258
1.071,1.241,-0.193,52.551,0.305,243.713
0.968,1.073,-0.268,44.495,-3.54,251.099
0.84,0.916,-0.324,33.325,-5.859,254.639
0.678,0.818,-0.343,22.034,-4.028,249.023
0.545,0.745,-0.341,18.25,4.639,233.887
0.496,0.7,-0.278,26.428,16.724,212.585
0.51,0.568,-0.175,46.997,24.414,189.575
0.499,0.354,-0.065,74.89,23.926,173.523
0.557,0.122,0.099,101.135,13.794,170.715
0.609,-0.063,0.263,125.0,-11.23,174.255
0.55,-0.299,0.388,148.621,-53.772,175.598
0.418,-0.57,0.456,172.485,-106.995,173.462
0.245,-0.867,0.529,194.336,-159.058,166.565
-0.021,-1.207,0.592,210.571,-200.073,159.851
-0.29,-1.505,0.69,214.355,-220.581,161.133
-0.441,-1.692,0.819,210.693,-220.825,163.269
-0.552,-1.796,0.931,210.266,-205.444,152.893
-0.611,-1.831,1.027,215.21,-179.138,131.653
-0.594,-1.803,1.142,223.633,-148.621,106.506
-0.527,-1.734,1.242,236.023,-118.835,80.383
-0.464,-1.656,1.331,250.427,-92.407,54.932
-0.424,-1.576,1.422,262.085,-69.702,32.288
-0.363,-1.513,1.516,267.273,-49.377,12.085
-0.329,-1.504,1.59,263.0,-32.349,-6.592
-0.32,-1.522,1.561,242.676,-17.456,-27.344
-0.259,-1.466,1.424,202.698,-0.122,-55.908
-0.162,-1.331,1.262,145.935,22.888,-88.562
-0.042,-1.12,1.116,84.045,48.523,-113.953
0.109,-0.843,0.99,28.931,72.998,-123.901
0.275,-0.546,0.919,-8.972,91.37,-116.76
0.419,-0.362,0.851,-27.893,97.229,-93.689
0.476,-0.265,0.829,-32.349,89.905,-61.34
0.437,-0.098,0.891,-28.564,70.129,-25.513
0.287,-0.112,0.874,-17.639,37.415,16.602
0.091,-0.211,0.823,-9.094,1.953,56.274
-0.162,-0.278,0.803,-6.897,-27.71,82.642
-0.383,-0.301,0.828,-9.033,-49.5,93.384
-0.557,-0.355,0.819,-12.146,-62.683,90.637
-0.721,-0.381,0.768,-17.7,-67.505,77.515
-0.865,-0.352,0.679,-28.137,-62.195,58.777
-0.954,-0.253,0.599,-40.527,-44.128,37.781
-0.96,-0.074,0.65,-51.025,-17.151,22.644
-0.839,-0.121,0.517,-51.636,8.606,17.212
-0.789,-0.019,0.523,-53.894,36.804,8.85
-0.682,0.114,0.544,-53.589,61.401,3.296
-0.503,0.14,0.564,-46.326,78.491,1.404
-0.41,0.152,0.597,-35.4,95.764,-6.042
-0.306,0.484,0.898,-30.029,99.365,-9.705
-0.131,0.118,0.847,-3.967,68.237,3.418
-0.192,0.037,0.793,11.169,42.542,2.014
-0.206,0.157,0.908,12.817,21.24,-2.014
-0.22,0.111,0.91,17.456,2.014,-1.404
-0.268,0.016,0.884,23.56,-13.855,0.671
-0.328,0.05,0.911,24.902,-22.4,0.366
-0.4,0.015,0.881,25.757,-25.757,2.38
-0.46,-0.022,0.883,24.109,-20.02,3.479
-0.514,-0.01,0.915,22.156,-6.409,0.916
-0.513,-0.021,0.942,20.508,10.925,-2.075
-0.481,-0.038,0.968,18.433,28.87,-4.395
-0.44,-0.055,0.964,14.709,44.373,-7.019
-0.395,-0.007,1.016,9.46,56.946,-9.949
-0.317,-0.001,1.026,6.226,63.11,-10.803
-0.264,-0.016,1.018,3.723,63.11,-9.888
-0.246,0.0,1.019,-0.366,59.082,-8.911
-0.239,0.029,1.026,-3.784,51.147,-7.812
-0.213,0.042,1.013,-5.432,40.833,-6.409
-0.206,0.048,0.993,-5.981,29.297,-5.615
-0.226,0.059,0.96,-6.531,18.25,-5.127
-0.261,0.077,0.933,-7.324,9.827,-3.845
-0.286,0.09,0.916,-8.057,5.127,-2.014
-0.291,0.087,0.908,-7.385,3.357,-0.427
-0.281,0.078,0.912,-5.859,3.418,-0.183
-0.257,0.067,0.926,-4.15,3.784,-1.038
-0.238,0.06,0.943,-2.563,3.418,-1.953
-0.222,0.054,0.966,-1.16,2.075,-2.625
-0.208,0.034,0.982,0.244,-0.061,-3.113
-0.203,0.006,0.98,1.282,-2.075,-3.296
-0.202,-0.01,0.981,0.854,-3.662,-3.601
-0.213,-0.016,0.98,-0.366,-3.601,-4.333
-0.221,-0.013,0.977,-0.427,-2.197,-5.981
-0.225,-0.033,0.971,-0.122,0.977,-7.141
-0.234,-0.056,0.969,0.183,5.798,-7.812
-0.243,-0.065,0.96,-0.427,11.719,-8.789
-0.235,-0.073,0.964,-2.869,19.531,-9.277
-0.206,-0.08,0.975,-7.202,27.588,-7.263
-0.146,-0.082,0.98,-12.695,33.63,-3.967
-0.11,-0.084,0.955,-18.982,36.743,-2.197
-0.109,-0.074,0.93,-26.062,37.72,-2.075
-0.122,-0.051,0.925,-31.799,38.94,-3.296
-0.1,-0.006,0.968,-33.813,39.551,-4.761
-0.046,0.002,0.996,-31.555,35.95,-4.578
0.005,-0.031,0.992,-27.527,27.405,-3.296
0.027,-0.033,0.989,-25.208,15.808,-2.197
0.02,-0.027,0.956,-23.193,2.747,-1.709
-0.009,0.008,0.939,-21.729,-8.362,-3.296
-0.047,0.023,0.903,-19.958,-17.578,-4.639
-0.083,0.047,0.856,-17.029,-23.621,-5.737
-0.112,0.075,0.825,-13.916,-24.902,-7.08
-0.137,0.069,0.8,-10.681,-22.278,-7.629
-0.152,0.064,0.788,-6.531,-17.09,-7.751
0.557,1.263,0.745,0.977,4.089,132.446
0.589,1.381,0.696,1.892,5.31,138.428
0.63,1.502,0.646,3.967,8.179,142.456
0.692,1.622,0.595,8.057,13.916,144.287
0.8,1.741,0.57,14.16,22.034,146.24
0.959,1.818,0.57,20.142,29.358,152.222
1.111,1.84,0.564,24.841,32.349,163.696
1.223,1.822,0.575,28.137,28.259,177.246
1.305,1.761,0.608,30.823,16.663,188.416
1.326,1.652,0.641,33.508,-0.732,196.472
1.258,1.511,0.633,35.645,-22.278,203.186
1.093,1.486,0.571,34.302,-44.678,208.496
0.906,1.443,0.522,29.663,-61.34,212.402
0.687,1.312,0.433,23.865,-68.726,217.957
0.485,1.149,0.333,12.512,-65.247,226.624
0.312,1.042,0.255,-4.7,-51.27,234.253
0.176,1.0,0.184,-21.729,-31.006,238.77
0.085,0.941,0.131,-33.997,-9.155,240.479
0.038,0.837,0.089,-38.818,9.705,239.685
0.014,0.751,0.066,-36.011,23.56,233.704
0.007,0.626,0.072,-26.733,31.189,221.619
0.0,0.448,0.076,-13.062,32.715,205.505
-0.01,0.257,0.09,1.953,28.076,186.523
-0.061,0.111,0.11,18.311,18.616,165.833
-0.086,-0.031,0.18,37.354,8.972,147.034
-0.095,-0.217,0.308,57.861,2.441,139.221
-0.141,-0.463,0.479,73.12,-3.967,147.522
-0.163,-0.733,0.638,82.642,-12.146,160.95
-0.131,-0.953,0.771,89.233,-25.269,162.354
-0.063,-1.115,0.869,94.421,-46.997,146.729
-0.089,-1.219,0.921,99.121,-76.538,123.352
-0.161,-1.256,0.937,104.98,-106.934,101.257
-0.247,-1.248,0.929,115.784,-130.371,81.238
-0.351,-1.237,0.9,133.545,-142.7,58.411
-0.46,-1.233,0.879,156.921,-141.357,32.043
-0.533,-1.227,0.873,181.58,-127.136,5.676
-0.572,-1.249,0.873,204.163,-103.271,-18.433
-0.594,-1.28,0.881,220.642,-71.777,-39.612
-0.578,-1.312,0.913,227.722,-35.217,-55.969
-0.508,-1.341,0.954,223.389,2.991,-65.43
-0.397,-1.304,0.989,206.97,40.649,-67.81
-0.26,-1.223,1.022,180.481,73.181,-64.941
-0.122,-1.145,1.027,148.499,97.168,-62.195
-0.009,-1.043,1.011,113.159,112.061,-61.951
0.086,-0.923,0.986,76.904,119.446,-62.622
0.147,-0.771,0.968,44.25,119.873,-60.73
0.177,-0.606,0.958,19.287,114.38,-53.894
0.187,-0.472,0.95,3.662,103.516,-41.992
0.158,-0.36,0.95,-3.479,87.524,-27.039
0.078,-0.269,0.952,-2.869,68.42,-10.986
-0.005,-0.244,0.952,2.991,47.913,4.211
-0.111,-0.28,0.941,11.23,28.015,15.747
-0.24,-0.321,0.932,18.127,10.681,21.667
-0.37,-0.33,0.915,21.179,-2.38,23.254
-0.495,-0.333,0.888,19.104,-10.315,23.01
-0.558,-0.334,0.895,14.099,-11.78,20.813
-0.554,-0.34,0.897,7.629,-9.094,17.334
-0.529,-0.332,0.894,1.282,-4.883,13.367
-0.496,-0.272,0.916,-5.249,-0.732,8.484
-0.441,-0.23,0.911,-9.155,1.038,3.723
-0.416,-0.221,0.876,-10.071,1.648,-1.282
-0.403,-0.182,0.867,-9.277,4.211,-7.385
-0.396,-0.087,0.889,-5.737,8.484,-13.794
-0.339,-0.059,0.923,1.343,11.292,-15.442
-0.304,-0.085,0.856,9.399,11.169,-14.282
-0.278,-0.113,0.944,15.564,15.442,-13.428
-0.252,-0.093,0.955,18.555,22.827,-10.681
-0.239,-0.127,1.032,24.17,25.391,-8.545
-0.156,-0.18,1.14,25.269,18.677,-4.578
-0.213,-0.229,1.1,21.484,6.47,-2.563
-0.335,-0.203,1.038,16.602,-2.686,-2.808
-0.365,-0.147,1.118,10.01,-5.31,-5.066
-0.416,-0.168,1.045,5.737,-6.531,-6.348
-0.452,-0.199,1.031,1.892,-2.869,-5.981
-0.461,-0.159,1.031,-3.845,5.066,-6.042
-0.462,-0.196,0.987,-6.714,16.846,-6.226
-0.453,-0.159,1.0,-10.132,31.189,-8.057
-0.38,-0.173,1.0,-12.451,44.678,-8.301
-0.302,-0.18,1.006,-14.099,54.443,-8.789
-0.244,-0.153,1.016,-16.968,59.326,-8.972
-0.195,-0.149,1.022,-19.165,58.594,-7.141
-0.156,-0.123,1.042,-20.325,53.955,-4.883
-0.126,-0.118,1.051,-19.47,44.861,-2.502
-0.109,-0.12,1.051,-18.616,32.898,0.183
-0.115,-0.129,1.037,-18.127,19.47,2.625
-0.136,-0.133,1.014,-18.494,7.324,4.211
-0.178,-0.122,0.991,-18.921,-2.502,4.395
-0.219,-0.11,0.969,-19.592,-8.728,3.906
-0.245,-0.109,0.949,-19.226,-11.23,3.052
-0.27,-0.109,0.936,-17.944,-10.437,1.77
-0.286,-0.105,0.924,-15.808,-7.446,0.305
-0.29,-0.106,0.926,-13.428,-2.319,-1.77
-0.28,-0.122,0.935,-10.254,3.418,-3.418
-0.257,-0.14,0.954,-6.836,8.606,-5.005
-0.232,-0.163,0.971,-4.089,12.695,-5.981
-0.193,-0.183,0.991,-3.113,15.259,-5.798
-0.161,-0.177,1.001,-4.333,15.32,-4.822
-0.143,-0.172,1.014,-8.179,12.634,-2.808
-0.126,-0.179,1.028,-12.695,7.507,-0.061
-0.124,-0.186,1.035,-17.212,1.099,2.197
-0.129,-0.193,1.031,-21.484,-5.737,3.235
-0.145,-0.197,1.017,-24.78,-11.902,2.808
-0.174,-0.203,0.997,-27.405,-17.151,1.404
-0.203,-0.182,0.965,-30.518,-19.287,-0.549
-0.229,-0.15,0.936,-33.142,-18.677,-2.808
-0.235,-0.13,0.916,-34.668,-15.686,-4.211
-0.224,-0.128,0.907,-34.668,-11.658,-5.127
-0.216,-0.112,0.894,-33.752,-8.362,-6.042
-0.209,-0.093,0.892,-32.532,-5.005,-6.47
-0.184,-0.104,0.897,-30.762,-2.258,-5.737
-0.176,-0.102,0.894,-29.114,-1.343,-5.005
-0.183,-0.071,0.888,-28.687,-1.099,-4.456
-0.184,-0.068,0.892,-28.687,-0.854,-3.906
-0.185,-0.067,0.891,-28.748,-1.465,-3.235
-0.188,-0.046,0.897,-30.64,-2.93,-3.662
-0.187,-0.045,0.901,-32.532,-5.066,-6.042
-0.192,-0.037,0.895,-33.325,-7.507,-9.583
-0.198,0.001,0.891,-33.386,-9.521,-13.367
-0.212,0.024,0.881,-32.593,-10.986,-16.174
0.733,1.243,0.787,-15.747,47.241,81.848
0.806,1.313,0.769,-16.724,49.988,95.825
0.851,1.375,0.742,-16.907,50.415,110.535
0.885,1.425,0.72,-16.296,49.988,125.427
0.92,1.441,0.69,-15.747,50.293,140.503
0.95,1.428,0.653,-15.686,51.331,154.114
0.98,1.408,0.626,-16.663,53.528,165.588
1.002,1.374,0.6,-17.761,55.969,177.185
1.017,1.356,0.56,-18.555,57.983,190.186
1.005,1.307,0.497,-19.043,57.861,204.041
0.969,1.261,0.433,-20.996,55.969,217.834
0.905,1.246,0.382,-25.391,53.223,233.521
0.829,1.199,0.314,-30.945,49.988,249.634
0.738,1.191,0.234,-36.133,48.401,262.329
0.659,1.246,0.167,-40.161,49.072,269.226
0.594,1.31,0.108,-40.588,49.622,271.606
0.522,1.422,0.059,-38.391,48.706,269.592
0.418,1.483,0.02,-32.227,44.434,262.756
0.315,1.441,-0.022,-20.142,37.659,251.282
0.259,1.358,-0.026,-3.479,30.579,234.253
0.256,1.26,-0.005,16.479,22.034,212.524
0.26,1.075,0.017,37.598,9.46,192.261
0.263,0.879,0.062,55.481,-5.798,177.856
0.264,0.639,0.154,67.932,-21.484,171.265
0.179,0.453,0.222,74.646,-35.645,172.363
0.044,0.401,0.294,77.698,-44.006,173.889
-0.086,0.232,0.387,83.13,-42.236,170.288
-0.214,0.025,0.496,90.698,-27.039,163.086
-0.242,-0.182,0.661,93.079,-1.526,155.762
-0.14,-0.381,0.804,92.896,23.499,145.996
0.01,-0.525,0.904,91.248,35.034,128.235
0.117,-0.609,0.971,88.684,26.367,104.37
0.164,-0.683,1.0,89.966,-0.732,80.2
0.162,-0.746,1.014,97.656,-39.612,59.57
0.121,-0.823,1.022,111.511,-78.552,45.044
0.021,-0.917,1.032,129.822,-110.413,37.964
-0.136,-1.035,1.043,149.475,-131.042,33.264
-0.299,-1.135,1.05,165.894,-135.681,28.32
-0.426,-1.221,1.053,177.917,-124.939,19.592
-0.51,-1.294,1.062,183.411,-100.952,7.08
-0.547,-1.334,1.075,181.274,-68.054,-6.409
-0.541,-1.319,1.094,172.119,-31.067,-22.278
-0.461,-1.264,1.115,157.837,5.005,-39.673
-0.337,-1.187,1.133,141.052,35.706,-55.542
-0.204,-1.1,1.14,122.925,57.861,-66.406
-0.078,-0.997,1.13,104.187,70.068,-71.533
0.014,-0.869,1.108,85.754,72.815,-72.998
0.073,-0.748,1.068,69.824,68.481,-70.496
0.099,-0.626,1.018,56.763,59.509,-62.927
0.086,-0.499,0.982,46.326,48.584,-51.941
0.06,-0.418,0.948,40.222,37.659,-39.185
0.008,-0.376,0.921,37.292,27.527,-25.757
-0.069,-0.357,0.893,36.438,19.592,-13.977
-0.143,-0.347,0.875,35.645,14.587,-4.333
-0.208,-0.343,0.879,33.63,12.512,3.601
-0.269,-0.334,0.882,30.273,11.78,11.475
-0.31,-0.347,0.889,25.391,11.536,18.799
-0.349,-0.343,0.903,18.372,10.742,22.766
-0.394,-0.291,0.891,11.108,8.423,21.729
-0.42,-0.233,0.873,4.333,6.409,18.066
-0.421,-0.176,0.87,0.122,6.348,12.817
-0.389,-0.15,0.872,-0.427,7.385,8.362
-0.317,-0.121,0.897,0.732,8.118,6.287
-0.266,-0.12,0.903,2.197,6.287,5.92
-0.278,-0.141,0.866,3.174,3.113,4.883
-0.326,-0.081,0.877,3.174,3.54,1.526
-0.31,-0.062,0.888,5.676,6.897,-0.427
-0.282,-0.087,0.869,9.888,11.23,-2.136
-0.281,-0.085,0.879,12.512,16.785,-4.028
-0.271,-0.082,0.892,13.916,22.705,-5.371
-0.251,-0.073,0.919,15.076,27.588,-5.554
-0.223,-0.081,0.941,15.93,30.64,-4.639
-0.2,-0.087,0.96,16.602,31.494,-4.15
-0.179,-0.09,0.982,17.029,30.396,-4.944
-0.169,-0.141,0.965,17.395,27.954,-6.47
-0.194,0.008,1.095,16.113,28.015,-8.362
-0.116,-0.046,1.066,14.771,18.738,-3.54
-0.121,-0.1,1.041,14.954,8.362,0.061
-0.167,-0.087,1.069,10.742,0.61,1.16
-0.215,-0.037,1.065,6.592,-4.944,0.854
-0.243,-0.075,1.022,5.31,-8.789,2.014
-0.276,-0.05,1.018,2.747,-8.301,1.282
-0.284,-0.044,1.005,1.892,-5.676,0.671
-0.279,-0.056,0.992,1.465,-2.319,0.183
-0.271,-0.051,0.993,0.671,1.526,-1.099
-0.255,-0.047,0.99,0.793,4.761,-2.625
-0.226,-0.038,0.998,0.854,7.202,-3.113
-0.206,-0.027,1.002,0.977,7.812,-2.869
-0.195,-0.026,1.007,1.343,6.47,-1.648
-0.187,-0.042,1.003,2.197,4.15,0.122
-0.207,-0.036,1.003,2.869,2.197,0.854
-0.22,-0.021,1.007,3.479,0.61,0.977
-0.22,-0.034,1.016,3.967,-0.916,1.587
-0.214,-0.043,1.033,3.967,-3.479,2.136
-0.221,-0.048,1.038,3.174,-7.385,2.625
-0.236,-0.048,1.036,1.709,-12.146,2.563
-0.261,-0.043,1.023,0.061,-16.479,1.892
-0.285,-0.039,1.007,-1.038,-19.043,0.732
-0.301,-0.031,0.995,-2.441,-18.921,-0.488
-0.32,-0.024,0.974,-3.418,-16.541,-1.77
-0.329,-0.014,0.969,-3.601,-11.536,-3.113
-0.318,-0.015,0.969,-2.869,-5.371,-4.578
-0.287,-0.011,0.979,-1.953,0.549,-6.226
-0.261,-0.015,0.988,-1.648,5.127,-7.263
-0.252,-0.018,0.991,-2.197,7.385,-7.507
-0.245,-0.016,0.989,-3.174,8.484,-8.118
-0.24,-0.012,0.983,-4.395,8.911,-9.583
-0.23,-0.005,0.978,-5.005,9.155,-11.169
-0.211,-0.005,0.974,-5.371,9.033,-12.512
-0.189,-0.007,0.97,-4.822,8.484,-13.123
-0.171,-0.007,0.969,-5.066,6.958,-12.878
-0.158,-0.011,0.965,-5.066,4.517,-12.268
-0.15,-0.013,0.954,-5.249,1.831,-10.925
-0.158,-0.015,0.938,-5.798,-0.122,-9.827
-0.174,-0.013,0.921,-5.981,-0.671,-9.338
-0.189,-0.012,0.907,-6.226,0.488,-9.705
-0.195,-0.006,0.906,-6.47,3.296,-10.742
-0.188,0.001,0.91,-5.676,7.141,-11.841
-0.173,-0.004,0.921,-4.639,10.864,-12.451
0.802,1.472,0.339,-3.052,76.538,132.446
0.859,1.511,0.305,1.038,80.811,138.123
0.94,1.57,0.277,3.601,86.609,145.691
1.063,1.65,0.234,4.395,92.896,156.494
1.177,1.781,0.187,4.456,97.9,168.762
1.283,1.899,0.152,6.226,101.135,181.58
1.33,1.989,0.107,10.559,100.891,197.021
1.277,2.046,0.052,15.198,97.046,212.83
1.17,2.037,0.01,19.287,90.515,224.304
1.008,1.988,-0.056,23.621,80.627,228.577
0.848,1.883,-0.108,28.137,68.054,224.121
0.75,1.662,-0.144,35.217,52.49,212.769
0.655,1.493,-0.2,45.166,34.18,195.312
0.575,1.419,-0.215,58.35,16.296,176.025
0.517,1.296,-0.216,75.623,-0.183,162.903
0.421,1.081,-0.239,95.764,-15.198,158.875
0.294,0.881,-0.211,113.464,-25.085,157.776
0.172,0.688,-0.152,129.272,-26.123,156.677
0.079,0.485,-0.051,140.564,-18.738,157.837
0.058,0.277,0.059,145.264,-9.46,157.349
-0.008,0.117,0.129,143.494,-3.418,149.109
-0.143,-0.015,0.16,137.939,-0.061,133.85
-0.249,-0.172,0.188,132.385,7.996,112.061
-0.236,-0.338,0.256,129.883,23.865,83.557
-0.054,-0.501,0.381,129.7,37.231,55.237
0.105,-0.642,0.533,129.456,37.415,35.461
0.264,-0.771,0.717,128.113,24.109,31.616
0.481,-0.906,0.887,127.563,-2.625,37.354
0.581,-1.008,0.975,131.042,-43.274,40.344
0.538,-1.065,1.004,137.207,-90.881,38.574
0.381,-1.079,1.021,145.569,-131.653,38.208
0.215,-1.1,1.026,156.677,-154.358,40.1
0.052,-1.138,1.007,170.959,-155.457,39.124
-0.063,-1.17,0.998,182.617,-137.939,32.104
-0.132,-1.184,0.999,188.782,-108.765,19.47
-0.142,-1.159,1.021,188.599,-74.097,2.808
-0.105,-1.091,1.054,182.312,-41.016,-16.113
-0.056,-1.055,1.104,172.241,-14.16,-35.4
0.016,-1.032,1.125,157.471,2.991,-53.711
0.088,-0.967,1.132,136.658,11.841,-69.885
0.131,-0.841,1.139,114.197,13.733,-80.688
0.166,-0.715,1.138,94.177,10.071,-84.29
0.182,-0.608,1.117,78.857,3.235,-81.97
0.175,-0.513,1.087,67.871,-4.15,-74.646
0.147,-0.439,1.049,60.242,-11.353,-64.148
0.101,-0.397,1.011,54.749,-17.456,-52.673
0.043,-0.376,0.984,50.964,-20.874,-42.053
-0.011,-0.348,0.961,47.302,-21.118,-33.081
-0.073,-0.321,0.946,43.335,-19.226,-25.574
-0.118,-0.297,0.936,38.818,-15.625,-18.372
-0.149,-0.29,0.933,33.142,-10.681,-11.23
-0.185,-0.278,0.926,26.367,-5.676,-4.333
-0.218,-0.254,0.929,18.433,-0.732,1.526
-0.243,-0.231,0.925,10.864,4.456,6.042
-0.248,-0.206,0.92,4.578,9.583,7.629
-0.223,-0.171,0.921,0.122,13.672,5.493
-0.181,-0.143,0.927,-1.892,15.137,1.343
-0.154,-0.117,0.922,-2.014,14.038,-2.38
-0.149,-0.099,0.896,-1.343,11.108,-4.395
-0.156,-0.07,0.874,-0.793,9.033,-7.263
-0.166,-0.029,0.863,0.183,8.789,-9.949
-0.157,-0.007,0.859,2.502,9.888,-11.719
-0.128,0.0,0.857,5.432,11.108,-13.123
-0.119,0.02,0.862,8.911,12.268,-14.343
-0.103,0.036,0.877,12.39,13.123,-14.954
-0.077,0.02,0.892,15.991,13.489,-14.648
-0.047,0.004,0.908,18.738,13.062,-13.855
-0.017,0.009,0.944,19.592,11.78,-12.695
0.013,-0.073,0.994,20.02,8.423,-10.437
-0.052,0.113,1.124,19.47,6.958,-10.254
0.044,0.06,1.099,17.883,-4.15,-2.38
0.008,-0.088,1.038,20.325,-19.043,4.883
-0.064,-0.011,1.107,15.991,-26.55,4.7
-0.095,-0.015,1.099,13.489,-34.058,5.493
-0.138,-0.043,1.068,11.78,-39.673,6.165
-0.172,-0.014,1.074,8.667,-40.955,6.165
-0.199,-0.022,1.043,7.08,-39.917,6.653
-0.232,-0.039,1.018,5.859,-35.828,6.897
-0.263,-0.019,1.005,3.54,-29.175,6.226
-0.282,-0.015,0.993,1.831,-20.63,5.371
-0.283,-0.008,0.987,0.244,-10.864,4.028
-0.259,0.002,0.993,-1.16,-1.709,2.563
-0.23,0.007,1.001,-1.648,5.493,1.221
-0.215,0.013,1.006,-1.404,10.132,0.061
-0.206,0.018,1.01,-0.916,12.329,-0.61
-0.201,0.017,1.016,-0.427,12.268,-1.099
-0.183,0.015,1.027,-0.244,10.498,-2.136
-0.162,0.014,1.034,-0.244,6.958,-3.174
-0.154,0.016,1.034,-0.549,2.258,-3.479
-0.153,0.012,1.025,-1.404,-2.625,-3.601
-0.16,0.015,1.012,-2.502,-6.653,-3.601
-0.17,0.021,0.997,-3.174,-9.216,-4.089
-0.182,0.025,0.977,-3.662,-10.01,-4.517
-0.187,0.027,0.964,-3.479,-8.789,-4.944
-0.183,0.021,0.953,-3.113,-6.348,-5.615
-0.172,0.025,0.954,-2.808,-3.052,-5.981
-0.157,0.026,0.96,-2.625,-0.366,-5.798
-0.144,0.029,0.967,-2.075,1.16,-5.554
-0.139,0.033,0.979,-1.587,1.282,-5.31
-0.136,0.036,0.987,-1.099,0.305,-4.944
-0.138,0.039,0.99,-0.549,-1.465,-4.944
-0.141,0.039,0.992,-0.854,-3.235,-5.127
-0.151,0.043,0.992,-1.343,-4.7,-5.615
-0.154,0.048,0.99,-1.648,-5.493,-6.104
-0.156,0.047,0.99,-2.075,-5.676,-6.165
-0.159,0.038,0.984,-2.686,-5.554,-6.165
-0.167,0.044,0.975,-3.418,-4.883,-7.141
-0.18,0.05,0.965,-3.845,-2.869,-8.545
-0.185,0.049,0.958,-4.028,0.183,-10.132
-0.178,0.056,0.958,-3.906,3.967,-11.78
-0.17,0.059,0.956,-4.211,6.897,-12.878
-0.154,0.047,0.952,-4.7,8.423,-13.55
-0.137,0.049,0.945,-5.859,8.789,-14.16
-0.118,0.058,0.947,-7.263,8.423,-14.709
-0.103,0.067,0.942,-7.874,6.653,-14.587
-0.091,0.067,0.944,-7.629,4.15,-14.526
-0.085,0.071,0.939,-6.592,1.16,-15.259
-0.084,0.066,0.941,-5.127,-2.197,-16.235
-0.075,0.064,0.946,-3.845,-5.371,-17.273
0.692,1.108,0.797,-11.047,102.295,173.218
0.741,1.119,0.788,-11.841,97.046,184.753
0.813,1.162,0.77,-12.207,85.51,193.054
0.874,1.204,0.742,-11.536,69.641,196.35
0.93,1.263,0.705,-10.132,50.842,196.045
0.988,1.345,0.682,-7.751,31.372,194.214
1.028,1.456,0.654,-3.967,12.024,193.298
1.043,1.591,0.62,2.014,-6.104,192.688
1.017,1.801,0.585,10.559,-22.461,190.063
0.981,2.007,0.551,22.217,-36.255,183.228
0.933,1.978,0.518,36.011,-48.218,173.95
0.87,1.77,0.428,49.561,-58.838,166.443
0.786,1.596,0.36,55.237,-66.65,161.133
0.692,1.439,0.312,53.162,-70.984,160.156
0.603,1.224,0.253,46.448,-73.608,166.931
0.511,1.066,0.19,34.485,-73.059,177.368
0.396,1.024,0.156,19.714,-68.848,188.904
0.258,0.903,0.121,6.592,-61.829,202.209
0.123,0.698,0.074,-3.357,-53.162,216.675
-0.027,0.524,0.047,-11.78,-42.114,226.379
-0.191,0.42,0.044,-16.602,-27.893,227.844
-0.337,0.363,0.049,-16.235,-11.169,221.069
-0.448,0.274,0.062,-9.521,5.859,207.764
-0.503,0.164,0.087,3.54,21.667,187.683
-0.496,0.031,0.14,21.362,33.875,161.377
-0.429,-0.125,0.218,41.809,39.124,130.371
-0.301,-0.292,0.323,64.026,33.203,96.924
-0.181,-0.444,0.433,85.754,14.709,62.988
-0.104,-0.584,0.532,106.262,-15.381,31.86
-0.031,-0.741,0.615,123.108,-51.697,10.132
-0.035,-0.92,0.682,132.874,-86.853,2.869
-0.1,-1.046,0.753,134.583,-113.586,7.568
-0.169,-1.142,0.8,134.155,-126.404,14.526
-0.253,-1.211,0.812,134.277,-122.375,17.517
-0.324,-1.24,0.834,136.78,-103.455,13.916
-0.357,-1.241,0.886,143.127,-74.219,4.7
-0.342,-1.228,0.953,152.161,-40.649,-7.446
-0.279,-1.207,1.021,161.377,-8.118,-20.752
-0.195,-1.195,1.079,167.419,20.386,-31.921
-0.1,-1.194,1.137,167.664,43.457,-41.077
0.003,-1.172,1.182,159.424,58.655,-50.476
0.089,-1.122,1.203,142.883,66.345,-59.326
0.137,-1.023,1.205,119.08,66.772,-66.04
0.155,-0.895,1.186,90.881,62.439,-68.665
0.149,-0.746,1.142,62.195,56.03,-65.125
0.126,-0.598,1.087,37.476,49.866,-56.946
0.094,-0.47,1.03,19.897,45.471,-46.387
0.054,-0.38,0.992,10.071,42.725,-35.156
0.011,-0.336,0.951,5.981,41.321,-23.987
-0.031,-0.305,0.93,5.249,39.795,-12.573
-0.086,-0.284,0.923,6.409,37.537,-2.502
-0.137,-0.265,0.92,8.362,34.607,5.31
-0.177,-0.25,0.919,10.803,30.64,10.315
-0.211,-0.237,0.923,12.573,26.245,13.123
-0.235,-0.228,0.918,11.902,21.729,14.954
-0.249,-0.194,0.915,8.85,16.785,14.526
-0.251,-0.149,0.917,5.249,12.451,11.475
-0.236,-0.103,0.916,2.93,8.118,6.348
-0.21,-0.05,0.914,3.113,3.723,0.61
-0.188,-0.003,0.92,5.493,-0.916,-3.723
-0.163,0.032,0.939,10.193,-6.042,-6.47
-0.152,0.053,0.957,17.578,-11.353,-8.057
-0.163,0.058,0.982,25.085,-15.808,-8.301
-0.178,0.041,1.003,32.227,-19.226,-7.568
-0.192,-0.003,1.007,37.598,-21.118,-7.08
-0.232,-0.012,1.034,39.49,-19.958,-7.996
-0.235,-0.03,1.07,39.734,-17.334,-8.301
-0.248,-0.092,1.037,38.452,-14.893,-8.301
-0.296,-0.109,1.041,33.936,-7.812,-10.071
-0.32,-0.1,1.036,28.442,1.831,-12.512
-0.299,-0.107,1.029,23.437,12.573,-14.099
-0.254,-0.102,1.04,18.799,22.705,-16.052
-0.223,-0.154,0.978,15.503,29.358,-18.066
-0.227,-0.018,1.158,14.099,37.109,-20.386
-0.143,-0.084,1.03,12.146,30.945,-17.639
-0.137,-0.104,1.037,11.658,25.452,-15.747
-0.122,-0.124,1.016,9.399,20.325,-14.709
-0.137,-0.04,1.042,7.629,14.893,-15.198
-0.118,-0.067,1.004,7.996,7.141,-11.047
-0.119,-0.073,1.001,7.629,1.587,-6.653
-0.135,-0.066,0.993,7.141,-2.93,-3.601
-0.149,-0.065,0.997,6.958,-6.531,-1.343
-0.154,-0.065,0.997,6.897,-8.972,1.526
-0.17,-0.059,0.995,6.775,-10.803,4.15
-0.196,-0.061,0.994,6.042,-12.207,6.714
-0.217,-0.056,0.995,4.822,-12.817,8.118
-0.239,-0.048,0.995,3.296,-13.123,8.667
-0.253,-0.049,0.985,2.014,-13.977,8.667
-0.281,-0.057,0.957,0.305,-13.794,7.507
-0.315,-0.025,0.954,-1.587,-11.78,4.7
-0.308,0.001,0.964,-1.892,-9.399,1.953
-0.274,-0.004,0.957,-0.305,-8.606,-0.671
-0.245,-0.003,0.968,1.648,-8.606,-2.808
-0.225,-0.003,0.983,3.967,-10.62,-3.906
-0.211,-0.005,0.991,6.104,-14.404,-5.371
-0.209,-0.013,0.995,8.545,-18.86,-6.592
-0.213,-0.026,0.996,10.742,-22.644,-7.996
-0.229,-0.04,0.994,11.292,-24.414,-8.728
-0.242,-0.048,0.985,10.193,-23.621,-8.667
-0.261,-0.054,0.982,8.118,-20.081,-8.362
-0.27,-0.053,0.977,5.31,-13.977,-8.606
-0.274,-0.047,0.974,2.38,-6.958,-9.033
-0.262,-0.05,0.96,-0.366,-0.122,-9.46
-0.242,-0.045,0.958,-3.906,6.714,-10.193
-0.223,-0.029,0.956,-6.653,11.841,-11.658
-0.203,-0.016,0.958,-7.935,15.137,-13.0
-0.18,-0.005,0.953,-7.751,16.479,-13.428
-0.165,-0.002,0.946,-7.08,16.296,-13.123
-0.162,0.0,0.942,-5.981,15.503,-12.512
-0.159,0.005,0.944,-5.249,14.587,-11.536
-0.145,0.008,0.952,-4.578,12.695,-10.437
-0.128,-0.002,0.955,-3.54,10.193,-9.705
-0.132,-0.015,0.951,-3.052,7.141,-9.521
-0.169,-0.002,0.951,-2.991,5.188,-9.583
-0.195,-0.002,0.941,-3.418,4.883,-9.766
-0.208,-0.011,0.931,-4.211,7.019,-10.62
-0.211,-0.002,0.93,-4.822,10.681,-12.939
-0.196,0.0,0.927,-5.249,14.404,-14.587
-0.167,-0.002,0.926,-5.737,17.09,-15.32
0.567,1.435,0.771,21.301,32.471,81.848
0.718,1.547,0.769,23.071,39.49,88.989
0.885,1.684,0.775,23.621,42.908,99.67
1.027,1.844,0.79,22.644,41.626,115.173
1.137,1.978,0.814,22.278,36.072,132.812
1.171,2.091,0.824,20.813,29.297,152.893
1.081,2.126,0.789,14.282,24.17,176.88
0.944,2.062,0.742,0.0,25.208,199.341
0.799,1.878,0.656,-19.958,33.081,214.905
0.682,1.692,0.555,-45.227,46.021,224.731
0.635,1.559,0.453,-70.984,61.462,231.323
0.593,1.475,0.318,-90.698,74.402,235.962
0.534,1.419,0.194,-101.929,82.642,237.671
0.463,1.394,0.104,-102.478,86.365,236.694
0.404,1.374,0.04,-90.332,84.351,233.337
0.354,1.385,0.004,-65.308,77.148,224.731
0.299,1.385,0.046,-30.396,66.284,209.717
0.307,1.201,0.101,9.521,51.758,194.153
0.33,0.963,0.181,45.654,35.156,175.11
0.414,0.715,0.304,72.937,18.86,151.611
0.477,0.504,0.42,90.576,2.991,131.531
0.463,0.304,0.495,96.313,-11.169,121.582
0.387,0.128,0.522,91.614,-19.897,123.657
0.297,0.011,0.545,80.017,-22.766,129.15
0.2,-0.113,0.559,69.214,-22.522,127.319
0.169,-0.214,0.597,62.5,-23.315,116.333
0.155,-0.341,0.625,60.852,-29.663,96.985
0.137,-0.433,0.642,64.697,-42.114,72.632
0.128,-0.493,0.674,72.693,-58.35,46.814
0.124,-0.583,0.719,85.999,-75.623,23.987
0.104,-0.688,0.778,101.44,-89.722,9.277
0.094,-0.77,0.853,115.479,-100.403,4.211
0.071,-0.84,0.907,128.845,-107.971,4.028
-0.001,-0.895,0.93,141.418,-110.901,3.113
-0.075,-0.92,0.943,151.001,-107.605,0.305
-0.154,-0.938,0.947,157.227,-98.633,-5.798
-0.215,-0.965,0.948,159.668,-83.74,-16.724
-0.257,-0.979,0.94,157.41,-64.27,-32.776
-0.256,-0.99,0.932,150.513,-41.321,-50.781
-0.213,-0.974,0.94,140.564,-16.479,-67.932
-0.13,-0.938,0.957,129.761,7.141,-81.726
-0.036,-0.879,0.979,118.896,27.649,-89.6
0.06,-0.798,0.998,107.544,43.884,-91.064
0.164,-0.696,1.022,97.778,53.711,-87.219
0.27,-0.609,1.066,89.966,56.519,-80.017
0.343,-0.538,1.095,84.351,51.88,-70.129
0.376,-0.472,1.134,77.942,41.138,-56.702
0.361,-0.424,1.148,71.106,26.001,-41.565
0.294,-0.391,1.126,62.866,9.644,-27.283
0.196,-0.35,1.092,53.65,-3.967,-15.503
0.081,-0.321,1.053,44.006,-13.062,-6.409
-0.035,-0.303,1.0,34.424,-17.029,-0.244
-0.137,-0.27,0.951,25.33,-15.198,3.723
-0.204,-0.242,0.918,17.151,-7.507,5.432
-0.226,-0.231,0.892,10.132,3.174,5.31
-0.227,-0.21,0.872,4.517,14.648,2.991
-0.211,-0.174,0.867,0.732,25.635,-0.732
-0.183,-0.148,0.864,-0.732,35.034,-4.15
-0.152,-0.125,0.862,-1.038,41.931,-7.446
-0.115,-0.098,0.862,-1.404,46.997,-9.705
-0.078,-0.063,0.865,-1.892,49.255,-10.437
-0.038,-0.024,0.882,-1.709,49.011,-10.559
-0.011,-0.002,0.896,-0.488,46.57,-10.315
0.015,0.007,0.913,1.709,42.419,-10.071
0.055,0.02,0.932,4.639,36.56,-10.193
0.08,0.022,0.949,8.118,28.564,-10.742
0.088,0.016,0.955,12.268,19.836,-11.292
0.09,0.027,0.966,16.235,11.169,-11.353
0.104,0.022,0.987,19.409,2.869,-8.972
0.121,0.003,1.002,22.461,-5.432,-4.883
0.101,-0.012,1.004,24.414,-13.489,-0.916
0.05,-0.014,1.003,24.231,-19.409,2.991
0.005,-0.022,1.001,23.865,-21.301,5.859
-0.026,-0.028,1.004,23.193,-19.104,7.019
-0.036,-0.029,1.019,22.217,-14.648,7.629
-0.025,-0.051,1.03,20.63,-10.193,8.362
-0.018,-0.051,1.048,18.311,-6.897,7.935
-0.036,-0.034,1.03,15.015,-4.944,7.263
-0.016,0.011,1.108,10.193,-5.066,9.277
-0.021,-0.063,1.027,9.949,-9.949,13.245
-0.052,-0.025,1.041,6.592,-11.414,13.733
-0.072,0.006,1.042,3.967,-13.428,13.611
-0.095,-0.005,1.015,4.517,-15.747,13.733
-0.108,-0.001,1.014,4.822,-16.602,13.184
-0.11,-0.007,1.008,5.737,-17.151,12.512
-0.12,-0.024,1.001,5.737,-17.578,11.902
-0.129,-0.022,1.009,5.493,-17.273,11.169
-0.13,-0.027,1.002,5.127,-16.724,10.559
-0.127,-0.02,1.006,4.517,-16.113,9.644
-0.119,-0.014,1.003,4.7,-16.052,8.789
-0.126,-0.016,1.002,5.188,-15.869,7.935
-0.132,-0.012,1.008,5.554,-15.015,7.507
-0.144,-0.015,1.008,5.737,-13.489,7.324
-0.158,-0.019,1.006,5.188,-11.475,7.202
-0.166,-0.019,1.009,4.211,-9.277,6.714
-0.161,-0.021,1.011,3.052,-7.019,6.104
-0.151,-0.014,1.016,1.648,-5.554,4.883
-0.148,0.001,1.015,0.427,-5.615,3.784
-0.144,0.008,1.008,0.0,-6.348,2.441
-0.148,0.005,0.996,-0.244,-7.507,1.282
-0.156,0.013,0.991,-0.366,-8.362,-0.244
-0.154,0.024,0.988,-0.366,-7.935,-1.953
-0.141,0.028,0.989,0.732,-7.141,-3.235
-0.12,0.023,0.996,2.075,-6.592,-3.418
-0.099,0.015,1.001,2.319,-6.653,-3.479
-0.103,0.018,1.002,1.892,-7.812,-3.784
-0.11,0.021,1.004,1.099,-8.545,-3.601
-0.113,0.014,1.0,0.122,-8.484,-3.54
-0.11,0.015,0.998,-0.488,-7.812,-4.272
-0.109,0.019,0.995,-1.282,-6.47,-5.066
-0.104,0.024,0.993,-1.526,-5.432,-5.615
-0.091,0.023,0.993,-1.221,-4.7,-5.981
-0.077,0.019,0.993,-1.282,-4.456,-5.859
-0.072,0.016,0.99,-1.282,-5.005,-5.981
-0.072,0.013,0.987,-0.854,-5.554,-6.287
-0.072,0.007,0.985,-0.305,-5.737,-6.409
-0.081,0.005,0.987,-0.183,-5.859,-6.348
-0.1,0.005,0.983,0.0,-5.432,-6.287
-0.112,-0.001,0.977,-0.61,-3.723,-6.104
0.236,1.737,0.544,22.827,-16.907,135.254
0.222,1.698,0.517,23.743,-4.333,135.62
0.229,1.573,0.487,25.269,8.057,134.705
0.255,1.483,0.466,25.146,17.395,132.324
0.293,1.435,0.444,23.987,21.851,129.15
0.322,1.294,0.405,24.841,20.874,127.319
0.345,1.129,0.364,25.818,14.954,127.197
0.327,0.969,0.328,27.1,5.432,125.305
0.278,0.817,0.305,30.09,-4.333,122.559
0.215,0.641,0.277,35.706,-13.428,120.178
0.137,0.495,0.268,42.847,-22.034,118.958
0.035,0.34,0.274,51.392,-29.968,118.103
-0.068,0.151,0.276,60.913,-37.659,116.577
-0.17,-0.031,0.289,70.74,-44.25,112.0
-0.255,-0.198,0.327,80.872,-49.805,103.638
-0.31,-0.371,0.383,91.248,-54.199,91.492
-0.34,-0.549,0.438,101.44,-58.411,75.684
-0.41,-0.722,0.474,110.107,-61.707,56.213
-0.444,-0.864,0.516,116.272,-61.707,36.377
-0.45,-0.974,0.557,119.69,-58.838,18.066
-0.431,-1.074,0.595,120.605,-52.551,1.038
-0.385,-1.165,0.629,120.117,-42.786,-14.343
-0.323,-1.218,0.662,117.31,-30.457,-27.771
-0.255,-1.226,0.703,112.915,-18.433,-37.72
-0.177,-1.208,0.761,109.009,-8.362,-45.105
-0.1,-1.189,0.828,107.727,-1.587,-50.537
-0.044,-1.179,0.894,109.131,0.916,-53.955
-0.025,-1.178,0.951,111.45,0.244,-55.847
-0.018,-1.157,0.988,113.586,-1.16,-57.617
-0.023,-1.097,1.014,114.197,-1.587,-59.875
-0.03,-1.029,1.029,113.403,0.732,-61.34
-0.028,-0.973,1.031,109.192,6.104,-59.204
-0.018,-0.909,1.026,100.647,14.099,-53.223
-0.014,-0.83,1.021,87.952,23.193,-45.166
-0.022,-0.749,1.013,73.486,32.288,-35.828
-0.029,-0.68,1.01,58.472,41.016,-25.085
-0.031,-0.613,1.012,44.189,47.546,-14.099
-0.064,-0.544,1.015,32.104,50.964,-4.517
-0.116,-0.485,1.012,23.01,51.392,3.113
-0.152,-0.443,1.01,16.968,49.805,8.423
-0.198,-0.415,1.002,13.489,46.631,9.644
-0.23,-0.398,0.993,10.925,43.091,8.301
-0.252,-0.384,0.966,9.216,39.307,5.432
-0.278,-0.348,0.934,6.958,36.377,1.648
-0.288,-0.291,0.904,4.822,35.217,-2.319
-0.274,-0.243,0.882,3.174,36.011,-5.676
-0.246,-0.213,0.868,2.625,37.048,-9.094
-0.21,-0.194,0.862,2.686,38.391,-12.451
-0.159,-0.181,0.868,5.005,39.001,-16.418
-0.106,-0.162,0.881,8.057,38.452,-20.02
-0.055,-0.156,0.898,11.719,36.316,-21.362
-0.014,-0.165,0.917,15.32,32.471,-20.447
0.003,-0.176,0.938,18.494,26.978,-18.311
-0.002,-0.179,0.957,20.935,20.813,-16.235
-0.021,-0.185,0.979,23.743,15.259,-14.893
-0.03,-0.194,0.998,26.184,10.864,-13.977
-0.039,-0.198,1.021,28.076,7.263,-13.489
-0.045,-0.211,1.052,29.968,3.052,-12.878
-0.054,-0.226,1.083,31.189,-0.977,-11.963
-0.068,-0.238,1.103,31.067,-4.578,-11.169
-0.087,-0.255,1.11,30.029,-7.08,-10.62
-0.102,-0.269,1.106,27.161,-7.507,-10.437
-0.117,-0.27,1.097,22.705,-5.432,-10.498
-0.128,-0.259,1.088,17.334,-1.587,-10.498
-0.124,-0.248,1.081,11.414,4.272,-9.521
-0.113,-0.236,1.072,6.226,10.864,-8.484
-0.09,-0.22,1.067,2.38,17.456,-7.69
-0.065,-0.214,1.064,-0.183,22.4,-6.714
-0.041,-0.215,1.066,-2.075,25.208,-5.493
-0.032,-0.202,1.023,-3.54,26.184,-4.456
-0.005,-0.193,1.084,-5.615,25.818,-2.808
-0.002,-0.205,1.049,-5.554,21.24,-0.61
-0.015,-0.192,1.042,-6.653,18.25,0.916
-0.021,-0.174,1.033,-6.836,14.526,2.136
-0.023,-0.176,1.024,-6.104,10.498,2.93
-0.02,-0.169,1.024,-5.554,6.287,3.357
-0.016,-0.166,1.027,-5.005,1.709,4.333
-0.026,-0.169,1.023,-4.333,-3.296,5.249
-0.047,-0.167,1.016,-3.54,-7.629,5.615
-0.08,-0.164,1.001,-3.113,-10.742,5.493
-0.107,-0.16,1.0,-3.174,-11.78,5.127
-0.118,-0.156,0.999,-3.296,-11.047,4.517
-0.12,-0.154,1.001,-3.662,-9.399,3.906
-0.118,-0.156,1.005,-3.723,-7.69,2.869
-0.116,-0.165,1.005,-3.845,-6.104,1.953
-0.111,-0.168,1.009,-4.333,-4.944,0.793
-0.103,-0.173,1.01,-5.432,-3.662,-0.244
-0.093,-0.171,1.007,-6.104,-2.625,-1.038
-0.082,-0.167,1.004,-7.263,-1.648,-1.526
-0.072,-0.168,1.001,-8.057,-1.343,-1.892
-0.057,-0.173,1.0,-8.667,-1.404,-2.38
-0.045,-0.175,1.0,-8.911,-1.526,-3.052
-0.038,-0.175,0.997,-9.216,-1.953,-3.235
-0.036,-0.172,0.993,-10.132,-2.075,-2.93
-0.04,-0.176,0.986,-11.23,-1.648,-2.136
-0.049,-0.179,0.975,-12.512,-0.427,-1.038
-0.054,-0.167,0.971,-13.977,1.892,-0.671
-0.051,-0.15,0.969,-15.076,4.761,-0.793
-0.038,-0.137,0.97,-15.137,7.996,-1.16
-0.022,-0.133,0.976,-14.709,10.681,-1.343
-0.008,-0.134,0.984,-13.916,12.268,-1.343
0.001,-0.135,0.992,-13.062,12.817,-0.61
0.007,-0.137,0.998,-12.512,12.207,0.244
0.007,-0.145,1.001,-11.414,10.925,1.282
0.004,-0.146,1.001,-10.437,8.972,2.38
0.0,-0.148,1.004,-9.949,6.775,3.235
-0.011,-0.147,1.001,-9.583,4.822,3.54
-0.025,-0.156,0.996,-9.338,4.15,2.686
-0.035,-0.157,0.992,-9.155,3.967,1.526
-0.039,-0.161,0.99,-9.338,4.761,0.549
-0.043,-0.162,0.977,-9.216,5.981,-0.427
-0.048,-0.164,0.962,-9.705,8.118,-1.038
-0.042,-0.174,0.952,-10.254,11.047,-1.831
-0.028,-0.185,0.951,-9.949,13.794,-2.502
-0.004,-0.194,0.944,-8.484,15.808,-3.235
0.029,-0.211,0.942,-6.348,16.785,-4.089
0.062,-0.236,0.932,-4.211,15.564,-4.761
0.085,-0.271,0.922,-2.686,12.268,-4.395
0.093,-0.291,0.904,-2.319,7.446,-4.028
0.491,1.179,0.958,-14.771,25.818,103.394
0.494,1.227,0.94,-14.771,23.01,109.619
0.506,1.286,0.921,-12.878,21.729,113.159
0.543,1.351,0.901,-9.338,20.935,113.342
0.578,1.352,0.871,-3.113,19.348,110.962
0.597,1.343,0.822,5.371,15.808,106.445
0.602,1.34,0.766,14.404,9.216,100.83
0.58,1.309,0.696,24.292,-1.404,96.008
0.544,1.313,0.623,33.813,-13.489,93.75
0.488,1.326,0.559,42.175,-26.123,94.727
0.394,1.326,0.483,50.232,-37.537,98.694
0.274,1.387,0.407,56.396,-44.25,104.187
0.156,1.38,0.343,60.791,-43.457,109.131
0.065,1.328,0.266,65.613,-34.18,113.342
0.033,1.287,0.241,68.054,-16.968,116.272
0.036,1.168,0.235,68.054,1.526,118.164
0.063,1.124,0.224,66.162,17.151,118.774
0.122,1.189,0.246,62.317,28.442,116.821
0.161,1.2,0.247,60.913,32.593,112.549
0.192,1.125,0.222,61.829,29.724,106.689
0.186,1.008,0.205,61.829,20.874,100.464
0.125,0.816,0.186,60.974,6.531,94.727
0.033,0.606,0.147,60.852,-9.888,88.806
-0.065,0.478,0.131,61.096,-25.574,81.116
-0.198,0.304,0.126,64.453,-39.551,71.716
-0.314,0.087,0.119,72.815,-50.537,61.707
-0.375,-0.165,0.139,82.825,-58.167,50.659
-0.406,-0.426,0.178,94.177,-65.735,37.109
-0.412,-0.717,0.237,106.628,-73.792,21.362
-0.411,-0.997,0.315,118.286,-80.811,5.676
-0.37,-1.236,0.424,127.197,-85.266,-6.348
-0.362,-1.465,0.508,132.996,-86.609,-11.963
-0.344,-1.69,0.589,134.827,-82.458,-11.23
-0.316,-1.835,0.664,134.949,-70.862,-9.888
-0.283,-1.879,0.768,136.78,-53.101,-11.353
-0.245,-1.839,0.906,142.395,-32.898,-15.015
-0.203,-1.732,1.059,155.212,-13.367,-19.775
-0.172,-1.596,1.201,174.377,5.066,-24.902
-0.12,-1.501,1.279,195.312,22.339,-29.663
-0.074,-1.454,1.29,205.444,38.208,-35.034
-0.015,-1.4,1.237,196.533,54.565,-44.25
0.115,-1.326,1.167,163.025,73.242,-56.152
0.275,-1.171,1.049,108.215,90.393,-67.81
0.397,-0.984,0.968,44.556,102.844,-72.327
0.503,-0.767,0.91,-12.878,107.788,-65.186
0.567,-0.576,0.901,-51.208,104.248,-49.805
0.561,-0.356,0.917,-67.688,93.567,-30.701
0.53,-0.193,0.95,-62.378,76.05,-8.423
0.459,-0.125,0.948,-41.565,51.453,16.296
0.336,-0.139,0.934,-15.625,24.109,40.222
0.175,-0.178,0.918,6.897,-0.366,59.082
0.01,-0.238,0.922,23.865,-18.86,70.801
-0.125,-0.286,0.934,34.424,-31.555,74.768
-0.229,-0.305,0.967,38.513,-37.781,71.472
-0.291,-0.325,1.002,38.452,-39.612,61.34
-0.335,-0.337,1.02,35.217,-38.513,47.485
-0.357,-0.322,1.03,27.954,-33.936,33.997
-0.363,-0.294,1.025,17.822,-25.818,24.78
-0.367,-0.252,1.005,6.836,-15.625,19.897
-0.362,-0.198,0.982,-3.174,-3.723,17.395
-0.331,-0.144,0.954,-9.644,8.972,13.245
-0.278,-0.104,0.938,-11.963,21.118,6.958
-0.209,-0.072,0.934,-10.071,30.579,0.061
-0.141,-0.062,0.943,-5.31,36.255,-5.31
-0.09,-0.064,0.958,0.488,37.598,-8.362
-0.045,-0.08,0.968,5.92,35.4,-9.094
-0.01,-0.102,0.982,10.803,30.09,-9.277
0.013,-0.124,1.0,14.893,22.644,-9.46
0.025,-0.137,1.012,17.822,13.916,-9.155
0.017,-0.141,1.02,19.47,4.944,-8.24
-0.002,-0.141,1.026,20.081,-2.197,-7.141
-0.027,-0.154,1.029,20.203,-6.714,-6.592
-0.049,-0.168,1.031,19.653,-8.179,-5.92
-0.07,-0.172,1.039,18.25,-7.019,-5.066
-0.088,-0.172,1.042,15.869,-4.028,-3.967
-0.106,-0.175,1.041,12.695,0.061,-3.479
-0.115,-0.18,1.035,9.155,5.371,-3.418
-0.113,-0.178,1.026,5.371,10.681,-4.028
-0.098,-0.169,1.014,1.709,15.625,-5.31
-0.08,-0.156,1.003,-1.221,19.165,-6.897
-0.057,-0.141,0.99,-2.502,21.545,-8.301
-0.032,-0.13,0.978,-2.197,23.071,-9.46
-0.003,-0.128,0.975,-1.282,24.109,-10.193
0.023,-0.128,0.984,0.366,23.804,-10.132
0.048,-0.126,0.994,2.319,21.729,-9.155
0.063,-0.125,1.0,3.479,17.639,-7.019
0.065,-0.129,1.008,4.333,12.512,-4.7
0.062,-0.132,1.019,5.31,7.08,-3.418
0.048,-0.133,1.028,5.737,1.587,-3.052
0.029,-0.136,1.03,6.348,-3.601,-2.808
0.009,-0.142,1.029,6.531,-7.69,-2.991
-0.017,-0.144,1.02,6.409,-10.132,-3.784
-0.035,-0.139,1.009,5.859,-10.62,-4.761
-0.045,-0.138,1.001,5.249,-9.644,-5.371
-0.048,-0.133,0.999,3.601,-7.446,-4.944
-0.043,-0.119,0.998,2.38,-5.005,-4.639
-0.033,-0.11,1.002,2.014,-3.113,-4.578
-0.021,-0.114,1.01,2.686,-1.892,-5.005
-0.01,-0.118,1.016,3.784,-1.587,-5.554
-0.004,-0.124,1.024,4.517,-2.014,-5.92
-0.003,-0.13,1.031,4.395,-2.686,-5.798
-0.015,-0.137,1.03,3.906,-3.235,-5.31
-0.036,-0.138,1.023,2.197,-3.418,-4.822
-0.048,-0.146,1.015,0.122,-2.563,-4.944
-0.051,-0.148,1.005,-2.136,-0.916,-5.676
-0.045,-0.14,1.001,-4.578,1.221,-6.531
-0.04,-0.138,0.994,-6.409,3.723,-7.08
-0.034,-0.131,0.987,-7.08,5.92,-7.629
-0.022,-0.122,0.986,-7.141,7.446,-8.118
-0.008,-0.115,0.989,-6.531,8.179,-7.996
0.002,-0.115,0.991,-5.31,7.751,-8.179
0.011,-0.119,0.996,-4.089,6.531,-8.362
0.023,-0.122,1.001,-3.662,4.822,-8.728
0.035,-0.128,1.004,-2.991,3.174,-8.789
0.039,-0.131,1.004,-3.418,0.977,-8.484
0.029,-0.13,1.001,-3.967,-0.366,-7.69
0.016,-0.13,0.998,-4.395,-0.305,-7.019
0.0,-0.13,0.991,-5.005,1.526,-6.47
-0.007,-0.134,0.979,-5.859,5.188,-5.981
0.917,1.049,0.568,24.414,43.64,65.735
0.959,1.049,0.583,22.522,40.71,78.369
0.958,0.995,0.566,20.02,34.79,90.881
0.92,0.992,0.547,15.32,28.503,102.722
0.867,1.045,0.541,8.789,24.109,112.915
0.797,1.099,0.512,4.7,23.621,121.826
0.74,1.104,0.457,4.517,28.503,128.601
0.708,1.179,0.407,5.005,38.635,131.836
0.689,1.212,0.335,5.737,51.819,131.653
0.67,1.243,0.274,6.714,67.871,131.958
0.712,1.356,0.269,8.362,86.304,131.042
0.788,1.354,0.265,15.198,104.431,133.362
0.892,1.296,0.276,23.01,117.493,140.503
1.032,1.254,0.33,27.344,122.864,148.743
1.139,1.256,0.373,28.076,117.371,157.41
1.199,1.328,0.414,25.391,101.807,164.246
1.123,1.431,0.363,23.621,80.2,167.297
0.963,1.506,0.246,24.475,60.974,168.518
0.754,1.566,0.147,24.17,53.162,170.166
0.536,1.615,0.07,23.376,59.021,169.617
0.347,1.606,0.005,22.827,76.721,164.429
0.208,1.55,-0.068,21.545,103.943,154.602
0.13,1.518,-0.113,20.142,137.817,141.235
0.131,1.477,-0.137,22.4,174.561,127.258
0.165,1.414,-0.136,28.564,206.299,115.662
0.304,1.25,-0.081,37.537,227.722,104.919
0.434,1.082,0.026,47.119,229.675,91.492
0.458,0.931,0.109,60.242,210.754,70.19
0.365,0.766,0.134,76.721,180.115,46.875
0.255,0.571,0.16,91.858,147.339,27.466
0.235,0.348,0.233,103.149,118.774,11.597
0.221,0.1,0.307,108.154,93.445,-0.366
0.184,-0.104,0.355,103.76,71.472,-8.789
0.135,-0.259,0.387,95.581,57.251,-19.592
0.147,-0.447,0.445,88.745,52.246,-30.945
0.227,-0.629,0.503,80.505,54.443,-35.706
0.281,-0.687,0.519,68.787,58.167,-31.555
0.252,-0.697,0.498,64.758,64.514,-28.32
0.254,-0.79,0.488,75.439,79.529,-34.119
0.379,-0.964,0.539,94.116,103.271,-47.485
0.549,-1.127,0.634,107.666,128.601,-56.641
0.787,-1.262,0.707,111.084,143.921,-55.603
0.985,-1.287,0.776,106.018,143.677,-53.711
1.122,-1.263,0.867,97.961,126.343,-59.143
1.218,-1.194,0.936,90.637,95.337,-73.303
1.22,-1.092,0.959,84.29,53.65,-95.154
1.119,-0.995,0.909,78.796,10.498,-122.864
1.019,-0.911,0.863,72.388,-21.24,-150.33
0.993,-0.804,0.846,63.416,-38.696,-168.457
0.984,-0.719,0.839,54.016,-46.143,-175.11
1.018,-0.627,0.834,45.227,-46.265,-170.349
1.082,-0.521,0.841,36.438,-42.786,-155.64
1.083,-0.443,0.824,29.114,-40.466,-137.024
1.064,-0.377,0.8,24.414,-37.842,-119.995
1.014,-0.332,0.764,21.423,-33.264,-106.384
0.949,-0.299,0.721,19.531,-25.757,-96.497
0.887,-0.286,0.674,16.846,-15.076,-87.891
0.828,-0.275,0.612,13.306,-1.648,-78.796
0.801,-0.261,0.571,7.446,13.855,-68.726
0.796,-0.242,0.539,1.221,28.809,-58.899
0.805,-0.223,0.511,-4.578,41.565,-50.415
0.817,-0.186,0.492,-8.789,50.537,-42.847
0.821,-0.129,0.476,-12.634,55.176,-35.4
0.829,-0.071,0.473,-15.198,55.786,-27.893
0.831,-0.036,0.477,-15.32,53.04,-20.935
0.823,-0.022,0.477,-13.489,47.729,-15.259
0.817,-0.017,0.483,-11.414,40.955,-10.864
0.806,-0.009,0.491,-8.789,33.813,-7.202
0.781,-0.004,0.499,-6.653,26.245,-4.089
0.749,0.0,0.501,-5.066,18.921,-2.625
0.727,0.001,0.5,-3.052,13.184,-2.808
0.736,0.004,0.504,-1.16,8.85,-4.211
0.763,0.0,0.518,0.854,4.761,-6.592
0.797,0.006,0.539,2.563,-0.061,-9.399
0.817,0.008,0.565,5.005,-6.104,-12.329
0.838,0.002,0.591,7.751,-12.939,-13.916
0.852,0.009,0.615,10.62,-20.203,-14.282
0.853,0.019,0.635,12.695,-26.855,-12.939
0.849,0.007,0.649,14.526,-32.41,-9.46
0.843,-0.003,0.657,15.32,-36.011,-4.272
0.822,-0.016,0.663,14.465,-37.231,1.526
0.806,-0.027,0.672,12.634,-35.522,7.446
0.79,-0.033,0.676,10.742,-31.372,11.23
0.785,-0.037,0.682,8.85,-25.33,13.184
0.797,-0.042,0.69,7.324,-18.738,14.099
0.829,-0.039,0.714,5.859,-12.939,15.076
0.867,-0.035,0.74,4.883,-9.644,16.724
0.895,-0.031,0.757,5.127,-10.132,18.982
0.913,-0.033,0.77,6.165,-13.794,22.156
0.936,-0.054,0.775,6.958,-19.592,26.306
0.929,-0.078,0.756,7.507,-27.1,29.541
0.923,-0.097,0.735,6.958,-35.461,31.921
0.923,-0.11,0.709,5.981,-43.457,33.325
0.905,-0.11,0.692,5.737,-50.964,33.447
0.857,-0.106,0.671,6.836,-57.373,32.776
0.804,-0.103,0.657,9.399,-59.204,32.898
0.757,-0.102,0.649,13.123,-55.908,34.424
0.722,-0.104,0.634,16.907,-48.035,37.292
0.705,-0.109,0.637,18.555,-36.438,41.26
0.722,-0.145,0.659,18.25,-22.888,46.631
0.747,-0.176,0.682,16.785,-10.681,51.758
0.784,-0.185,0.717,13.977,-1.404,55.298
0.829,-0.206,0.757,11.475,3.54,58.044
0.866,-0.24,0.778,9.949,2.991,61.035
0.883,-0.26,0.791,7.629,-2.747,63.965
0.883,-0.267,0.785,4.517,-12.512,66.711
0.845,-0.213,0.753,0.488,-24.292,68.542
0.799,-0.141,0.729,-3.723,-34.729,69.519
0.769,-0.098,0.712,-6.714,-43.03,70.679
0.741,-0.08,0.695,-8.606,-49.683,72.571
0.713,-0.062,0.69,-10.498,-54.199,75.378
0.684,-0.077,0.693,-12.878,-57.495,79.834
0.658,-0.107,0.687,-16.235,-58.777,84.778
0.61,-0.076,0.677,-20.874,-58.411,87.646
0.559,-0.021,0.676,-24.353,-55.969,87.524
0.505,0.049,0.672,-25.391,-51.331,84.839
0.453,0.137,0.671,-23.56,-44.434,80.383
0.427,0.192,0.68,-19.348,-36.194,75.806
0.442,0.195,0.692,-14.832,-27.222,71.96
0.921,1.615,-0.051,114.99,17.639,71.35
0.999,1.647,-0.048,114.807,21.545,85.388
1.032,1.741,-0.064,108.582,23.315,103.577
1.041,1.882,-0.084,99.426,24.78,117.676
0.988,2.052,-0.109,90.454,28.503,124.329
0.906,2.164,-0.143,82.581,33.997,126.465
0.859,2.14,-0.193,77.576,39.49,127.136
0.832,2.013,-0.226,75.439,43.03,125.061
0.829,1.897,-0.214,75.684,41.321,119.507
