aX,aY,aZ,gX,gY,gZ
1.175,-0.079,-0.715,15.198,453.064,-26.794
1.004,-0.04,-0.71,17.456,418.335,-10.132
0.979,-0.257,-0.833,22.705,382.751,7.568
0.961,-0.277,-0.821,10.803,351.99,12.939
0.889,-0.182,-0.777,-2.197,314.88,14.099
0.847,-0.179,-0.818,-7.08,271.606,18.433
0.835,-0.231,-0.859,-10.071,228.088,22.705
0.846,-0.228,-0.92,-14.771,186.157,23.865
0.757,-0.156,-0.847,-17.212,147.034,24.902
0.831,-0.194,-0.836,-15.808,103.455,30.273
0.878,-0.211,-0.833,-15.93,53.284,33.447
0.901,-0.186,-0.831,-15.686,1.221,34.241
0.904,-0.199,-0.804,-13.489,-52.002,35.706
0.946,-0.212,-0.874,-11.047,-111.145,36.743
0.927,-0.206,-0.883,-9.949,-163.391,35.583
0.887,-0.179,-0.877,-8.24,-210.449,35.522
0.882,-0.237,-0.949,-4.333,-252.319,36.804
0.857,-0.226,-0.976,-2.686,-281.616,36.072
0.815,-0.195,-0.96,-1.648,-299.866,37.292
0.764,-0.217,-0.97,1.282,-309.509,43.335
0.727,-0.23,-0.941,2.197,-310.364,49.744
0.726,-0.199,-0.88,-0.671,-304.504,54.626
0.756,-0.182,-0.816,-2.014,-295.593,59.387
0.791,-0.185,-0.736,-3.113,-286.316,62.927
0.85,-0.208,-0.648,-6.348,-278.809,64.148
0.917,-0.218,-0.581,-12.878,-276.001,64.209
1.018,-0.237,-0.539,-20.569,-279.663,63.538
1.156,-0.237,-0.491,-30.701,-292.297,64.819
1.255,-0.209,-0.416,-41.931,-316.528,67.505
1.337,-0.176,-0.366,-50.476,-350.281,70.74
1.402,-0.137,-0.328,-56.458,-391.357,76.294
1.458,-0.094,-0.297,-58.167,-435.73,83.13
1.524,-0.085,-0.287,-56.335,-481.323,93.018
1.512,-0.122,-0.283,-54.749,-527.893,106.812
1.424,-0.124,-0.283,-52.551,-570.374,117.371
1.321,-0.09,-0.275,-51.025,-601.074,127.075
1.297,-0.073,-0.213,-48.34,-621.704,140.442
1.179,-0.106,-0.237,-44.25,-640.625,154.724
1.036,-0.049,-0.186,-40.222,-650.818,166.016
0.954,-0.055,-0.092,-35.583,-656.006,179.871
0.809,-0.092,-0.092,-30.334,-662.109,190.002
0.583,-0.038,-0.073,-26.306,-658.447,193.97
0.316,0.03,-0.032,-20.386,-639.526,195.618
0.023,0.064,0.002,-9.399,-602.905,193.726
-0.237,0.14,0.049,4.7,-545.471,186.462
-0.531,0.167,0.119,21.423,-467.285,173.462
-0.834,0.173,0.188,39.551,-366.882,154.053
-1.093,0.17,0.267,56.519,-245.239,125.366
-1.105,0.12,0.345,69.275,-106.14,89.966
-0.98,0.037,0.352,73.608,37.354,52.49
-0.849,-0.073,0.318,71.411,183.594,12.329
-0.565,-0.153,0.327,63.11,323.792,-29.419
-0.213,-0.222,0.332,50.781,440.613,-67.383
0.035,-0.166,0.266,36.011,530.579,-101.501
0.293,-0.171,0.211,25.33,606.384,-123.718
0.624,-0.25,0.205,13.977,664.856,-136.536
1.488,-0.404,-0.984,-9.033,539.673,-59.204
1.231,0.161,-0.427,-45.715,534.302,-64.27
1.202,-0.012,-0.574,-27.649,487.122,-42.236
1.243,-0.182,-0.736,-14.709,428.833,-21.79
1.199,-0.111,-0.574,-23.01,380.371,-8.85
1.139,0.003,-0.504,-28.137,323.914,1.709
1.141,-0.237,-0.755,-24.231,258.545,17.273
1.061,-0.312,-0.742,-33.508,202.393,19.47
0.929,-0.134,-0.713,-48.584,146.057,12.39
0.929,-0.164,-0.795,-47.058,92.224,15.198
0.962,-0.172,-0.832,-44.434,43.152,19.409
0.921,-0.139,-0.833,-40.771,-3.723,21.118
0.896,-0.135,-0.857,-33.997,-51.941,21.423
0.98,-0.162,-0.863,-26.672,-99.243,22.339
1.057,-0.184,-0.852,-21.301,-149.78,24.536
1.193,-0.21,-0.849,-17.273,-208.374,27.71
1.279,-0.209,-0.895,-14.465,-272.156,31.555
1.374,-0.217,-0.908,-13.123,-337.463,38.94
1.46,-0.235,-0.944,-12.756,-408.02,47.791
1.496,-0.254,-0.991,-12.512,-477.173,52.917
1.593,-0.235,-0.961,-13.55,-538.147,57.129
1.597,-0.211,-1.036,-14.038,-597.168,64.087
1.51,-0.211,-1.066,-14.282,-643.677,73.914
1.51,-0.245,-0.988,-16.968,-675.476,88.928
1.466,-0.246,-0.931,-21.484,-701.355,105.286
1.404,-0.236,-0.889,-25.452,-721.68,124.329
1.211,-0.238,-0.839,-30.396,-731.201,145.63
1.082,-0.244,-0.718,-34.729,-725.037,166.809
1.044,-0.208,-0.563,-39.795,-709.473,187.622
1.047,-0.185,-0.421,-43.213,-691.406,208.496
0.982,-0.157,-0.325,-44.25,-677.063,227.722
0.874,-0.116,-0.238,-41.931,-662.109,244.324
0.782,-0.066,-0.132,-33.997,-643.433,256.958
0.627,0.002,-0.074,-21.973,-622.62,265.503
0.427,0.073,-0.011,-4.089,-593.872,266.968
0.176,0.173,0.101,18.921,-552.429,257.446
-0.019,0.261,0.191,47.241,-496.948,242.859
-0.221,0.273,0.293,77.637,-428.406,223.45
-0.464,0.177,0.335,107.666,-348.389,197.937
-0.608,0.012,0.365,129.578,-256.47,166.565
-0.583,-0.098,0.525,136.169,-150.757,131.226
-0.522,-0.153,0.666,127.93,-43.762,96.13
-0.448,-0.28,0.728,113.342,53.345,63.477
-0.289,-0.382,0.766,91.675,139.282,29.724
-0.119,-0.323,0.839,62.195,212.708,-2.502
0.098,-0.281,0.851,34.18,274.841,-22.766
0.199,-0.218,0.804,8.423,324.158,-37.354
0.2,-0.104,0.723,-9.766,370.85,-48.401
0.284,-0.138,0.588,-20.02,423.279,-50.781
0.427,-0.051,0.476,-30.762,480.713,-52.307
0.617,0.017,0.361,-35.217,536.926,-49.072
0.869,0.002,0.222,-34.607,582.397,-39.612
1.075,0.003,0.127,-35.217,611.023,-27.527
1.075,0.082,-0.02,-36.743,624.146,-15.015
0.3,-0.012,-0.63,-32.471,636.78,-0.427
1.785,-0.119,-0.311,-39.368,687.134,-11.536
1.396,0.341,-0.185,-48.584,710.205,-24.048
1.077,0.267,-0.294,-34.729,695.435,-5.798
1.399,0.326,-0.437,-26.733,678.284,6.226
1.656,-0.092,-0.437,-23.01,648.499,7.446
1.417,0.214,-0.209,-33.203,617.004,-17.456
1.438,0.237,-0.438,-22.034,554.81,-21.484
1.393,0.211,-0.459,-4.639,502.747,-31.189
1.334,0.192,-0.195,13.062,463.989,-39.063
1.281,0.173,-0.207,23.132,405.518,-40.71
1.292,0.084,-0.256,26.55,345.215,-35.522
1.264,0.062,-0.295,23.56,290.771,-27.771
1.218,0.068,-0.336,18.677,235.84,-17.7
1.182,0.065,-0.34,14.221,178.101,-7.812
1.193,0.089,-0.392,9.949,114.563,-0.061
1.178,0.105,-0.539,9.46,53.589,5.249
1.128,0.089,-0.568,14.832,3.296,8.362
1.037,0.088,-0.562,20.874,-44.25,10.559
1.038,0.085,-0.63,25.391,-91.736,13.306
1.032,0.09,-0.656,28.687,-128.845,17.09
0.933,0.102,-0.694,30.762,-159.241,23.071
0.895,0.044,-0.775,31.677,-181.03,30.762
0.886,0.002,-0.749,28.687,-190.552,36.011
0.831,0.062,-0.708,20.996,-198.12,39.429
0.867,0.063,-0.726,15.076,-204.895,43.762
0.811,0.122,-0.653,10.193,-203.674,45.715
0.801,0.143,-0.6,6.714,-201.294,48.462
0.834,0.187,-0.548,3.052,-196.533,50.598
0.832,0.2,-0.492,1.77,-187.866,52.185
0.771,0.261,-0.439,1.709,-178.772,50.232
0.788,0.258,-0.397,3.235,-169.067,48.035
0.786,0.271,-0.308,4.333,-157.41,43.396
0.771,0.29,-0.229,4.211,-148.315,37.903
0.774,0.276,-0.198,2.991,-141.968,31.921
0.778,0.214,-0.173,-1.648,-135.315,27.161
0.725,0.203,-0.149,-13.733,-126.892,23.315
0.651,0.226,-0.098,-29.48,-114.197,19.47
0.627,0.294,-0.053,-45.166,-96.802,18.127
0.651,0.391,-0.08,-56.946,-78.308,18.799
0.709,0.472,-0.103,-59.326,-59.937,22.034
0.79,0.496,-0.113,-52.612,-46.021,25.757
0.844,0.476,-0.112,-40.833,-38.818,26.917
0.878,0.313,-0.082,-27.466,-36.804,23.743
1.112,0.031,0.059,-15.198,-43.274,9.094
1.033,0.083,0.221,-29.114,-72.693,-5.92
1.073,-0.014,0.084,-53.04,-94.36,-2.075
0.554,-0.96,0.959,-68.726,-88.501,11.23
0.458,0.037,1.244,-125.061,-3.052,12.939
1.096,1.364,-0.447,-123.047,6.165,40.955
1.203,0.198,-0.785,-69.702,-54.993,50.415
0.691,0.196,-0.142,-48.035,-10.071,38.208
0.808,0.296,0.189,-45.105,3.418,21.851
0.796,0.104,-0.074,-32.471,-12.268,6.592
0.64,0.161,-0.13,-32.288,-15.32,-13.245
0.666,0.149,-0.162,-29.175,-0.366,-24.658
0.925,0.085,-0.161,-29.297,10.681,-23.682
1.151,0.049,-0.042,-35.522,18.555,-16.541
1.188,0.126,-0.006,-40.344,14.893,-6.714
1.254,0.106,-0.138,-37.17,1.709,2.808
1.173,0.03,-0.14,-30.64,-11.658,5.554
1.085,-0.01,-0.168,-22.766,-23.743,5.737
0.993,0.004,-0.184,-19.043,-33.569,5.188
0.932,0.04,-0.131,-17.273,-34.668,5.249
0.878,0.052,-0.121,-17.639,-27.771,2.747
1.796,0.374,1.202,-33.081,62.256,9.827
1.425,0.677,0.617,-61.401,-15.442,18.127
1.082,0.845,0.302,-60.974,-55.481,19.348
0.933,0.727,0.244,-38.513,-57.678,18.921
0.841,0.561,0.193,-19.775,-51.453,21.24
0.743,0.525,0.084,-10.437,-43.579,20.569
0.695,0.561,0.081,-9.338,-39.063,14.343
0.663,0.5,0.005,-14.954,-37.72,11.292
0.582,0.456,-0.341,-17.761,-33.63,14.465
0.674,0.354,-0.744,-10.681,-21.667,18.616
0.641,-0.093,-0.75,-0.488,-0.916,14.16
0.837,-0.181,-0.425,-2.563,25.391,5.859
0.908,-0.104,-0.447,-20.996,27.283,2.93
0.912,0.123,-0.294,-37.842,25.391,-2.319
0.979,0.401,-0.08,-40.466,38.818,-12.024
1.075,0.391,-0.079,-24.841,51.086,-18.982
1.151,0.234,-0.052,-0.671,60.608,-25.269
1.252,0.207,0.081,16.418,63.354,-31.311
1.181,0.199,0.048,28.87,54.199,-33.936
1.133,0.211,0.092,42.969,47.18,-38.757
1.144,0.215,0.266,57.983,45.593,-46.265
1.11,0.111,0.296,70.618,37.537,-54.81
0.902,-0.129,0.204,73.181,26.245,-64.148
0.832,-0.295,0.132,57.556,22.522,-71.655
0.848,-0.308,0.153,27.161,18.555,-77.576
0.805,-0.283,0.042,-5.737,3.845,-82.703
0.722,-0.233,-0.02,-35.034,-12.085,-80.139
0.852,-0.18,-0.089,-60.364,-21.912,-66.772
0.943,-0.104,-0.156,-78.796,-33.569,-49.377
1.032,-0.096,-0.172,-85.693,-46.082,-30.212
1.09,-0.099,-0.159,-86.914,-57.434,-9.155
1.088,-0.017,-0.137,-87.28,-66.528,12.268
1.092,0.114,-0.072,-82.764,-70.923,30.273
1.066,0.136,-0.055,-69.214,-67.322,38.757
1.083,0.079,-0.089,-52.979,-57.007,40.405
1.127,-0.066,-0.162,-44.128,-44.25,34.058
0.934,-0.162,-0.25,-44.006,-35.339,18.86
1.203,0.218,-0.048,-42.847,-27.649,8.423
1.259,0.024,-0.021,-32.166,-35.034,12.268
1.161,0.103,-0.013,-29.297,-52.368,14.771
1.039,-0.084,-0.06,-27.405,-68.054,20.874
0.991,0.008,0.011,-33.02,-72.205,21.851
1.287,0.083,0.107,-36.682,-83.069,25.696
1.033,0.106,0.106,-37.17,-103.027,31.982
0.995,0.17,0.092,-35.156,-114.563,40.771
1.014,0.273,0.135,-31.006,-118.591,47.668
0.915,0.436,0.236,-21.729,-118.286,55.359
0.926,0.43,0.276,-6.104,-117.737,63.904
0.801,0.432,0.289,6.714,-113.098,62.988
0.748,0.365,0.27,19.043,-102.539,59.326
0.803,0.268,0.246,29.236,-87.708,57.068
0.844,0.137,0.17,34.912,-72.449,54.321
0.856,0.067,0.158,34.18,-56.274,50.598
0.876,0.115,0.146,29.236,-39.368,49.622
0.984,0.107,0.157,27.527,-23.682,51.636
1.084,0.066,0.175,24.597,-17.822,54.81
1.086,0.068,0.231,17.578,-23.499,55.359
1.14,0.21,0.285,6.958,-33.325,53.223
1.154,0.217,0.351,-2.014,-45.715,51.819
1.132,0.305,0.427,-14.893,-62.073,47.485
1.172,0.388,0.454,-29.114,-83.191,45.41
1.146,0.315,0.382,-39.612,-105.835,49.316
0.984,0.238,0.296,-47.424,-122.009,49.438
0.819,0.133,0.204,-52.185,-125.183,40.833
0.934,0.385,0.242,-54.443,-115.845,25.452
0.931,0.296,0.174,-46.448,-102.417,22.705
0.874,0.3,0.157,-44.006,-85.144,17.761
0.962,0.296,0.256,-43.03,-64.331,15.869
0.96,0.263,0.216,-42.603,-57.495,14.771
0.936,0.235,0.209,-40.771,-55.42,11.902
1.002,0.259,0.225,-37.842,-52.979,8.85
1.015,0.276,0.259,-34.546,-53.04,9.766
0.987,0.244,0.22,-32.349,-58.716,13.672
0.987,0.227,0.273,-31.25,-62.439,15.93
1.062,0.216,0.347,-30.518,-69.214,18.066
1.067,0.262,0.318,-30.273,-87.158,17.761
1.057,0.321,0.287,-28.625,-104.309,17.761
1.009,0.364,0.243,-25.391,-120.178,19.897
0.967,0.397,0.217,-19.043,-133.728,23.071
0.968,0.433,0.252,-10.498,-145.569,26.733
0.944,0.413,0.261,1.343,-159.729,29.358
0.921,0.386,0.271,13.672,-174.683,29.419
0.895,0.369,0.275,24.048,-187.988,29.053
0.817,0.378,0.323,32.959,-197.998,28.198
0.771,0.39,0.375,41.504,-203.674,30.396
0.655,0.219,0.299,44.922,-209.045,34.668
-0.225,0.273,0.246,42.847,-211.365,60.547
1.681,0.325,0.412,35.034,-184.326,82.581
0.551,0.333,0.481,39.063,-185.12,46.204
0.36,0.355,0.447,46.753,-212.585,55.603
0.57,0.406,0.467,48.096,-217.651,54.016
0.442,0.412,0.51,50.354,-208.557,42.725
0.229,0.348,0.516,51.514,-190.857,32.104
0.35,0.394,0.507,50.476,-166.687,26.428
0.274,0.405,0.562,47.729,-141.418,6.836
0.15,0.334,0.653,52.307,-119.019,-7.446
0.216,0.357,0.683,54.138,-98.877,-15.747
0.297,0.345,0.681,54.993,-80.017,-23.193
0.401,0.376,0.75,54.932,-63.843,-30.029
0.669,0.359,0.817,55.237,-59.814,-37.354
0.407,0.332,0.852,59.204,-66.833,-39.124
0.454,0.322,0.804,61.951,-76.843,-29.602
0.512,0.307,0.83,63.538,-80.811,-23.437
0.45,0.246,0.882,65.613,-83.618,-18.616
0.379,0.232,0.904,65.979,-85.022,-14.099
0.42,0.161,0.922,64.148,-81.909,-10.986
0.44,0.124,0.951,59.631,-78.064,-10.864
0.402,0.136,0.972,54.077,-76.477,-12.329
0.428,0.106,0.969,48.706,-76.843,-12.268
0.416,0.081,0.938,43.091,-78.857,-13.123
0.271,0.084,0.902,38.269,-80.933,-12.512
0.167,0.127,0.865,35.339,-78.43,-7.324
0.104,0.205,0.843,35.034,-65.247,-3.296
0.116,0.157,0.853,38.574,-40.1,-3.296
0.115,0.113,0.887,41.687,-10.986,-5.31
0.172,0.133,0.915,41.931,13.977,-8.24
0.199,0.063,0.935,41.748,33.081,-12.146
0.287,0.078,0.926,40.894,44.128,-13.062
0.35,0.07,0.932,40.222,48.584,-15.747
1.376,0.591,0.71,-101.257,282.166,79.956
1.426,0.624,0.664,-94.055,273.743,93.018
1.427,0.715,0.643,-87.952,266.418,106.323
1.342,0.834,0.6,-78.186,258.728,121.399
1.508,0.818,0.511,-64.941,254.639,132.324
1.476,0.763,0.478,-54.077,250.793,129.7
1.423,0.736,0.441,-46.936,248.108,132.019
1.412,0.727,0.35,-46.082,243.103,138.184
1.388,0.717,0.27,-48.401,233.093,147.034
1.353,0.713,0.232,-54.626,219.055,157.593
1.321,0.706,0.236,-62.744,203.491,168.518
1.231,0.758,0.226,-69.641,183.35,176.575
1.171,0.865,0.156,-70.984,159.058,184.326
1.112,0.865,0.082,-66.162,136.597,193.481
0.967,0.865,0.016,-58.533,121.765,197.876
0.83,0.865,-0.046,-50.293,112.671,198.425
0.765,0.854,-0.092,-41.26,108.521,196.716
0.695,0.838,-0.123,-32.471,107.971,194.641
0.573,0.822,-0.155,-25.33,107.361,195.801
0.472,0.802,-0.163,-20.752,106.506,199.951
0.433,0.8,-0.151,-18.25,104.37,206.055
0.431,0.771,-0.149,-16.113,99.915,211.67
0.395,0.729,-0.181,-14.404,93.079,214.172
0.307,0.707,-0.198,-14.954,86.243,213.928
0.219,0.703,-0.193,-15.991,81.238,212.769
0.164,0.715,-0.214,-15.991,77.698,210.632
0.088,0.706,-0.256,-15.198,75.806,208.801
0.011,0.697,-0.265,-15.259,76.05,208.13
-0.034,0.708,-0.273,-14.771,76.721,206.543
-0.062,0.711,-0.275,-13.245,77.148,203.613
-0.09,0.721,-0.27,-12.451,75.745,200.378
-0.088,0.732,-0.258,-10.498,70.618,195.068
-0.075,0.747,-0.283,-6.775,61.157,186.584
-0.086,0.773,-0.309,-1.526,49.683,176.331
-0.142,0.785,-0.302,5.798,39.368,165.527
-0.176,0.755,-0.305,13.55,31.555,156.738
-0.194,0.72,-0.288,18.372,27.161,149.231
-0.221,0.703,-0.254,19.592,26.367,143.738
-0.248,0.686,-0.237,19.043,27.039,141.357
-0.268,0.661,-0.242,16.296,28.381,140.137
-0.29,0.655,-0.259,12.573,31.128,139.465
-0.305,0.664,-0.276,10.376,34.546,140.137
-0.295,0.664,-0.282,11.475,35.4,140.686
-0.281,0.64,-0.29,16.602,32.043,139.648
-0.285,0.612,-0.281,23.132,25.085,137.573
-0.295,0.585,-0.265,29.541,14.343,135.498
-0.318,0.571,-0.257,37.231,0.183,131.409
-0.349,0.544,-0.263,46.509,-14.709,124.939
-0.356,0.483,-0.258,56.702,-29.053,118.042
-0.362,0.39,-0.258,67.017,-44.006,110.291
-0.386,0.292,-0.228,75.5,-60.059,100.647
-0.391,0.229,-0.179,78.308,-77.271,88.989
-0.414,0.223,-0.156,77.576,-98.022,77.026
-0.45,0.275,-0.205,72.754,-119.019,69.092
-0.474,0.229,-0.354,68.176,-131.409,68.604
-0.484,0.015,-0.1,66.467,-133.606,70.129
-0.566,-0.001,0.235,39.429,-135.254,68.848
-0.68,0.104,0.57,-9.644,-126.77,67.505
-0.868,0.435,0.214,-61.401,-103.149,52.673
-0.893,0.596,0.013,-86.792,-66.467,35.522
-0.713,0.777,-0.089,-93.262,-27.222,12.878
-0.543,0.92,-0.159,-84.412,-4.272,-8.179
-0.522,0.981,-0.184,-68.054,7.019,-28.076
-0.551,0.965,-0.181,-52.063,15.442,-47.058
-0.542,0.915,-0.218,-41.138,29.907,-61.34
-0.452,0.9,-0.169,-33.508,55.176,-67.505
-0.322,0.961,-0.258,-31.616,78.308,-65.369
-0.219,1.007,-0.322,-23.682,100.098,-56.641
-0.025,0.924,-0.043,-19.348,105.957,-47.424
0.171,0.963,0.033,-26.794,82.581,-39.734
0.137,1.017,-0.231,-35.156,48.767,-28.381
0.017,1.08,-0.331,-31.189,21.24,-14.526
0.007,1.012,-0.313,-19.897,3.662,-2.258
-0.028,0.858,-0.334,-12.39,-8.484,2.075
-0.185,0.779,-0.489,-11.78,-16.846,0.244
-0.362,0.78,-0.625,-9.216,-12.512,-5.676
-0.469,0.782,-0.66,-1.709,4.517,-13.245
-0.488,0.722,-0.578,8.057,28.564,-20.386
-0.457,0.64,-0.477,13.733,44.006,-24.902
-0.43,0.677,-0.382,22.4,53.223,-31.311
-0.428,0.731,-0.35,29.907,49.683,-32.715
-0.506,0.791,-0.354,42.847,38.818,-34.79
-0.523,0.755,-0.277,59.937,40.527,-35.889
-0.435,0.715,-0.055,74.341,54.077,-39.246
-0.409,0.637,0.137,76.416,67.993,-43.335
-0.443,0.608,0.259,60.059,87.708,-52.002
-0.177,0.639,0.355,36.072,107.971,-60.364
0.34,0.798,0.329,11.108,96.619,-61.523
0.421,0.996,0.267,-3.723,54.626,-53.65
0.22,1.027,0.326,-10.071,15.747,-43.335
0.12,1.008,0.324,-19.47,-9.949,-29.724
-0.018,1.018,0.257,-34.668,-22.095,-17.639
-0.178,1.015,0.163,-52.002,-20.02,-9.827
-0.285,1.0,0.097,-70.801,-10.437,-7.69
-0.359,0.857,0.052,-94.849,0.732,-9.399
-0.461,0.749,-0.087,-121.948,7.019,-14.221
-0.499,0.705,-0.442,-148.743,11.78,-20.325
-0.473,1.033,-1.173,-149.536,-0.305,-30.273
-0.607,1.124,-1.281,-104.614,-15.564,-37.292
-0.71,0.892,-1.049,-59.326,17.212,-39.673
-0.416,0.785,-0.368,-34.668,49.5,-50.171
-0.248,0.9,-0.212,-40.894,59.143,-63.354
-0.222,1.1,-0.09,-55.054,66.895,-71.045
0.002,1.154,-0.1,-62.012,70.923,-72.205
0.137,1.111,-0.165,-62.5,63.171,-64.758
0.121,1.073,-0.226,-56.519,46.387,-51.27
0.104,0.912,-0.207,-48.523,30.823,-35.522
0.047,0.707,-0.228,-46.753,13.062,-20.752
-0.098,0.582,-0.274,-53.406,-4.639,-9.766
-0.306,0.568,-0.356,-64.209,-14.832,-6.897
-0.512,0.659,-0.469,-70.557,-12.024,-12.634
-0.72,0.863,-0.576,-67.688,4.15,-23.926
-0.75,0.982,-0.471,-51.147,34.668,-38.025
-0.588,0.938,-0.265,-33.142,58.96,-53.162
-0.578,0.845,-0.185,-26.062,60.303,-71.106
-0.676,0.831,-0.165,-27.832,59.937,-87.402
-0.645,0.864,-0.113,-35.461,62.744,-101.501
-0.628,0.9,-0.149,-47.058,65.063,-115.356
-0.568,0.982,-0.175,-60.547,66.956,-132.629
1.044,0.852,0.184,36.438,-30.273,-37.598
0.857,0.588,0.229,18.616,-84.106,-2.014
0.831,0.501,0.317,-2.625,-122.803,22.339
0.71,0.559,0.216,-30.212,-163.94,31.799
0.419,0.712,-0.067,-51.941,-187.073,26.55
0.175,0.919,-0.342,-55.115,-166.687,12.695
0.222,0.843,-0.321,-38.33,-109.863,-1.343
0.364,0.677,-0.083,-27.161,-59.57,-16.663
0.732,0.543,-0.132,-37.231,-24.597,-21.729
1.045,0.634,-0.119,-49.194,-3.845,-19.531
0.924,0.583,-0.167,-50.415,-0.854,-8.911
0.728,0.69,0.018,-43.518,-13.062,-4.333
0.508,0.784,0.084,-37.842,-31.25,-4.15
0.583,0.91,0.052,-34.851,-35.217,-1.465
0.611,0.9,-0.088,-27.161,-43.396,8.728
0.473,0.741,-0.164,-15.503,-47.241,15.991
0.474,0.676,-0.18,-9.644,-35.278,15.808
0.523,0.766,-0.264,-6.897,-24.841,9.277
0.478,0.806,-0.306,-1.343,-12.268,4.639
0.536,0.736,-0.204,5.981,5.981,5.371
0.618,0.668,-0.048,13.184,21.423,5.554
0.654,0.775,0.056,19.775,30.701,0.854
0.708,0.855,0.121,27.222,33.325,-1.77
0.792,0.936,0.166,38.757,29.663,-2.014
0.691,0.979,0.157,52.185,20.142,-1.648
0.444,0.959,0.003,62.012,25.818,0.122
0.53,0.688,0.179,70.801,55.298,1.343
0.408,0.69,0.233,70.251,70.618,-8.85
0.513,0.667,0.174,58.96,75.134,-15.869
0.73,0.482,0.228,41.809,71.411,-13.855
0.973,0.397,0.183,14.465,49.622,-4.7
1.123,0.384,0.333,-17.944,11.414,13.123
1.121,0.444,0.205,-52.917,-44.556,36.072
0.893,0.555,0.148,-82.336,-93.323,59.814
0.699,0.618,0.236,-102.051,-120.3,75.562
0.599,0.711,0.096,-118.53,-135.864,85.266
0.622,0.657,0.069,-132.202,-135.071,95.398
0.639,0.706,-0.173,-146.301,-121.521,105.103
0.775,0.708,-0.216,-143.25,-95.093,111.084
0.773,0.65,-0.178,-123.108,-71.35,108.704
0.59,0.679,-0.121,-102.783,-65.369,92.957
0.501,0.759,-0.124,-91.187,-58.35,81.787
0.567,0.862,-0.164,-82.031,-56.335,77.087
0.682,0.891,-0.129,-67.749,-65.796,85.999
0.141,0.794,-0.171,-54.565,-88.989,93.567
-0.097,0.965,-0.294,-48.035,-87.036,84.595
-0.219,1.041,-0.352,-33.081,-68.726,74.28
-0.151,0.958,-0.438,-14.587,-47.668,56.213
0.068,0.843,-0.384,-1.038,-21.79,47.241
0.272,0.663,-0.405,4.15,-7.996,41.565
0.549,0.612,-0.391,3.845,-3.479,40.833
0.709,0.71,-0.316,3.906,-9.338,47.241
0.723,0.806,-0.243,5.127,-20.264,59.204
0.778,0.866,-0.072,8.667,-32.715,72.083
0.724,0.904,0.234,9.766,-44.8,85.083
0.389,0.92,0.532,2.441,-51.453,91.125
0.015,1.159,0.402,-9.46,-60.486,79.468
-0.03,1.342,0.109,-8.85,-66.772,65.186
0.004,1.193,0.219,2.625,-52.307,63.477
-0.099,1.062,0.364,4.395,-48.035,56.213
-0.204,1.027,0.379,-9.705,-53.345,46.936
-0.058,1.016,0.343,-33.691,-53.711,47.241
0.088,1.017,0.151,-59.143,-59.937,56.885
0.213,0.898,-0.158,-78.491,-64.941,72.083
0.57,0.753,-0.576,-87.524,-51.697,93.689
0.845,0.761,-0.57,-74.097,-41.626,111.511
0.637,0.794,-0.509,-53.223,-49.561,99.426
0.296,0.892,-0.246,-37.415,-33.875,80.444
0.098,1.04,-0.047,-27.893,-17.212,53.04
0.124,1.144,-0.03,-20.569,4.028,23.621
0.334,1.159,-0.007,-10.071,16.113,13.123
0.206,1.073,0.021,1.343,8.484,14.771
0.097,0.969,-0.04,6.897,0.732,21.912
0.18,0.929,-0.083,9.155,-2.075,32.593
0.246,0.902,-0.09,10.864,-7.874,46.814
0.352,0.841,-0.042,9.521,-19.409,67.444
0.403,0.809,-0.057,6.775,-37.048,88.501
0.255,0.914,-0.206,6.042,-45.41,101.685
0.128,1.06,-0.331,15.869,-33.325,106.384
0.147,1.229,-0.435,41.809,-8.911,100.525
0.075,1.108,-0.34,78.064,17.151,86.365
-0.13,0.733,-0.009,101.074,41.748,60.181
-0.311,0.398,0.27,91.431,70.679,29.907
-0.056,0.429,0.411,58.96,89.478,-3.906
0.204,0.664,0.505,27.71,70.984,-35.278
0.073,0.937,0.389,4.272,28.259,-45.227
0.09,0.922,0.325,-7.935,-3.967,-24.902
0.092,0.875,0.366,-14.648,-28.198,3.845
0.024,0.901,0.306,-26.245,-52.429,23.071
-0.088,0.931,0.122,-38.086,-68.604,31.86
-0.049,0.912,0.015,-44.312,-65.125,35.522
0.063,0.899,-0.14,-46.997,-50.842,34.79
0.199,0.894,-0.336,-43.335,-39.246,29.907
0.183,0.798,-0.46,-31.677,-28.931,24.902
0.175,0.808,-0.354,-18.005,-14.16,19.47
0.255,0.79,-0.192,-11.414,-1.038,16.968
0.158,0.863,-0.054,-9.583,9.338,12.207
0.194,0.865,0.053,-10.803,8.301,6.714
0.153,1.01,0.139,-10.986,4.7,10.498
0.142,1.064,0.299,-7.69,2.625,13.55
0.206,1.101,0.329,-3.967,-5.859,23.071
0.156,1.116,0.392,3.601,-19.226,36.682
0.085,1.129,0.392,12.939,-35.034,46.692
-0.067,1.08,0.368,21.973,-46.326,52.673
-0.137,1.064,0.262,26.611,-48.523,50.171
-0.12,1.04,0.212,27.771,-45.166,44.373
-0.071,0.945,0.13,24.719,-42.358,37.659
-0.093,0.864,0.118,19.714,-44.312,31.433
-0.123,0.838,0.057,7.996,-47.729,25.146
-0.108,0.847,-0.015,-9.949,-50.049,22.766
-0.144,0.895,-0.087,-31.494,-48.584,22.888
-0.205,0.951,-0.067,-54.138,-41.992,21.667
-0.3,1.108,0.034,-78.796,-29.053,16.663
-0.344,1.321,0.066,-100.037,-15.808,1.709
-0.321,1.45,0.002,-112.0,-3.601,-21.362
-0.338,1.511,-0.084,-115.234,11.108,-45.715
-0.344,1.538,-0.159,-113.586,30.945,-65.979
-0.224,1.533,-0.201,-109.802,54.626,-80.994
-0.044,1.504,-0.234,-106.384,75.134,-90.881
2.442,-2.039,1.557,37.72,226.135,2.075
2.037,-0.284,0.078,-36.133,37.537,84.106
0.025,0.803,0.06,-91.248,37.659,83.618
-0.325,1.143,-0.551,-107.849,40.466,64.087
0.425,1.141,-0.188,-75.195,25.635,56.335
0.428,0.496,1.281,-38.269,42.297,39.001
0.767,-0.171,0.834,-49.133,-1.526,16.968
0.268,0.196,0.405,-77.148,-35.767,11.353
-0.119,1.293,0.164,-95.459,7.69,9.644
0.383,0.832,0.492,-69.702,11.292,2.93
0.489,0.636,0.518,-64.758,2.808,-3.174
0.36,0.853,0.324,-69.824,-8.301,-0.061
0.415,0.948,0.314,-69.275,-10.315,2.991
0.538,0.857,0.408,-67.444,-9.521,2.014
0.545,0.902,0.474,-67.688,-17.7,1.038
0.449,0.983,0.378,-68.298,-28.503,2.625
0.406,0.962,0.323,-69.153,-34.912,1.099
0.465,1.004,0.392,-73.975,-37.903,-2.563
0.47,1.008,0.399,-77.332,-47.058,-3.906
0.496,1.05,0.341,-78.613,-59.021,-3.418
0.531,1.067,0.347,-80.261,-68.909,3.662
0.522,1.06,0.317,-81.36,-78.918,11.78
0.518,1.068,0.28,-81.177,-85.327,19.531
0.534,1.091,0.293,-80.811,-90.515,26.55
0.476,1.09,0.28,-79.285,-99.06,29.541
0.407,1.083,0.296,-76.477,-105.225,30.334
0.337,1.07,0.219,-72.388,-107.422,31.006
0.351,1.018,0.213,-65.796,-106.75,31.677
0.448,1.025,0.279,-61.829,-108.276,30.64
0.407,1.046,0.288,-56.702,-115.662,27.161
0.367,1.056,0.247,-48.218,-120.605,23.132
0.418,1.031,0.233,-39.185,-122.375,23.621
0.312,1.033,0.231,-32.227,-128.235,28.381
0.163,0.981,0.21,-27.222,-133.057,27.466
0.156,0.966,0.166,-23.621,-131.226,24.475
0.244,0.954,0.166,-21.24,-127.075,24.658
0.247,0.936,0.147,-21.484,-129.578,26.55
0.269,0.961,0.223,-21.729,-133.728,26.367
0.201,0.948,0.217,-18.982,-137.756,26.672
0.081,1.009,0.21,-12.756,-138.672,22.278
-0.017,0.977,0.201,-5.737,-134.216,21.79
-0.028,0.931,0.151,0.183,-128.479,23.132
-0.022,0.892,0.206,3.845,-119.812,25.635
-0.047,0.844,0.23,5.127,-115.356,24.963
-0.021,0.829,0.179,2.808,-111.45,20.996
0.024,0.82,0.303,0.366,-104.492,19.104
0.042,0.879,0.27,-2.869,-99.426,18.921
0.136,0.854,0.333,-0.916,-95.52,21.606
0.185,0.91,0.347,1.709,-97.046,23.682
0.109,0.948,0.333,3.845,-100.037,27.588
0.062,0.931,0.292,8.057,-101.929,29.907
0.044,0.888,0.28,12.756,-101.257,31.677
-0.008,0.845,0.266,14.771,-103.271,31.555
-0.025,0.787,0.215,13.916,-104.37,30.212
0.014,0.786,0.199,10.01,-102.478,29.541
0.042,0.866,0.258,6.287,-101.501,29.053
-0.025,0.852,0.249,7.08,-103.027,29.724
0.059,0.852,0.259,10.315,-98.511,28.442
0.078,0.85,0.255,13.306,-95.215,28.259
-0.056,0.863,0.212,14.526,-96.985,25.94
-0.12,0.851,0.207,15.137,-96.497,25.085
-0.194,0.784,0.229,16.541,-94.177,26.184
-0.282,0.791,0.182,17.517,-90.454,24.17
-0.336,0.765,0.198,19.165,-83.801,22.827
-0.319,0.742,0.208,20.203,-75.562,22.4
-0.261,0.767,0.251,21.606,-65.552,21.423
-0.24,0.797,0.269,24.902,-61.462,20.996
-0.269,0.804,0.258,28.198,-59.448,19.47
-0.234,0.816,0.238,29.846,-55.054,14.343
-0.125,0.807,0.274,30.762,-51.208,12.695
-0.085,0.824,0.264,28.198,-50.171,13.611
-0.083,0.802,0.241,25.696,-50.598,14.282
-0.087,0.768,0.278,22.644,-48.584,10.132
-0.158,0.779,0.334,18.494,-44.739,5.676
-0.235,0.788,0.371,15.564,-40.1,0.549
-0.354,0.776,0.459,13.733,-33.752,-3.174
-0.375,0.793,0.519,8.789,-22.705,-7.263
-0.335,0.824,0.572,6.897,-16.113,-7.019
-0.327,0.827,0.602,7.324,-15.625,-7.507
-0.304,0.816,0.592,9.705,-20.813,-5.615
-0.313,0.835,0.608,12.207,-28.015,-5.188
-0.33,0.826,0.61,14.404,-34.119,-6.897
-0.311,0.799,0.624,16.235,-35.645,-10.254
-0.233,0.827,0.633,15.747,-32.471,-13.306
-0.133,0.872,0.665,14.038,-28.564,-16.968
-0.099,0.869,0.703,11.658,-25.391,-21.973
-0.076,0.9,0.764,8.118,-21.606,-26.855
-0.088,0.907,0.796,1.099,-16.907,-29.419
-0.126,0.871,0.835,-9.766,-8.972,-30.945
-0.147,0.877,0.806,-24.902,1.038,-30.701
-0.199,0.885,0.765,-41.382,10.986,-29.968
-0.254,0.88,0.705,-57.922,20.63,-30.273
-0.257,0.875,0.638,-74.829,28.503,-30.701
-0.29,0.91,0.563,-91.248,33.386,-31.921
-0.302,1.067,0.571,-105.408,34.424,-33.447
-0.298,1.286,0.546,-116.211,29.053,-32.776
-0.249,1.249,0.437,-119.202,16.724,-29.48
-0.285,1.232,0.338,-118.408,7.568,-29.724
-0.338,1.298,0.305,-118.164,6.042,-33.875
-0.324,1.36,0.322,-120.361,10.071,-39.246
-0.323,1.414,0.33,-124.756,20.142,-45.166
-0.31,1.448,0.256,-130.432,36.499,-49.5
-0.307,1.516,0.122,-134.399,58.899,-52.002
-0.259,1.544,0.012,-132.568,84.717,-55.237
-0.103,1.562,-0.077,-126.831,109.131,-58.289
0.02,1.59,-0.138,-119.08,126.099,-59.326
0.103,1.618,-0.233,-108.765,133.423,-58.777
0.168,1.647,-0.336,-93.018,131.836,-57.739
0.174,1.68,-0.434,-70.251,126.038,-56.335
0.137,1.668,-0.51,-42.969,119.507,-54.26
0.129,1.602,-0.551,-15.991,115.051,-51.514
0.103,1.512,-0.589,8.057,112.549,-49.622
0.057,1.46,-0.607,28.931,111.267,-48.035
0.018,1.402,-0.598,49.5,111.084,-47.058
0.04,1.332,-0.562,69.031,112.488,-47.363
0.107,1.306,-0.553,84.961,111.694,-44.739
0.13,1.232,-0.586,99.06,107.544,-37.72
0.091,1.155,-0.608,112.671,104.065,-33.264
0.055,1.105,-0.637,125.122,103.943,-32.898
0.63,-2.788,2.414,-121.033,-136.047,-118.896
0.366,-0.151,0.58,-184.814,-197.815,7.874
-0.272,0.695,-0.201,-138.184,-176.331,-6.042
0.32,0.488,-0.478,-47.18,-109.009,-50.537
0.988,0.566,0.047,14.038,-77.637,-48.34
0.515,-0.075,1.683,21.484,-96.68,-48.157
0.486,-0.563,1.274,-50.354,-161.072,-51.819
0.156,0.328,0.528,-111.633,-184.509,-40.894
0.069,0.667,0.521,-106.079,-165.771,-29.114
0.341,0.335,0.652,-74.524,-153.137,-21.729
0.49,0.311,0.836,-61.707,-158.142,-19.958
0.325,0.332,0.714,-62.073,-171.936,-16.663
0.165,0.377,0.61,-60.242,-179.565,-8.789
0.113,0.338,0.601,-56.396,-181.702,-3.052
0.201,0.299,0.666,-57.983,-183.777,-0.244
0.24,0.321,0.693,-62.805,-192.566,2.502
0.194,0.368,0.676,-63.66,-205.261,2.197
0.107,0.437,0.649,-63.416,-213.501,3.662
-0.024,0.374,0.658,-64.575,-219.36,9.827
-0.19,0.347,0.646,-72.205,-223.145,16.235
-0.221,0.329,0.643,-83.801,-222.656,25.452
-0.464,0.264,0.607,-96.497,-216.309,35.706
-0.667,0.24,0.615,-105.286,-202.82,41.626
-0.692,0.272,0.641,-110.596,-181.152,42.419
-0.708,0.284,0.706,-113.708,-161.133,44.495
-0.633,0.33,0.723,-119.568,-147.827,47.485
-0.541,0.307,0.685,-126.465,-138.916,54.749
-0.506,0.327,0.67,-133.484,-133.179,63.293
-0.51,0.333,0.666,-138.855,-126.648,73.242
-0.56,0.351,0.615,-142.09,-118.896,79.956
-0.555,0.375,0.579,-142.456,-106.628,83.13
-0.513,0.356,0.603,-141.724,-96.68,83.74
-0.586,0.404,0.555,-139.526,-90.393,79.346
-0.679,0.473,0.53,-138.367,-83.252,72.205
-0.697,0.503,0.534,-137.634,-71.777,66.406
-0.808,0.485,0.525,-134.583,-60.425,59.937
-0.896,0.481,0.519,-131.165,-45.776,52.795
-0.92,0.477,0.605,-126.953,-28.809,45.349
-0.94,0.478,0.609,-126.221,-14.282,34.058
-1.0,0.533,0.491,-128.113,-1.953,21.79
-1.034,0.58,0.49,-128.662,14.343,12.451
-1.019,0.594,0.386,-128.052,32.41,5.615
-0.97,0.656,0.432,-125.793,55.115,-0.854
-0.901,0.697,0.44,-124.023,73.853,-5.066
-0.807,0.737,0.431,-119.019,86.548,-9.46
-0.715,0.733,0.455,-111.938,95.093,-16.113
-0.686,0.724,0.435,-108.337,104.187,-23.376
-0.67,0.729,0.367,-105.774,114.075,-28.442
-0.584,0.724,0.356,-104.675,123.596,-30.457
-0.537,0.714,0.376,-105.713,130.249,-30.09
-0.507,0.712,0.31,-109.802,135.986,-28.198
-0.479,0.753,0.299,-111.816,138.306,-26.062
-0.51,0.8,0.315,-111.816,138.367,-27.71
-0.587,0.807,0.31,-108.643,140.747,-31.555
-0.618,0.821,0.312,-103.577,151.306,-37.231
-0.686,0.885,0.266,-96.313,168.762,-46.387
-0.614,0.838,0.292,-88.257,193.115,-54.565
-0.474,0.807,0.194,-80.261,209.717,-57.556
-0.213,0.837,0.226,-72.266,209.29,-55.054
-0.15,0.827,0.184,-64.941,187.927,-47.302
-0.124,0.86,0.186,-61.035,167.358,-40.527
-0.132,0.909,0.167,-59.265,153.442,-36.011
-0.135,0.956,0.198,-57.373,149.536,-39.368
-0.107,0.983,0.198,-54.749,153.748,-45.044
-0.089,0.978,0.242,-49.927,161.743,-51.392
0.033,0.925,0.318,-45.288,170.837,-58.533
0.157,0.951,0.37,-42.48,174.622,-62.256
0.303,0.946,0.379,-39.429,167.969,-59.326
0.433,0.949,0.354,-36.377,147.095,-49.377
0.396,0.922,0.307,-33.569,115.601,-39.307
0.307,0.954,0.266,-32.654,91.248,-32.227
0.248,0.963,0.289,-29.907,75.928,-29.785
0.2,0.925,0.314,-27.344,70.129,-29.968
0.14,0.914,0.281,-23.865,67.627,-32.837
0.081,0.872,0.24,-19.348,67.017,-35.95
0.1,0.849,0.252,-16.541,68.481,-38.025
0.132,0.841,0.209,-16.785,66.833,-38.208
0.155,0.86,0.253,-15.686,58.105,-37.598
0.192,0.853,0.28,-15.747,45.593,-33.936
0.221,0.898,0.268,-15.869,34.424,-32.104
0.18,0.916,0.274,-13.245,26.245,-32.654
0.081,0.9,0.222,-9.583,24.17,-35.156
0.181,0.896,0.314,-5.676,28.32,-40.833
0.345,0.895,0.366,-6.897,27.344,-39.673
0.297,0.934,0.304,-9.155,17.944,-33.813
0.277,0.908,0.295,-9.521,8.118,-29.419
0.275,0.937,0.261,-11.78,-0.488,-25.94
0.23,0.93,0.278,-14.709,-6.653,-22.217
0.242,0.914,0.325,-18.433,-8.85,-19.836
0.193,0.952,0.344,-22.583,-8.545,-17.334
0.16,0.97,0.375,-23.743,-7.263,-17.212
0.109,0.971,0.376,-23.132,-5.432,-18.982
0.04,0.963,0.384,-22.156,-1.16,-20.813
0.074,0.942,0.395,-21.912,4.395,-22.034
0.097,0.941,0.348,-21.057,7.996,-22.705
0.149,0.885,0.327,-19.226,10.01,-21.606
0.216,0.867,0.329,-16.052,8.118,-20.264
0.278,0.862,0.332,-14.099,-0.854,-17.09
0.231,0.872,0.297,-11.841,-13.794,-14.832
0.123,0.871,0.297,-8.484,-20.447,-14.709
0.047,0.893,0.292,-5.188,-17.273,-16.113
0.041,0.939,0.321,-2.502,-7.446,-17.944
0.036,0.966,0.374,-2.075,3.174,-19.287
0.029,0.97,0.398,-2.319,12.939,-19.714
0.006,0.986,0.42,-1.77,20.386,-19.897
-0.066,0.98,0.428,-0.61,28.809,-19.47
-0.075,0.97,0.452,0.122,40.649,-18.616
-0.05,0.946,0.423,-1.587,52.002,-16.907
-0.003,1.005,0.384,-2.625,57.556,-16.724
-0.007,1.062,0.347,-1.709,59.875,-16.113
-0.006,1.059,0.314,0.0,62.317,-14.465
0.049,1.042,0.269,-2.197,66.895,-13.184
0.063,1.113,0.187,-7.08,74.768,-14.343
0.017,1.151,0.149,-9.338,88.501,-15.686
0.025,1.146,0.162,-10.864,108.643,-16.113
0.098,1.149,0.183,-12.329,126.831,-16.174
0.074,1.169,0.2,-10.803,140.686,-15.564
0.171,1.13,0.222,-8.545,149.231,-14.954
0.234,1.093,0.22,-6.897,145.996,-10.864
0.34,1.768,-0.641,-163.147,-3.357,-11.047
0.411,1.798,-0.702,-138.55,33.813,-11.658
0.493,1.807,-0.768,-106.628,59.021,-10.071
0.578,1.76,-0.817,-67.932,70.679,-7.263
0.617,1.655,-0.8,-29.785,70.862,-3.174
0.607,1.53,-0.782,2.686,59.57,0.977
0.569,1.458,-0.761,28.992,41.077,3.784
0.509,1.384,-0.754,50.781,20.203,3.418
0.456,1.288,-0.783,69.092,1.465,-0.854
0.409,1.24,-0.796,84.595,-10.62,-7.996
0.364,1.2,-0.787,98.145,-17.334,-15.259
0.329,1.135,-0.789,111.267,-19.958,-20.569
0.313,1.081,-0.771,123.718,-17.578,-23.987
0.307,1.029,-0.712,137.39,-11.414,-24.719
0.294,0.96,-0.656,153.137,-5.92,-23.193
0.289,0.887,-0.615,168.762,-1.77,-21.545
0.29,0.827,-0.552,183.105,3.235,-20.081
0.274,0.771,-0.486,196.838,7.019,-19.592
0.271,0.688,-0.441,209.595,8.362,-20.874
0.263,0.595,-0.406,220.825,8.972,-24.048
0.252,0.512,-0.37,230.408,10.742,-28.687
0.239,0.37,-0.381,237.427,13.245,-33.63
0.217,0.227,-0.429,237.61,17.639,-39.734
0.193,0.175,-0.451,233.154,26.55,-46.387
0.191,0.167,-0.415,229.37,38.391,-51.697
0.226,0.174,-0.356,228.516,47.974,-54.504
0.259,0.144,-0.302,230.53,52.917,-54.688
0.284,0.095,-0.251,232.666,54.688,-53.284
0.315,0.055,-0.18,234.192,52.917,-53.772
0.351,0.006,-0.107,235.901,48.706,-56.335
0.378,-0.038,-0.039,236.389,41.077,-60.425
0.392,-0.079,0.025,236.938,31.982,-67.078
0.391,-0.12,0.084,238.098,22.278,-74.341
0.395,-0.153,0.146,238.037,12.756,-81.238
0.406,-0.175,0.206,236.45,3.784,-86.731
0.431,-0.195,0.243,231.75,-5.615,-90.942
0.439,-0.204,0.265,224.243,-16.479,-93.445
0.442,-0.224,0.32,217.102,-26.55,-95.276
0.432,-0.265,0.413,208.435,-34.668,-99.365
0.434,-0.283,1.134,190.613,-37.292,-105.469
-0.185,-1.14,4.0,119.934,5.92,-120.728
0.439,-2.657,3.681,-76.538,93.933,-109.07
1.347,-0.783,0.647,-210.999,-3.235,-45.898
0.72,0.023,0.01,-217.163,-26.306,-10.559
0.134,0.496,-0.06,-201.965,31.982,-49.072
0.382,0.68,-0.36,-188.477,59.204,-73.547
0.985,0.602,-0.578,-161.011,53.223,-63.11
1.196,0.805,-0.441,-115.112,28.992,-49.316
1.109,0.942,-0.11,-59.875,-14.526,-45.41
1.012,0.788,0.385,-17.7,-65.796,-46.082
0.796,0.302,1.415,-17.09,-83.496,-51.758
0.421,-0.162,1.433,-76.965,-64.514,-54.932
0.585,0.036,0.553,-137.634,-45.349,-53.345
0.959,0.616,0.346,-154.114,-38.696,-62.988
1.046,0.619,0.392,-154.297,-47.241,-87.402
0.878,0.215,0.411,-159.973,-64.026,-113.342
0.729,0.49,0.178,-170.654,-74.768,-140.381
0.78,0.826,0.258,-157.349,-67.81,-136.78
0.864,0.887,0.439,-121.765,-64.514,-102.356
0.808,0.766,0.441,-88.745,-68.542,-66.467
0.719,0.625,0.543,-64.392,-65.186,-39.734
0.674,0.601,0.642,-53.955,-62.866,-25.024
0.623,0.602,0.619,-59.998,-67.322,-22.827
0.569,0.607,0.524,-66.223,-70.74,-29.48
0.529,0.662,0.405,-64.026,-71.289,-39.368
0.484,0.628,0.376,-57.678,-63.965,-46.448
0.537,0.541,0.418,-57.251,-49.194,-47.424
0.58,0.467,0.389,-63.354,-34.485,-47.302
0.643,0.483,0.375,-70.435,-22.522,-51.025
0.726,0.498,0.375,-77.881,-11.841,-48.584
0.732,0.529,0.353,-83.374,-5.615,-43.335
0.785,0.536,0.415,-83.313,-4.395,-35.278
0.787,0.513,0.476,-78.125,-5.066,-28.687
0.754,0.503,0.516,-70.862,-3.723,-29.114
0.73,0.543,0.535,-63.232,-1.831,-31.006
0.787,0.547,0.559,-56.58,1.77,-31.433
0.87,0.439,0.578,-54.688,5.737,-27.283
0.885,0.466,0.458,-56.824,0.366,-26.733
0.846,0.452,0.331,-58.228,-2.075,-22.888
0.778,0.458,0.351,-55.908,1.648,-19.104
0.812,0.386,0.428,-58.655,10.01,-11.169
0.788,0.409,0.432,-66.467,11.169,-5.127
0.73,0.435,0.382,-74.829,11.78,-0.977
0.748,0.511,0.29,-78.918,14.404,3.601
0.772,0.545,0.337,-72.51,15.076,8.972
0.767,0.544,0.36,-64.087,11.108,11.963
0.71,0.521,0.365,-56.335,3.723,13.123
0.69,0.529,0.463,-53.406,2.991,13.0
0.75,0.547,0.422,-55.359,2.93,14.099
0.772,0.551,0.406,-55.359,2.075,16.663
0.74,0.542,0.417,-54.321,-2.441,19.165
0.641,0.514,0.312,-55.908,-6.47,20.386
0.614,0.516,0.294,-57.617,-2.93,21.301
0.694,0.562,0.253,-57.434,3.357,21.484
0.751,0.586,0.271,-50.659,3.601,21.484
0.688,0.536,0.341,-44.861,-1.526,20.874
0.624,0.508,0.225,-47.668,-4.7,19.897
0.683,0.566,0.174,-49.255,-0.854,21.362
0.712,0.512,0.269,-46.997,-0.427,25.085
0.699,0.531,0.258,-49.866,-5.493,25.635
0.75,0.595,0.217,-53.589,-14.099,32.715
0.806,0.553,0.221,-53.284,-24.597,44.434
0.713,0.601,0.273,-52.124,-40.466,53.406
0.61,0.553,0.281,-50.964,-58.044,59.814
0.434,0.591,0.267,-51.941,-61.89,62.683
0.313,0.648,0.15,-50.72,-54.26,60.547
0.272,0.61,0.336,-44.25,-30.273,53.345
0.339,0.63,0.305,-42.603,-11.78,40.405
0.502,0.696,0.27,-40.894,-1.77,31.738
0.7,0.681,0.275,-35.156,-2.075,32.227
0.798,0.65,0.348,-28.809,-13.306,41.26
0.75,0.626,0.356,-27.527,-37.17,51.941
0.702,0.599,0.268,-30.396,-62.988,62.378
0.729,0.602,0.339,-32.349,-83.496,75.195
0.712,0.601,0.327,-35.767,-101.746,89.355
0.573,0.68,0.316,-38.086,-117.859,100.037
0.361,0.676,0.326,-34.424,-121.948,103.088
0.281,0.726,0.379,-29.297,-110.657,98.633
0.286,0.766,0.376,-22.461,-98.022,94.421
0.556,1.249,-0.67,3.235,79.285,-87.891
0.518,1.132,-0.718,36.438,80.688,-94.177
0.492,1.003,-0.745,69.58,88.379,-104.309
0.542,0.996,-0.73,100.098,101.624,-114.258
0.614,0.928,-0.728,130.493,116.577,-115.662
0.65,0.746,-0.727,158.508,129.639,-113.22
0.683,0.627,-0.704,180.786,138.855,-113.77
0.732,0.602,-0.657,199.951,143.738,-114.014
0.797,0.534,-0.606,216.858,145.203,-109.741
0.862,0.403,-0.594,230.774,142.639,-101.135
0.909,0.312,-0.555,240.784,137.207,-89.844
0.988,0.291,-0.457,245.85,128.54,-74.158
1.057,0.271,-0.338,247.559,112.61,-53.528
1.088,0.221,-0.233,246.399,89.478,-31.616
1.08,0.145,-0.166,241.76,60.73,-12.268
1.035,0.095,-0.135,233.276,29.602,1.038
0.932,0.074,-0.106,224.731,1.709,7.446
0.807,0.065,-0.104,218.262,-18.799,7.996
0.701,0.07,-0.087,214.6,-31.189,4.944
0.609,0.065,-0.045,213.867,-34.363,0.061
0.524,0.048,-0.015,214.905,-31.494,-6.47
0.464,0.063,0.009,214.966,-22.888,-15.198
0.421,0.077,0.03,216.37,-10.559,-24.231
0.392,0.048,0.051,219.421,1.587,-32.654
0.398,0.001,0.069,222.595,12.024,-41.687
0.411,-0.059,0.091,223.389,20.081,-50.354
0.437,-0.126,0.163,218.079,25.391,-57.861
0.484,-0.124,0.282,206.848,27.161,-66.223
0.559,-0.119,0.379,191.589,24.17,-74.158
0.646,-0.145,0.441,174.133,13.977,-81.665
0.698,-0.211,0.589,155.151,-1.221,-87.524
0.549,-0.295,1.557,124.451,-7.263,-95.825
-0.091,-0.932,3.67,44.312,53.284,-106.812
0.41,-1.241,2.653,-84.9,135.437,-81.177
1.572,-0.121,0.582,-179.199,65.063,-34.546
1.389,0.493,0.121,-177.124,28.809,-3.845
0.821,0.666,0.2,-139.465,14.648,-9.949
0.815,0.462,-0.021,-118.225,-20.325,-13.55
1.047,0.365,-0.138,-99.976,-55.054,-14.832
1.006,0.511,-0.136,-74.646,-85.205,-23.804
0.774,0.595,0.013,-55.42,-99.915,-34.912
0.585,0.532,0.28,-51.697,-82.825,-43.64
0.558,0.381,0.542,-58.472,-46.021,-49.072
0.725,0.464,0.796,-70.618,-16.968,-52.429
0.876,0.55,0.774,-88.745,-10.62,-48.218
0.924,0.577,0.668,-98.45,-22.278,-42.847
0.909,0.502,0.613,-98.694,-40.466,-43.213
0.832,0.434,0.533,-97.9,-59.143,-49.744
0.683,0.405,0.395,-100.342,-61.829,-59.204
0.633,0.514,0.212,-99.731,-49.133,-69.092
0.762,0.655,0.174,-91.37,-28.137,-65.186
0.83,0.599,0.233,-76.843,-11.292,-49.744
0.876,0.606,0.3,-58.35,-11.108,-38.696
0.928,0.517,0.496,-44.312,-17.883,-27.405
0.864,0.437,0.571,-42.542,-26.978,-23.193
0.746,0.451,0.508,-45.959,-35.156,-26.55
0.734,0.452,0.463,-47.607,-35.339,-28.625
0.728,0.442,0.404,-43.152,-30.029,-30.212
0.737,0.393,0.406,-39.246,-18.616,-28.809
0.824,0.291,0.454,-41.138,-8.972,-24.719
0.881,0.284,0.407,-50.903,-7.935,-21.24
0.791,0.321,0.288,-60.425,-8.911,-17.395
0.784,0.321,0.319,-66.345,-0.122,-11.597
0.825,0.295,0.264,-70.984,9.094,-4.761
0.829,0.349,0.258,-72.388,11.963,-0.244
0.811,0.367,0.307,-71.106,9.888,3.601
0.759,0.402,0.359,-67.261,4.639,3.723
0.677,0.367,0.371,-64.88,2.258,4.211
0.658,0.354,0.426,-64.941,3.113,3.296
0.7,0.363,0.443,-68.481,6.836,0.305
0.698,0.371,0.442,-71.35,6.348,-5.127
0.694,0.396,0.458,-71.899,4.333,-11.414
0.655,0.428,0.442,-69.092,0.488,-17.334
0.632,0.46,0.393,-63.843,-0.61,-20.386
0.662,0.469,0.395,-56.641,3.662,-19.897
0.654,0.514,0.358,-48.279,7.385,-18.982
0.667,0.6,0.316,-36.011,6.592,-18.25
0.665,0.663,0.402,-19.165,6.531,-16.602
0.685,0.7,0.465,-2.441,4.517,-15.076
0.712,0.71,0.576,14.404,-0.488,-15.93
0.777,0.664,0.705,25.696,-9.094,-18.799
0.804,0.646,0.741,25.696,-28.992,-23.743
0.753,0.65,0.718,16.052,-52.612,-31.433
0.702,0.623,0.708,-1.77,-69.275,-36.926
0.639,0.628,0.709,-25.696,-76.294,-40.039
0.566,0.689,0.707,-52.551,-72.327,-41.382
0.552,0.786,0.711,-76.782,-56.885,-40.588
0.598,0.86,0.671,-95.032,-36.56,-37.231
0.671,0.859,0.574,-106.018,-17.029,-33.997
0.729,0.827,0.452,-110.168,0.183,-33.752
0.797,0.797,0.346,-107.422,16.479,-37.048
0.877,0.787,0.257,-99.67,30.396,-42.664
0.956,0.77,0.174,-87.402,40.222,-48.401
1.031,0.76,0.09,-72.571,46.082,-52.002
1.084,0.732,0.027,-55.969,49.927,-52.246
1.129,0.641,-0.049,-39.917,52.063,-48.401
1.157,0.573,-0.119,-26.489,52.856,-41.626
1.163,0.558,-0.167,-13.672,53.589,-33.264
1.169,0.542,-0.193,1.038,53.589,-24.17
1.164,0.502,-0.213,16.418,51.88,-14.099
1.135,0.492,-0.251,32.349,48.95,-4.883
1.102,0.474,-0.298,51.758,47.729,3.54
1.085,0.436,-0.306,73.364,48.828,13.367
1.082,0.402,-0.266,94.421,49.377,22.827
1.099,0.365,-0.221,114.99,46.143,29.419
1.095,0.325,-0.171,132.812,38.696,33.813
1.062,0.282,-0.098,148.01,27.71,37.292
1.023,0.24,-0.056,160.4,12.695,40.833
0.969,0.195,-0.056,171.204,-3.052,44.312
0.891,0.146,-0.031,180.481,-14.954,48.279
0.805,0.101,-0.002,187.988,-21.912,50.415
0.72,0.046,0.011,192.444,-21.912,48.706
0.671,0.001,0.008,192.627,-16.479,42.847
0.658,-0.043,0.011,189.636,-10.376,35.034
0.659,-0.073,0.075,182.068,-4.883,26.123
0.664,-0.059,0.178,170.41,-0.427,16.174
0.697,-0.032,0.249,157.593,-0.305,6.836
0.725,-0.021,0.291,144.714,-3.845,-0.305
0.734,-0.014,0.348,132.019,-9.338,-3.418
0.804,-1.486,-0.308,-50.11,14.343,-204.224
0.769,-1.412,-0.322,-62.256,0.183,-214.111
0.82,-1.252,-0.415,-83.13,11.475,-207.642
0.539,-1.277,-0.601,-76.416,26.062,-204.834
0.222,-1.281,-0.818,-36.804,36.194,-228.394
0.474,-1.138,-0.575,-22.4,61.218,-232.91
0.329,-1.042,-0.577,-16.174,103.638,-206.421
0.098,-1.114,-0.756,10.254,148.376,-202.637
-0.03,-1.132,-0.837,41.077,203.552,-203.674
0.361,-1.272,-0.739,67.017,260.742,-187.866
0.695,-1.519,-0.822,83.252,294.434,-165.039
0.717,-1.604,-0.744,88.379,321.716,-159.668
0.697,-1.572,-0.687,87.769,336.731,-162.476
0.885,-1.576,-0.689,88.44,328.796,-158.264
0.899,-1.44,-0.661,84.961,316.833,-151.917
0.684,-1.314,-0.522,76.05,306.274,-151.489
0.651,-1.375,-0.467,75.317,280.884,-158.813
0.686,-1.429,-0.591,81.787,255.859,-168.762
0.496,-1.354,-0.751,87.463,241.821,-183.655
0.546,-1.278,-0.741,90.271,235.657,-196.899
0.849,-1.545,-0.637,98.145,235.84,-186.279
0.642,-1.499,-0.8,92.651,245.422,-172.18
0.319,-1.237,-0.964,87.708,267.883,-177.612
0.666,-1.317,-0.832,101.501,281.128,-177.795
1.106,-1.407,-0.3,107.239,284.302,-151.794
0.979,-1.168,-0.164,89.661,263.062,-127.991
0.649,-1.109,-0.242,82.886,225.952,-116.943
0.485,-1.238,-0.096,83.557,197.754,-109.619
0.189,-1.056,-0.187,83.069,181.396,-109.68
0.005,-0.82,-0.272,91.37,186.096,-115.295
0.06,-0.967,-0.171,104.431,204.346,-115.356
0.126,-1.227,-0.155,109.436,210.937,-116.272
0.265,-1.247,0.039,104.919,200.256,-121.277
0.498,-1.259,0.248,84.106,164.978,-120.667
0.424,-1.132,0.364,46.753,103.088,-107.361
-0.029,-0.766,-0.178,14.221,45.715,-90.698
-0.331,-0.527,-0.487,12.024,30.762,-78.979
-0.126,-0.604,-0.287,27.283,46.265,-65.491
0.06,-0.883,0.104,27.283,48.706,-40.71
-0.148,-1.027,-0.045,9.827,13.123,-26.978
-0.477,-0.871,-0.368,-12.329,-15.076,-29.358
-0.577,-0.827,-0.553,-28.015,-17.09,-25.024
-0.633,-0.97,-0.717,-39.429,-11.719,-18.005
-0.726,-0.942,-0.731,-49.438,-3.662,-16.174
-0.766,-0.981,-0.781,-55.603,7.812,-17.639
-0.617,-0.948,-0.798,-53.772,19.348,-26.428
-0.135,-0.82,-0.355,-44.373,26.55,-27.893
0.171,-0.701,0.06,-38.086,4.7,-25.696
0.11,-0.539,0.18,-38.33,-30.579,-24.475
0.012,-0.376,0.076,-32.593,-55.542,-25.757
-0.095,-0.496,-0.013,-12.878,-59.082,-30.151
-0.068,-0.69,-0.08,7.446,-45.715,-39.429
0.009,-0.952,0.017,15.686,-30.823,-40.71
0.064,-0.953,-0.018,-1.099,-33.752,-27.771
-0.021,-0.939,-0.277,-26.123,-51.331,-7.874
-0.064,-0.846,-0.43,-40.527,-69.702,13.672
-0.194,-0.815,-0.542,-39.856,-86.182,28.625
-0.438,-0.911,-0.684,-33.325,-91.736,33.997
-0.564,-0.9,-0.537,-27.771,-84.778,36.133
-0.53,-0.744,-0.235,-25.94,-76.721,35.217
-0.565,-0.532,-0.171,-24.048,-86.06,26.367
-0.647,-0.439,-0.222,-13.123,-98.999,13.306
-0.59,-0.517,-0.153,7.812,-102.234,1.77
-0.535,-0.542,-0.164,29.724,-103.882,-9.827
-0.47,-0.631,-0.235,47.546,-101.746,-20.325
-0.464,-0.782,-0.334,60.791,-95.52,-26.855
-0.367,-0.904,-0.361,65.186,-86.609,-28.625
-0.172,-0.839,-0.319,61.523,-81.36,-25.635
0.001,-0.729,-0.27,57.129,-82.214,-20.447
0.058,-0.658,-0.215,57.068,-87.891,-13.977
0.047,-0.599,-0.172,59.753,-98.572,-8.423
-0.139,-0.59,-0.24,65.918,-112.122,-5.31
-0.344,-0.714,-0.375,73.059,-114.624,-5.981
-0.398,-0.749,-0.528,74.89,-106.628,-10.498
-0.398,-0.653,-0.658,73.303,-93.14,-16.724
-0.42,-0.685,-0.823,76.416,-78.918,-21.912
-0.418,-0.669,-0.89,78.308,-62.317,-25.146
-0.412,-0.58,-0.911,76.172,-50.964,-23.804
-0.506,-0.524,-0.907,73.914,-45.227,-22.156
-0.663,-0.457,-0.877,71.472,-38.086,-22.705
-0.768,-0.521,-0.836,66.406,-23.804,-24.292
-0.839,-0.536,-0.79,55.664,-5.493,-26.428
-0.795,-0.477,-0.676,43.701,15.381,-27.649
-0.751,-0.521,-0.539,34.79,34.363,-26.184
-0.721,-0.595,-0.536,25.391,52.246,-22.583
-0.728,-0.599,-0.67,19.348,69.946,-17.334
-0.7,-0.584,-0.854,22.522,91.919,-13.062
-0.779,-0.581,-1.06,37.231,121.765,-8.972
-0.749,-0.586,-1.118,60.242,163.94,-6.775
-0.436,-0.83,-0.706,81.482,203.003,-4.089
0.037,-1.228,-0.24,81.543,196.533,-1.465
0.074,-1.11,-0.313,52.979,135.864,-2.136
-0.084,-0.899,-0.447,26.489,78.674,0.549
-0.229,-0.798,-0.474,17.029,44.067,9.46
-0.359,-0.829,-0.445,14.16,22.217,20.813
-0.355,-0.948,-0.275,9.766,3.967,24.902
-0.349,-0.781,-0.285,-4.028,-20.996,22.461
-0.439,-0.763,-0.389,-21.057,-42.175,26.367
-0.514,-0.836,-0.416,-36.682,-50.72,31.982
-0.548,-0.787,-0.544,-53.223,-56.885,33.569
-0.532,-0.777,-0.699,-62.927,-60.852,30.457
-0.479,-0.755,-0.722,-60.242,-62.622,20.203
-0.399,-0.758,-0.642,-48.706,-61.34,2.563
-0.304,-0.732,-0.554,-35.645,-57.495,-15.076
-0.307,-0.665,-0.507,-25.024,-55.481,-28.137
-0.314,-0.576,-0.468,-14.099,-50.232,-36.56
-0.295,-0.628,-0.408,-0.305,-39.734,-40.894
-0.278,-0.708,-0.396,10.62,-31.189,-44.8
-0.289,-0.715,-0.447,15.625,-24.353,-46.936
-0.341,-0.755,-0.576,15.686,-17.395,-42.114
-0.382,-0.939,-0.672,8.484,-4.944,-30.518
-0.409,-1.065,-0.769,-9.094,12.512,-16.907
-0.365,-1.066,-0.783,-33.447,29.663,-6.897
-0.234,-0.951,-0.736,-54.565,43.152,0.854
-0.154,-0.838,-0.65,-62.256,41.565,7.568
-0.202,-0.712,-0.586,-58.35,20.569,11.658
-0.311,-0.635,-0.572,-48.218,-6.531,12.512
-0.459,-0.578,-0.555,-37.292,-27.71,13.306
-0.557,-0.594,-0.599,-28.198,-39.124,15.259
-0.998,-1.204,-0.571,95.276,3.296,-28.625
-0.782,-1.257,-0.191,93.506,41.748,-62.134
-0.516,-1.052,-0.233,68.42,49.316,-84.534
-0.418,-0.682,-0.511,64.331,44.128,-102.661
-0.487,-0.599,-0.632,71.533,15.625,-108.582
-0.675,-1.481,-0.517,76.355,-22.827,-80.811
-1.128,-1.802,-0.548,58.044,-49.683,-64.209
-1.018,-1.543,-0.554,28.503,-59.265,-63.599
-0.873,-1.544,-0.499,11.108,-61.157,-56.763
-0.892,-1.48,-0.418,1.587,-62.683,-48.584
-0.955,-1.307,-0.276,-3.723,-59.021,-35.4
-1.017,-1.287,-0.212,0.122,-63.904,-25.879
-1.019,-1.316,-0.264,7.69,-73.12,-23.315
-0.898,-1.263,-0.172,13.916,-75.317,-19.226
-0.746,-1.137,-0.17,14.221,-87.158,-13.367
-0.762,-1.071,-0.344,11.963,-105.225,-4.517
-0.882,-0.876,-0.393,11.597,-116.577,-1.404
-0.798,-0.846,-0.36,7.996,-111.877,0.183
-0.619,-0.956,-0.38,-6.836,-96.68,10.193
-0.452,-1.005,-0.493,-33.081,-74.768,25.391
-0.502,-1.103,-0.658,-55.542,-49.561,34.546
-0.572,-0.85,-0.788,-64.819,-23.56,25.757
-0.592,-0.902,-0.69,-68.298,11.658,24.109
-0.389,-1.019,-0.604,-66.406,43.762,18.005
-0.35,-0.984,-0.471,-65.369,54.016,4.211
-0.446,-0.88,-0.331,-65.613,44.434,-9.583
-0.436,-0.83,-0.26,-65.552,27.466,-14.282
-0.487,-0.797,-0.133,-62.927,9.094,-17.334
-0.392,-0.719,-0.065,-58.105,-5.859,-26.001
-0.441,-0.634,-0.243,-49.622,-18.311,-29.907
-0.569,-0.685,-0.235,-41.748,-13.306,-22.888
-0.588,-0.694,-0.157,-38.574,-3.113,-11.353
-0.587,-0.676,-0.238,-38.025,3.174,-3.723
-0.532,-0.693,-0.234,-42.114,8.85,4.15
-0.446,-0.753,-0.278,-47.546,8.606,14.099
-0.334,-0.749,-0.332,-56.946,2.319,25.146
-0.275,-0.769,-0.358,-64.392,-7.935,37.842
-0.298,-0.706,-0.348,-68.542,-20.386,49.438
-0.417,-0.678,-0.385,-65.43,-27.771,58.533
-0.425,-0.64,-0.352,-58.655,-23.865,70.679
-0.444,-0.587,-0.302,-46.143,-17.09,80.627
-0.505,-0.735,-0.181,-29.846,-11.414,86.243
-0.533,-0.917,-0.095,-15.137,-11.108,80.566
-0.62,-1.01,-0.025,-8.057,-10.742,67.322
-0.61,-0.932,-0.117,-3.54,-8.423,51.819
-0.472,-0.889,-0.133,3.906,0.427,42.847
-0.371,-0.881,-0.102,11.78,1.831,38.269
-0.376,-0.822,-0.101,16.663,-1.587,40.527
-0.497,-0.961,-0.203,18.372,-5.249,48.34
-0.468,-0.866,-0.165,16.479,-1.404,51.27
-0.397,-0.84,-0.042,14.954,4.333,56.03
-0.459,-0.976,-0.037,10.437,1.404,56.946
-0.565,-0.686,-0.392,4.395,-3.967,46.753
-0.31,-0.136,-0.79,21.362,26.794,51.086
-0.217,-0.912,-0.031,58.472,69.336,71.899
-0.192,-1.362,0.127,49.866,58.96,62.195
-0.203,-1.222,0.049,15.564,51.697,41.26
-0.331,-1.032,-0.139,-6.592,42.053,22.583
-0.368,-1.001,-0.216,-20.081,42.236,19.409
-0.275,-1.021,-0.233,-28.503,44.006,28.076
-0.382,-1.186,-0.241,-33.569,34.607,35.339
-0.497,-1.222,-0.259,-41.443,24.414,37.842
-0.588,-1.06,-0.351,-47.729,15.015,37.903
-0.138,-0.387,-0.363,-32.288,4.028,33.02
-0.773,-1.635,0.059,6.592,-35.034,26.672
-1.359,-1.378,-0.023,-11.78,-20.996,20.264
-0.679,-0.832,-0.19,-33.508,7.385,6.531
-0.589,-1.008,-0.107,-15.991,14.771,2.563
-0.426,-1.088,-0.005,-5.92,8.972,0.732
-0.32,-0.959,0.019,-6.287,1.221,0.793
-0.16,-0.997,0.113,-5.92,-10.071,-0.916
-0.052,-0.981,-0.015,-10.864,-27.954,-2.747
-0.126,-0.965,-0.101,-17.761,-43.091,-0.732
-0.197,-1.077,-0.13,-21.79,-46.448,2.258
-0.271,-1.162,-0.199,-32.471,-43.945,6.47
-0.378,-1.155,-0.22,-44.128,-35.522,9.888
-0.399,-1.097,-0.161,-50.476,-23.804,10.132
-0.349,-1.057,-0.118,-52.917,-16.357,9.277
-0.313,-1.003,-0.1,-52.795,-17.09,8.057
-0.32,-0.877,-0.01,-51.147,-20.813,3.54
-0.349,-0.765,0.105,-49.377,-26.489,-4.761
-0.343,-0.698,0.201,-47.302,-34.912,-15.137
-0.405,-0.73,0.068,-43.457,-43.884,-28.015
-0.492,-1.023,-0.145,-32.104,-40.833,-41.382
-0.594,-1.259,-0.472,-18.921,-21.057,-52.917
-0.505,-1.482,-0.493,-14.343,15.625,-58.105
-0.071,-1.565,-0.347,-23.437,37.598,-53.467
0.179,-1.321,-0.286,-44.25,24.536,-42.725
0.079,-1.051,-0.325,-51.453,-5.31,-27.222
0.033,-0.963,0.045,-49.072,-25.635,-11.353
-0.14,-0.721,0.142,-51.636,-44.617,-3.662
-0.349,-0.627,0.1,-43.396,-58.655,-2.93
-0.486,-0.67,0.117,-32.898,-55.664,1.221
-0.627,-0.681,0.16,-26.306,-46.997,4.028
-0.7,-0.579,0.115,-23.56,-34.119,1.526
-0.61,-0.66,0.101,-16.907,-19.47,-2.38
-0.378,-0.949,0.11,-10.132,-9.46,2.197
-0.199,-1.136,0.034,-14.16,-11.536,14.221
-0.079,-1.221,-0.078,-26.611,-20.813,32.166
-0.1,-1.191,-0.143,-41.016,-30.579,48.34
-0.142,-1.084,-0.181,-52.49,-34.302,56.091
-0.226,-0.999,-0.191,-56.152,-29.602,56.335
-0.222,-0.992,-0.199,-53.528,-21.79,52.795
-0.147,-1.022,-0.235,-48.157,-13.062,51.208
-0.263,-1.042,-0.198,-45.41,-10.071,50.415
-0.377,-0.96,-0.065,-48.95,-7.385,41.748
-0.407,-0.855,0.073,-49.805,-2.197,30.701
-0.401,-0.799,0.128,-46.387,4.639,23.071
-0.352,-0.761,0.065,-41.931,6.409,16.907
-0.331,-0.734,0.058,-40.833,5.676,14.465
-0.326,-0.727,0.056,-40.1,3.479,13.245
-0.308,-0.775,0.084,-34.241,4.578,14.709
-0.284,-0.801,0.131,-25.146,4.761,16.968
-0.296,-0.793,0.103,-13.367,1.709,18.066
-0.299,-0.792,0.016,2.686,3.235,19.47
-0.202,-0.828,-0.213,24.902,7.08,21.545
-0.036,-0.889,-0.017,52.063,12.512,27.588
-0.055,-0.969,0.284,66.284,22.766,34.668
-0.169,-1.217,0.391,64.331,24.902,37.292
1.141,-2.035,1.497,58.655,106.445,3.357
0.524,-1.106,0.143,-17.822,-29.968,-14.771
-0.134,-0.584,-0.488,-27.222,-65.002,-2.625
-0.414,-1.102,-0.236,5.066,-58.899,-5.066
-0.147,-1.56,0.166,10.803,-13.245,-4.15
0.177,-1.415,0.226,-10.925,0.305,-7.202
0.138,-1.181,0.015,-31.555,-17.273,-10.559
-0.143,-1.109,-0.188,-39.673,-26.794,-13.611
-0.153,-1.11,-0.208,-35.034,-21.79,-14.221
0.051,-1.187,-0.058,-27.222,-17.212,-8.301
0.109,-1.253,-0.052,-21.301,-26.794,-5.371
0.056,-1.203,-0.045,-17.151,-44.128,-5.371
-0.013,-1.167,-0.076,-17.639,-61.768,0.549
-0.101,-1.204,-0.115,-17.456,-74.219,7.141
-0.206,-1.252,-0.179,-14.771,-80.383,10.315
-0.24,-1.296,-0.21,-10.437,-78.186,9.521
-0.219,-1.304,-0.286,-7.751,-69.763,8.423
-0.167,-1.319,-0.175,-7.996,-58.167,10.925
-0.122,-1.239,-0.129,-13.0,-53.345,14.771
-0.151,-1.223,-0.141,-23.132,-55.847,20.813
-0.269,-1.201,-0.19,-34.851,-57.739,24.414
-0.33,-1.163,-0.243,-44.067,-60.547,23.987
-0.302,-1.118,-0.17,-51.697,-54.81,24.292
-0.346,-0.87,-0.36,-59.021,-48.828,23.682
-0.448,-0.793,-0.275,-52.979,-42.236,22.888
-0.636,-0.59,-0.833,-38.086,-26.611,21.301
-0.64,-0.847,-0.532,-13.55,19.348,28.992
-0.29,-0.908,-0.362,-6.653,79.956,37.72
0.072,-0.896,-0.278,-3.54,115.54,40.527
0.108,-0.96,-0.267,3.052,108.215,33.936
0.093,-0.742,-0.363,-2.625,94.727,30.212
0.095,-0.609,-0.465,-13.184,86.731,33.02
0.064,-0.611,-0.626,-17.639,78.796,39.551
0.086,-0.694,-0.604,-21.667,89.417,47.546
0.181,-0.645,-0.513,-23.376,101.929,54.688
0.284,-0.59,-0.443,-14.221,106.262,48.828
0.279,-0.538,-0.316,2.075,100.342,43.518
0.244,-0.6,-0.134,11.475,90.637,38.452
0.164,-0.735,0.013,6.409,75.134,35.217
0.108,-0.77,0.147,-11.353,50.232,34.729
0.11,-0.645,0.095,-37.048,26.794,28.687
0.141,-0.498,-0.082,-54.443,5.249,23.865
0.105,-0.391,-0.24,-53.772,-8.362,22.949
-0.03,-0.379,-0.291,-39.612,-14.954,22.339
-0.18,-0.443,-0.266,-27.344,-15.991,21.79
-0.278,-0.518,-0.335,-19.409,-7.446,22.156
-0.211,-0.501,-0.363,-10.01,13.794,19.836
-0.082,-0.532,-0.347,5.615,31.189,18.005
-0.026,-0.697,-0.323,25.757,43.335,14.893
0.083,-0.683,-0.403,41.626,49.927,13.184
0.268,-0.816,-0.308,63.11,47.546,15.442
0.356,-1.04,-0.263,86.243,27.466,5.859
0.273,-1.115,-0.346,95.032,11.353,-2.747
0.18,-1.117,-0.338,101.44,6.226,-3.906
0.193,-1.375,-0.052,114.136,1.221,-8.484
0.299,-1.609,0.444,110.474,1.282,-17.273
0.448,-1.634,0.499,91.858,-10.803,-16.541
0.379,-1.653,0.476,65.979,-29.48,-8.423
0.043,-1.686,0.531,28.809,-37.659,-3.662
-0.188,-1.495,0.299,-12.329,-36.438,-2.808
-0.16,-1.481,0.087,-31.616,-35.156,0.183
-0.132,-1.546,0.031,-35.706,-33.386,-3.113
-0.161,-1.576,-0.035,-39.063,-32.471,-9.338
-0.13,-1.527,-0.162,-42.175,-31.311,-12.329
-0.069,-1.479,-0.246,-40.771,-27.161,-12.634
-0.039,-1.511,-0.184,-37.842,-21.423,-10.193
-0.014,-1.524,-0.174,-40.649,-19.165,-4.7
-0.005,-1.474,-0.25,-39.49,-20.935,0.305
-0.049,-1.436,-0.253,-31.616,-15.442,7.507
-0.175,-1.401,-0.255,-20.325,-5.92,20.386
-0.286,-1.384,-0.136,-8.118,3.54,31.616
-0.327,-1.351,-0.022,-1.648,9.094,36.682
-0.326,-1.323,0.001,3.052,10.376,33.02
-0.228,-1.267,-0.006,4.211,20.264,27.588
0.037,-1.208,0.047,3.052,39.124,32.227
0.225,-1.2,0.044,9.888,54.199,41.138
0.359,-1.174,0.051,17.7,71.167,44.434
0.509,-1.105,-0.022,24.78,78.186,48.767
0.639,-1.13,-0.041,31.677,70.251,53.04
0.684,-1.035,-0.284,31.494,48.706,53.04
0.657,-1.098,-0.129,31.616,23.376,54.871
0.621,-1.102,-0.148,20.813,4.272,56.274
0.653,-0.96,-0.342,10.681,-22.034,54.077
0.65,-1.136,0.016,3.418,-40.222,57.312
0.592,-1.012,-0.06,-13.0,-53.467,58.289
0.495,-0.87,-0.338,-19.958,-72.632,56.274
0.284,-1.0,-0.095,-16.846,-72.388,63.782
0.211,-0.797,-0.606,-19.653,-53.772,69.946
0.329,-1.005,-0.517,-6.409,-22.766,79.834
0.48,-0.988,-0.172,3.113,-2.258,87.158
0.653,-0.785,-0.285,0.793,-8.057,84.656
0.543,-0.94,-0.186,5.188,-28.137,92.163
0.518,-0.969,-0.198,1.343,-53.65,89.905
0.594,-0.905,-0.149,-7.019,-84.656,81.97
0.709,-0.79,-0.227,-16.113,-120.911,74.707
0.701,-0.669,-0.448,-10.315,-161.926,63.11
0.527,-0.773,-0.534,10.681,-197.388,44.189
0.229,-0.757,-0.611,21.179,-222.534,23.865
0.109,-0.593,-0.65,16.602,-230.896,10.986
0.076,-0.398,-0.88,16.785,-232.971,9.949
0.042,-0.257,-1.044,31.494,-221.13,14.709
-0.065,-0.221,-0.831,47.668,-192.81,30.579
-0.196,-0.311,-0.733,49.133,-168.457,45.166
-0.156,-0.457,-0.536,44.678,-146.484,45.044
-0.025,-0.548,-0.285,36.133,-131.958,39.795
-0.019,-0.585,-0.134,22.827,-138.0,27.283
-0.003,-0.664,0.01,8.972,-155.823,6.47
0.024,-0.734,0.11,-5.798,-177.612,-11.658
0.026,-0.731,0.142,-21.301,-202.881,-28.381
-0.006,-0.724,0.15,-35.278,-223.389,-41.626
-0.034,-0.723,0.137,-48.34,-234.436,-50.171
-0.023,-0.731,0.138,-59.998,-235.046,-52.307
0.005,-0.761,0.142,-70.313,-227.051,-48.645
0.031,-0.831,0.173,-77.637,-214.722,-42.053
-0.059,-0.932,0.232,-79.834,-195.251,-32.227
-0.142,-1.016,0.318,-79.834,-160.522,-23.987
-0.119,-1.051,0.414,-79.163,-114.502,-19.348
0.008,-1.073,0.448,-78.125,-70.74,-14.709
0.172,-1.09,0.426,-75.195,-39.124,-10.01
1.658,-1.009,0.013,-52.063,111.145,-161.438
1.652,-0.904,0.038,-62.561,65.857,-150.635
1.56,-0.835,0.006,-63.66,12.939,-140.747
1.457,-0.839,-0.054,-57.068,-34.424,-134.766
1.321,-0.824,-0.089,-48.767,-69.336,-134.949
1.149,-0.817,-0.123,-38.452,-91.675,-139.16
1.037,-0.839,-0.133,-28.259,-100.769,-145.081
0.991,-0.928,-0.113,-21.729,-97.9,-147.461
0.946,-1.003,-0.109,-20.569,-88.257,-145.386
0.937,-1.034,-0.103,-21.729,-76.782,-142.639
0.983,-1.039,-0.078,-23.926,-64.27,-138.55
1.019,-1.036,-0.068,-26.062,-53.589,-133.545
1.037,-1.012,-0.056,-26.184,-46.204,-129.639
1.033,-0.989,-0.042,-23.987,-42.48,-126.648
1.001,-0.974,-0.048,-19.897,-41.443,-124.817
0.96,-0.953,-0.049,-14.526,-40.161,-124.512
0.923,-0.936,-0.047,-8.423,-37.842,-124.512
0.891,-0.931,-0.039,-0.977,-35.767,-123.596
0.865,-0.928,-0.026,6.348,-34.912,-121.704
0.843,-0.927,-0.012,13.306,-36.072,-118.958
0.819,-0.932,0.0,19.653,-38.757,-115.967
0.789,-0.939,0.005,25.574,-42.786,-112.549
0.763,-0.953,0.008,29.907,-47.302,-109.009
0.742,-0.977,0.008,33.813,-52.185,-105.774
0.723,-1.006,0.007,37.231,-56.152,-103.21
0.705,-1.038,0.005,40.1,-58.716,-101.501
0.691,-1.073,0.011,42.664,-59.326,-100.037
0.686,-1.097,0.025,43.945,-57.373,-98.877
0.703,-1.106,0.046,43.701,-53.406,-96.924
0.726,-1.094,0.063,42.48,-49.438,-93.872
0.745,-1.083,0.086,40.771,-46.631,-88.928
0.76,-1.074,0.086,38.635,-45.41,-83.313
0.772,-1.068,0.083,36.804,-44.434,-76.538
0.776,-1.06,0.085,35.278,-43.518,-67.749
0.774,-1.051,0.085,33.081,-42.664,-57.8
0.765,-1.046,0.084,30.579,-41.931,-47.913
0.746,-1.042,0.079,27.283,-40.405,-37.964
0.725,-1.043,0.074,23.376,-37.659,-27.771
0.719,-1.048,0.071,19.958,-33.813,-18.188
0.718,-1.05,0.077,16.968,-28.076,-9.277
0.709,-1.051,0.085,14.099,-21.423,-0.916
0.721,-1.059,0.095,11.78,-15.259,7.69
0.738,-1.069,0.099,9.338,-10.376,16.174
0.742,-1.075,0.101,6.287,-6.958,24.353
0.745,-1.08,0.1,2.808,-4.761,32.593
0.754,-1.092,0.106,-0.061,-2.869,41.138
0.761,-1.105,0.117,-2.319,-1.038,50.415
0.765,-1.109,0.128,-4.272,0.061,60.242
0.771,-1.117,0.137,-6.042,0.977,70.19
0.795,-1.132,0.149,-8.301,1.282,79.712
0.822,-1.151,0.158,-11.292,1.282,88.684
0.849,-1.166,0.152,-15.015,0.122,96.985
0.878,-1.187,0.145,-18.555,-1.16,103.943
0.879,-1.199,0.134,-21.24,-2.136,109.68
0.892,-1.214,0.134,-23.743,-2.686,115.784
0.953,-1.24,0.144,-26.611,-3.113,122.62
0.977,-1.241,0.149,-30.334,-5.188,130.554
0.974,-1.236,0.146,-34.424,-8.667,139.343
1.021,-1.271,0.146,-38.696,-11.78,148.865
1.046,-1.286,0.134,-44.922,-13.55,158.569
1.031,-1.275,0.117,-50.293,-14.648,167.725
1.068,-1.29,0.124,-54.932,-13.428,177.063
1.074,-1.27,0.126,-60.486,-11.292,187.5
1.058,-1.244,0.113,-65.552,-9.766,197.205
1.086,-1.244,0.11,-68.97,-6.531,205.872
1.104,-1.231,0.129,-72.449,-0.916,214.172
1.187,-1.247,0.165,-78.247,5.127,224.365
1.278,-1.267,0.182,-87.036,9.399,238.464
1.256,-1.229,0.168,-95.215,11.353,252.319
1.275,-1.203,0.164,-100.952,14.526,266.235
1.341,-1.129,0.17,-104.553,20.081,279.541
1.38,-1.027,0.16,-99.976,20.996,285.706
1.359,-0.919,0.145,-87.28,18.677,284.485
1.278,-0.794,0.156,-69.519,14.221,278.87
1.249,-0.716,0.179,-50.232,7.263,273.437
1.201,-0.671,0.176,-31.555,-2.869,268.372
1.111,-0.67,0.18,-14.526,-15.015,263.672
1.058,-0.685,0.193,-5.737,-24.963,263.733
0.989,-0.67,0.151,-4.578,-32.837,263.794
0.915,-0.668,0.104,-5.432,-37.659,260.132
0.899,-0.657,0.071,-10.01,-35.522,255.615
0.809,-0.592,0.047,-16.052,-28.381,250.0
0.776,-0.522,0.031,-19.958,-20.325,242.981
0.766,-0.456,0.029,-22.095,-12.024,234.802
0.706,-0.391,0.036,-23.804,-4.456,230.53
0.748,-0.347,0.033,-24.475,-0.183,226.318
0.725,-0.297,0.035,-23.804,4.089,221.313
0.688,-0.247,0.044,-21.606,7.263,219.788
0.628,-0.185,0.044,-18.86,8.484,219.238
0.566,-0.154,0.039,-14.465,9.033,219.849
0.519,-0.13,0.028,-9.766,10.01,219.055
0.432,-0.108,0.023,-5.371,12.39,216.553
0.389,-0.092,0.027,-1.892,14.648,211.121
0.346,-0.061,0.033,1.038,16.907,201.233
0.282,-0.035,0.048,3.357,19.226,191.467
0.278,-0.005,0.073,4.822,20.386,180.908
0.33,0.034,0.08,5.432,19.348,168.701
0.338,0.049,0.093,5.554,15.381,157.227
0.305,0.065,0.108,4.7,9.277,147.034
0.303,0.087,0.11,3.906,1.831,137.939
0.304,0.118,0.107,3.662,-5.188,129.395
0.27,0.154,0.118,3.845,-9.705,122.559
0.223,0.188,0.119,4.333,-12.756,116.821
0.2,0.218,0.119,5.127,-12.573,111.145
0.267,0.238,0.114,5.432,-10.132,104.248
0.289,0.273,0.109,5.554,-6.226,94.788
0.27,0.297,0.121,6.042,-2.869,86.182
0.273,0.311,0.128,7.141,-0.854,78.674
0.279,0.328,0.136,8.118,0.549,71.411
0.276,0.339,0.149,8.972,1.587,64.209
0.284,0.341,0.154,8.667,1.892,56.946
0.275,0.351,0.156,6.958,1.526,49.011
0.273,0.364,0.168,4.639,0.916,41.687
0.297,0.38,0.166,2.441,-0.366,33.691
0.284,0.394,0.167,0.916,-1.221,24.658
0.24,0.409,0.177,0.0,-1.648,16.724
0.203,0.418,0.182,-0.122,-1.892,9.216
0.172,0.429,0.175,0.488,-0.793,1.221
0.158,0.422,0.179,1.77,1.465,-6.47
0.585,-0.289,-0.64,-148.56,367.432,58.96
0.556,-0.337,-0.893,-135.803,356.689,60.974
0.547,-0.441,-0.927,-121.826,354.919,61.462
0.596,-0.492,-0.928,-115.051,348.022,61.096
0.588,-0.406,-0.908,-111.145,339.905,55.237
0.593,-0.35,-0.861,-102.6,325.623,53.711
0.698,-0.421,-0.833,-92.407,301.453,57.556
0.685,-0.32,-0.735,-84.839,271.729,56.213
0.543,-0.361,-0.837,-75.562,240.845,59.021
0.631,-0.509,-0.896,-67.749,214.417,63.904
0.638,-0.405,-0.877,-65.308,191.467,63.354
0.571,-0.455,-0.989,-54.81,164.612,66.04
0.66,-0.424,-1.024,-45.227,145.935,64.453
0.703,-0.44,-1.109,-34.912,132.324,63.599
0.701,-0.43,-1.057,-26.428,124.695,63.049
0.678,-0.439,-0.992,-19.043,114.502,65.063
0.655,-0.477,-0.968,-12.329,99.182,68.848
0.607,-0.504,-1.011,-7.568,84.656,72.937
0.582,-0.488,-1.051,-3.845,76.599,77.942
0.567,-0.456,-1.069,0.671,71.96,82.153
0.566,-0.426,-1.086,7.141,67.2,85.022
0.523,-0.384,-1.154,15.686,61.462,85.022
0.438,-0.361,-1.192,28.442,58.96,82.825
0.346,-0.343,-1.19,47.852,58.472,80.627
0.303,-0.332,-1.204,73.364,54.382,79.834
0.267,-0.341,-1.174,102.783,47.974,80.933
0.2,-0.423,-1.19,132.874,38.33,83.557
0.162,-0.576,-1.169,155.396,28.442,84.717
0.163,-0.613,-1.185,169.678,20.325,83.923
0.184,-0.669,-1.191,177.063,12.451,81.36
0.23,-0.621,-1.214,176.392,2.93,75.5
0.26,-0.553,-1.242,171.631,-8.301,71.533
0.274,-0.485,-1.204,164.246,-17.395,67.444
0.286,-0.409,-1.089,158.813,-25.818,63.416
0.29,-0.336,-1.034,157.41,-35.4,61.279
0.307,-0.274,-1.015,158.508,-43.579,59.998
0.342,-0.229,-0.983,161.987,-48.95,60.486
0.361,-0.198,-0.984,173.218,-65.918,66.772
0.368,-0.201,-1.004,174.561,-74.097,70.496
0.396,-0.162,-1.003,172.424,-80.872,72.51
0.416,-0.111,-0.992,169.25,-88.562,74.28
0.419,-0.089,-0.993,165.405,-98.877,76.538
0.419,-0.066,-1.015,160.828,-110.168,77.393
0.417,-0.0,-1.042,157.288,-119.507,77.209
0.404,0.06,-1.003,157.959,-124.268,77.271
0.389,0.084,-0.992,161.377,-127.869,78.186
0.351,0.095,-1.007,164.124,-129.517,78.674
0.325,0.124,-1.008,164.246,-126.038,78.43
0.308,0.156,-0.991,163.757,-118.896,78.125
0.303,0.2,-0.973,162.354,-110.657,75.989
0.315,0.233,-0.954,161.133,-101.868,73.12
0.328,0.251,-0.925,160.522,-93.14,70.068
0.364,0.268,-0.875,159.973,-85.449,66.345
0.398,0.281,-0.841,159.424,-82.092,62.378
0.422,0.302,-0.823,157.776,-83.496,58.594
0.449,0.325,-0.802,154.968,-86.426,55.969
0.47,0.343,-0.808,151.55,-90.82,54.443
0.479,0.333,-0.798,147.522,-96.069,54.993
0.515,0.355,-0.758,142.029,-102.417,59.143
0.538,0.375,-0.764,136.23,-112.854,65.063
0.516,0.403,-0.799,130.859,-123.047,70.19
0.479,0.436,-0.783,127.136,-126.892,75.745
0.413,0.461,-0.742,124.268,-127.136,78.796
0.387,0.478,-0.76,123.047,-126.343,79.041
0.343,0.474,-0.756,123.291,-118.042,78.857
0.303,0.472,-0.742,123.23,-105.042,76.843
0.298,0.466,-0.712,122.742,-89.294,73.12
0.323,0.463,-0.67,120.789,-73.242,66.833
0.373,0.453,-0.64,118.286,-59.692,58.899
0.412,0.457,-0.604,114.685,-49.744,49.744
0.474,0.494,-0.538,110.107,-43.335,40.771
0.556,0.515,-0.514,106.873,-43.396,33.936
0.616,0.501,-0.532,104.492,-47.058,29.785
0.669,0.498,-0.527,101.563,-50.964,28.625
0.729,0.544,-0.481,99.67,-56.152,32.715
0.79,0.578,-0.422,100.342,-65.979,40.222
0.846,0.571,-0.379,102.722,-79.041,49.194
0.895,0.571,-0.328,105.957,-93.445,59.021
0.935,0.583,-0.261,109.314,-110.229,70.251
0.993,0.56,-0.242,112.488,-131.409,82.336
1.085,0.523,-0.216,110.535,-157.349,96.68
1.202,0.491,-0.125,101.074,-189.941,113.953
1.276,0.496,-0.023,84.534,-230.408,132.874
1.265,0.552,0.038,64.148,-275.574,153.442
1.129,0.585,0.092,44.739,-317.017,178.467
0.967,0.568,0.122,27.405,-346.68,203.369
0.814,0.622,0.147,9.705,-361.938,225.525
0.674,0.725,0.155,-4.944,-362.305,244.08
0.571,0.713,0.103,-16.174,-350.769,259.705
0.498,0.672,0.072,-30.09,-332.886,271.423
0.422,0.663,0.063,-46.936,-313.11,277.588
0.347,0.706,0.063,-65.735,-294.739,279.724
0.222,0.807,0.035,-83.862,-279.236,277.283
0.138,0.931,0.036,-98.45,-262.207,272.644
0.095,0.993,0.016,-107.422,-246.704,266.479
0.055,1.03,-0.031,-115.112,-233.582,257.935
0.074,1.004,-0.085,-124.634,-220.764,248.047
-0.005,0.973,-0.145,-136.536,-211.853,236.816
-0.119,0.943,-0.247,-142.151,-199.829,229.187
-0.177,0.975,-0.373,-145.264,-179.321,223.633
-0.205,1.017,-0.446,-141.174,-152.832,219.604
-0.195,1.007,-0.474,-129.272,-122.192,218.14
-0.114,0.923,-0.47,-112.0,-94.116,220.154
-0.022,0.783,-0.452,-93.079,-75.134,225.464
0.016,0.647,-0.437,-75.867,-68.604,231.018
-0.0,0.558,-0.47,-62.5,-70.679,234.131
-0.064,0.488,-0.506,-50.659,-76.233,234.924
-0.134,0.405,-0.545,-39.734,-81.299,232.971
-0.27,0.298,-0.568,-30.334,-84.045,227.417
-0.422,0.254,-0.624,-21.973,-84.29,215.088
-0.512,0.175,-0.648,-11.108,-79.041,196.716
-0.648,0.056,-0.641,-2.808,-74.768,171.021
-0.878,-0.128,-0.563,-1.221,-66.04,136.047
-0.995,-0.171,-0.377,-11.108,-31.982,92.529
-0.801,-0.111,-0.203,-27.893,9.094,47.18
-0.655,0.092,-0.041,-52.795,27.771,3.479
-0.594,0.357,-0.215,-74.402,31.433,-33.813
-0.501,0.494,-0.443,-79.468,43.579,-55.908
-0.29,0.587,-0.581,-71.106,58.594,-64.88
-0.661,1.588,-0.265,23.56,15.381,-59.57
-0.516,1.704,-0.177,23.071,26.245,-58.838
-0.395,1.778,-0.185,19.897,30.029,-53.711
-0.265,1.683,-0.113,15.747,32.471,-43.396
-0.12,1.557,-0.156,7.874,30.945,-29.358
-0.028,1.401,-0.222,-2.441,26.062,-11.597
0.042,1.219,-0.256,-13.916,19.104,6.958
0.075,1.058,-0.276,-26.611,7.874,23.071
0.073,1.108,-0.329,-40.344,-7.324,34.79
-0.103,1.029,-0.34,-50.354,-22.034,46.692
-0.318,1.096,-0.517,-57.983,-35.767,49.805
-0.424,0.862,-0.596,-56.03,-33.691,52.124
-0.423,0.797,-0.587,-50.171,-23.682,41.382
-0.421,0.679,-0.51,-45.288,-9.888,27.954
-0.26,0.632,-0.572,-42.48,-0.183,19.958
-0.235,0.647,-0.526,-34.851,9.46,19.348
-0.166,0.646,-0.532,-26.978,14.832,12.512
-0.094,0.58,-0.488,-16.602,16.541,7.874
0.027,0.575,-0.434,-5.737,12.024,8.85
0.061,0.221,-0.353,3.662,2.991,19.775
-0.029,-0.032,-0.151,-0.793,-6.958,21.118
-0.168,-0.034,-0.085,-18.372,-11.902,20.203
-0.231,0.107,-0.109,-36.499,-16.602,13.489
-0.375,0.181,-0.298,-48.035,-16.235,-5.737
-0.478,0.356,-0.365,-52.49,0.0,-24.353
-0.334,0.429,-0.401,-43.152,16.296,-29.602
-0.222,0.518,-0.283,-30.518,34.241,-38.879
-0.141,0.697,-0.164,-18.738,37.109,-47.241
-0.141,0.74,-0.135,-8.057,32.104,-47.729
-0.14,0.9,-0.109,-0.732,32.593,-46.753
-0.079,1.094,-0.097,8.057,34.851,-40.283
-0.022,1.081,0.025,16.968,28.992,-30.701
-0.073,1.018,-0.033,19.714,9.155,-22.339
-0.142,0.916,-0.14,18.127,-14.221,-15.625
-0.185,0.977,-0.331,18.127,-37.598,-8.972
-0.312,0.941,-0.426,26.184,-67.139,-0.305
-0.554,0.943,-0.483,32.41,-85.205,6.287
-0.771,1.026,-0.504,35.156,-92.468,5.066
-0.968,1.093,-0.533,36.194,-82.642,-3.235
-0.899,1.174,-0.487,35.339,-54.81,-12.573
-0.723,1.313,-0.413,34.18,-23.254,-17.761
-0.565,1.435,-0.39,34.851,-6.104,-21.667
-0.463,1.574,-0.385,35.889,-0.549,-22.583
-0.292,1.604,-0.33,36.865,3.296,-21.118
-0.106,1.532,-0.28,33.691,7.996,-16.174
0.056,1.455,-0.212,22.888,10.376,-10.437
0.102,1.388,-0.233,6.714,6.653,-1.648
0.14,1.663,-0.392,-9.46,1.465,16.602
0.042,1.284,-0.427,-13.672,6.836,51.025
0.039,1.206,-0.361,-19.226,8.362,64.88
0.056,1.063,-0.378,-27.222,10.742,79.224
-0.015,0.916,-0.367,-35.767,8.606,86.06
-0.123,0.868,-0.343,-44.617,2.136,82.153
-0.34,0.814,-0.476,-50.598,-10.376,70.862
-0.512,0.667,-0.57,-49.988,-16.663,51.514
-0.594,0.589,-0.622,-45.654,-8.362,32.043
-0.527,0.661,-0.585,-40.894,13.184,16.357
-0.384,0.661,-0.59,-29.358,32.715,7.446
-0.324,0.682,-0.554,-16.174,43.335,-0.366
-0.232,0.644,-0.512,-4.028,45.166,-5.615
-0.095,0.642,-0.516,11.597,37.231,-3.357
-0.019,0.525,-0.445,29.907,22.522,7.812
-0.048,0.362,-0.404,46.082,-2.014,18.738
-0.059,-0.051,-0.349,54.626,-22.827,26.733
-0.251,-0.312,-0.322,48.95,-40.1,26.184
-0.518,-0.206,-0.193,27.588,-33.02,22.095
-0.525,0.013,-0.285,3.967,-14.282,6.287
-0.405,0.133,-0.322,-8.423,3.784,-16.418
-0.334,0.221,-0.31,-13.184,17.151,-36.377
-0.294,0.428,-0.304,-14.526,25.574,-55.359
-0.248,0.786,-0.364,-9.521,32.654,-71.167
-0.25,0.952,-0.471,6.592,43.091,-78.552
-0.156,0.872,-0.451,27.71,59.814,-76.721
-0.005,0.683,-0.103,41.931,67.139,-69.58
0.109,0.626,0.14,34.79,47.119,-67.749
0.069,0.788,0.098,15.32,9.094,-66.04
-0.229,0.951,-0.062,-3.601,-26.672,-58.044
-0.454,1.171,-0.459,-10.376,-45.471,-46.57
-0.465,1.32,-0.656,4.15,-47.485,-29.663
-0.418,1.281,-0.657,32.959,-52.856,-16.602
-0.445,1.298,-0.529,60.974,-62.561,-6.042
-0.683,1.304,-0.307,73.486,-65.552,-0.61
-0.839,1.42,-0.198,69.641,-56.091,-5.249
-0.72,1.575,-0.204,59.937,-31.372,-15.137
-0.522,1.642,-0.073,50.11,2.747,-23.987
-0.322,1.728,-0.036,37.231,27.283,-35.4
-0.14,1.639,-0.035,24.841,38.879,-46.448
0.075,1.664,-0.021,10.498,46.204,-52.551
0.189,1.731,-0.099,-3.784,49.072,-39.795
0.209,1.633,-0.163,-12.939,47.058,-7.385
0.155,1.289,-0.238,-17.7,40.039,25.208
0.098,1.291,-0.205,-26.306,31.433,40.71
-0.044,1.096,-0.277,-33.936,21.912,55.481
-0.216,0.861,-0.307,-41.748,22.156,60.547
-0.355,0.795,-0.335,-51.392,28.931,53.894
-0.4,0.902,-0.41,-57.495,37.354,39.185
-0.319,0.971,-0.511,-51.147,39.551,19.043
-0.303,0.813,-0.539,-36.438,33.142,-1.16
-0.317,0.696,-0.498,-25.94,34.424,-11.353
-0.25,0.616,-0.415,-18.86,36.987,-18.799
-0.105,0.492,-0.44,-16.785,37.292,-17.761
0.064,0.565,-0.452,-14.465,37.659,-4.7
0.24,0.776,-0.466,-3.113,26.917,17.334
0.314,0.559,-0.428,18.311,5.981,48.462
0.223,0.076,-0.399,31.982,-24.658,76.782
-0.054,-0.159,-0.29,28.32,-50.232,89.722
-0.448,-0.11,-0.254,11.108,-57.556,80.2
-0.659,-0.011,-0.308,-9.155,-49.316,49.5
-0.71,0.076,-0.34,-24.292,-23.56,14.343
-0.658,0.278,-0.418,-31.25,11.841,-18.311
-0.492,0.465,-0.357,-26.489,45.654,-48.767
-0.348,0.617,-0.234,-16.907,66.528,-72.327
-0.296,0.829,-0.195,-5.859,71.106,-87.097
-0.249,0.946,-0.203,7.324,67.566,-92.224
-0.115,0.906,-0.014,19.592,60.059,-89.294
-0.013,0.818,0.155,20.935,37.354,-79.468
-0.053,0.773,0.16,9.766,2.38,-68.848
-0.221,0.78,-0.08,-7.507,-31.006,-60.974
-0.36,0.858,-0.326,-15.808,-53.345,-57.312
0.538,-2.014,0.185,15.564,-7.507,-99.426
0.615,-1.86,0.203,21.057,-14.038,-115.784
0.68,-1.658,0.195,26.611,-22.156,-126.526
0.743,-1.461,0.176,33.386,-30.64,-130.981
0.799,-1.252,0.169,41.138,-39.001,-129.517
0.818,-1.039,0.181,51.025,-48.096,-122.803
0.796,-0.852,0.202,63.904,-57.678,-110.901
0.754,-0.716,0.228,79.346,-67.383,-95.215
0.713,-0.636,0.26,95.032,-76.477,-76.233
0.645,-0.63,0.277,109.07,-84.961,-53.711
0.57,-0.68,0.278,116.943,-92.224,-28.687
0.506,-0.724,0.257,117.859,-98.022,-3.113
0.422,-0.75,0.227,113.098,-102.356,21.179
0.333,-0.787,0.202,104.248,-104.309,43.213
0.248,-0.83,0.18,91.431,-103.821,60.974
0.169,-0.877,0.17,74.402,-99.976,73.242
0.107,-0.898,0.174,54.81,-92.59,80.017
0.057,-0.894,0.171,34.607,-82.825,82.825
0.019,-0.903,0.165,15.808,-71.106,83.435
-0.013,-0.916,0.149,-1.709,-58.105,82.031
-0.031,-0.94,0.131,-17.09,-44.067,79.224
-0.037,-0.96,0.114,-30.823,-30.396,75.5
-0.038,-0.959,0.103,-43.091,-17.7,70.374
-0.033,-0.946,0.112,-52.734,-6.897,64.636
-0.02,-0.927,0.114,-59.387,0.488,58.533
-0.002,-0.9,0.12,-62.866,6.226,53.162
0.003,-0.87,0.125,-63.232,10.071,48.279
0.006,-0.861,0.128,-60.608,12.451,44.128
0.012,-0.874,0.127,-55.847,13.367,39.246
0.019,-0.89,0.126,-49.561,13.855,32.715
0.023,-0.906,0.132,-41.931,13.977,24.048
0.028,-0.927,0.142,-33.081,14.099,13.977
0.032,-0.948,0.141,-23.254,14.16,2.93
0.034,-0.975,0.136,-14.038,15.564,-8.362
0.028,-1.007,0.13,-5.371,18.616,-20.447
0.024,-1.035,0.124,2.502,23.56,-32.776
0.031,-1.062,0.119,8.728,30.579,-44.189
0.044,-1.096,0.119,14.16,38.94,-54.504
0.062,-1.132,0.115,18.005,47.974,-63.721
0.086,-1.166,0.11,19.226,57.617,-71.533
0.117,-1.191,0.104,19.043,67.444,-77.576
0.156,-1.2,0.102,17.517,76.66,-82.153
0.205,-1.2,0.094,15.198,84.351,-85.327
0.261,-1.192,0.091,12.207,89.783,-86.975
0.322,-1.171,0.095,8.728,92.834,-87.402
0.388,-1.146,0.099,5.554,92.468,-85.938
0.453,-1.109,0.112,2.686,87.463,-83.008
0.503,-1.06,0.136,1.526,78.125,-77.637
0.541,-1.009,0.161,2.075,64.148,-70.313
0.567,-0.969,0.186,4.761,46.265,-60.486
0.573,-0.934,0.21,9.277,25.513,-48.462
0.556,-0.911,0.224,14.771,2.319,-34.851
0.521,-0.909,0.223,20.874,-20.813,-20.508
0.463,-0.912,0.21,25.452,-42.603,-6.775
0.395,-0.912,0.191,27.71,-60.242,5.249
0.324,-0.916,0.167,28.137,-72.693,16.296
0.258,-0.927,0.154,26.855,-79.773,25.269
0.183,-0.941,0.143,24.17,-81.665,31.311
0.124,-0.954,0.132,20.142,-78.43,34.302
0.082,-0.962,0.125,15.015,-70.557,34.912
0.051,-0.964,0.125,9.583,-59.509,34.119
0.03,-0.967,0.127,4.272,-46.997,31.982
0.02,-0.971,0.132,-0.671,-33.813,29.48
0.024,-0.976,0.138,-5.371,-21.179,26.978
0.042,-0.981,0.144,-9.46,-10.193,24.048
0.065,-0.983,0.148,-12.634,-1.77,21.057
0.086,-0.986,0.153,-14.648,4.456,17.761
0.106,-0.985,0.155,-16.235,8.24,14.587
0.123,-0.986,0.155,-17.029,10.315,11.841
0.133,-0.99,0.15,-16.785,10.803,8.972
0.136,-0.999,0.144,-16.602,10.376,5.859
0.135,-1.002,0.134,-16.174,9.949,2.747
0.134,-1.011,0.124,-15.869,10.254,-0.488
0.128,-1.014,0.111,-15.198,11.047,-3.662
0.122,-1.018,0.099,-15.198,12.878,-6.836
0.118,-1.02,0.09,-14.954,15.808,-10.01
0.119,-1.021,0.083,-14.526,19.958,-13.123
0.126,-1.018,0.077,-14.282,25.391,-15.93
0.135,-1.016,0.071,-13.855,31.189,-18.494
0.146,-1.012,0.069,-13.245,36.804,-20.447
0.161,-1.008,0.068,-12.634,42.908,-22.034
0.179,-1.002,0.07,-11.841,48.34,-23.071
0.198,-1.0,0.072,-10.681,52.673,-23.743
0.218,-0.994,0.076,-9.155,55.908,-23.682
0.238,-0.988,0.079,-7.568,58.044,-23.071
0.261,-0.983,0.082,-6.348,58.472,-21.912
0.28,-0.98,0.082,-5.005,57.861,-20.142
0.3,-0.979,0.087,-3.784,55.725,-17.822
0.321,-0.975,0.093,-2.502,51.88,-15.137
0.34,-0.973,0.1,-1.282,46.509,-11.902
0.355,-0.97,0.109,0.427,39.368,-8.362
0.367,-0.966,0.119,2.136,30.579,-4.333
0.374,-0.968,0.129,3.845,20.386,-0.183
0.373,-0.968,0.142,5.859,8.85,4.578
0.361,-0.973,0.15,7.568,-3.235,9.766
0.342,-0.981,0.155,8.85,-15.137,14.832
0.314,-0.991,0.154,10.071,-26.917,19.226
0.28,-0.999,0.15,10.559,-36.621,22.705
0.245,-1.006,0.145,10.254,-44.006,25.452
0.21,-1.014,0.14,9.338,-48.828,27.1
0.185,-1.021,0.138,7.812,-51.025,27.771
0.167,-1.026,0.146,5.615,-51.453,27.771
0.15,-1.032,0.148,2.686,-51.086,27.222
0.142,-1.038,0.155,-1.343,-49.561,26.428
0.131,-1.042,0.148,-5.981,-47.363,25.269
0.124,-1.053,0.136,-10.376,-44.739,24.414
0.127,-1.061,0.134,-15.381,-41.87,24.292
0.126,-1.067,0.144,-21.79,-38.391,24.536
0.121,-1.061,0.146,-28.503,-35.034,24.231
0.118,-1.055,0.16,-34.729,-31.616,23.804
0.114,-1.057,0.181,-40.71,-27.954,23.315
0.108,-1.043,0.18,-46.082,-24.292,22.705
0.114,-1.035,0.192,-49.805,-20.752,21.729
0.124,-1.034,0.216,-52.979,-17.7,20.569
0.132,-1.008,0.234,-56.519,-15.442,19.165
0.13,-0.989,0.257,-59.57,-13.306,17.09
0.135,-0.976,0.263,-60.73,-11.902,14.648
0.141,-0.955,0.26,-61.768,-10.315,12.756
0.143,-0.932,0.244,-61.707,-8.606,11.414
0.818,-1.037,0.558,52.795,-220.642,-38.33
0.403,-1.121,0.308,36.865,-296.509,-41.626
-0.13,-1.127,0.035,23.193,-332.703,-47.119
-0.343,-1.03,-0.18,10.437,-328.857,-43.152
-0.345,-0.949,-0.226,0.854,-293.274,-24.353
-0.322,-0.96,-0.153,-5.31,-233.215,-4.272
-0.296,-0.981,-0.074,-10.193,-166.87,10.132
-0.403,-0.951,-0.028,-12.268,-108.765,17.273
-0.459,-0.9,-0.028,-5.493,-47.485,16.418
-0.521,-0.788,-0.135,10.254,19.104,16.846
-0.657,-0.791,-0.37,35.278,101.563,21.179
-0.637,-0.866,-0.502,64.026,205.2,26.733
-0.536,-0.909,-0.484,88.257,318.115,28.687
-0.263,-0.952,-0.431,104.004,430.42,30.64
0.013,-0.92,-0.412,110.046,525.452,34.668
0.084,-1.023,-0.485,124.817,609.07,33.447
0.254,-1.079,-0.527,133.118,677.002,29.236
0.63,-0.972,-0.417,133.606,722.046,29.419
0.763,-0.858,-0.402,138.184,732.239,37.048
0.819,-0.786,-0.402,139.587,712.708,58.838
0.992,-0.846,-0.271,140.32,680.969,89.172
1.011,-0.935,-0.138,135.01,629.761,115.906
1.089,-1.043,-0.053,117.188,552.734,136.719
1.173,-1.14,0.128,86.731,461.853,150.696
1.217,-1.317,0.259,41.443,353.699,156.799
1.293,-1.437,0.182,-15.747,225.037,151.245
1.353,-1.449,0.2,-73.853,89.661,136.536
1.41,-1.431,0.226,-123.596,-46.692,119.873
1.38,-1.363,0.132,-169.067,-189.27,105.713
1.273,-1.346,0.03,-206.97,-324.158,92.896
1.186,-1.327,-0.133,-234.924,-442.383,79.102
1.05,-1.227,-0.396,-246.521,-542.48,60.242
0.83,-1.05,-0.653,-232.239,-617.859,34.729
0.583,-0.874,-0.785,-200.439,-661.133,7.568
0.355,-0.759,-0.784,-164.185,-672.546,-13.733
0.131,-0.676,-0.751,-128.296,-656.982,-27.649
-0.089,-0.644,-0.707,-91.248,-615.54,-31.555
-0.288,-0.608,-0.632,-54.077,-550.049,-23.743
-0.415,-0.599,-0.502,-16.724,-466.431,-5.127
-0.436,-0.666,-0.37,16.846,-377.258,18.066
-0.412,-0.752,-0.295,44.434,-295.654,36.56
-0.416,-0.835,-0.257,67.078,-220.215,46.204
-0.433,-0.922,-0.205,82.336,-146.301,49.622
-0.562,-0.953,-0.246,90.82,-69.641,47.119
-0.82,-0.973,-0.367,99.365,26.611,35.217
-0.835,-0.999,-0.245,100.525,150.269,26.978
-0.592,-1.021,-0.143,95.215,274.17,19.47
-0.343,-1.057,-0.155,88.867,382.507,5.676
0.01,-1.145,-0.11,79.163,472.839,-3.357
0.472,-1.2,-0.014,62.561,526.428,-5.981
0.818,-1.152,0.071,43.823,532.593,-6.592
0.919,-1.03,0.148,28.503,501.953,-5.859
0.829,-0.805,0.252,19.287,448.059,-1.282
0.628,-0.731,0.069,18.188,380.493,16.846
0.98,-1.461,0.122,15.808,323.547,33.02
0.918,-0.727,0.193,-6.348,245.605,14.648
0.765,-1.283,0.008,1.221,169.617,33.386
0.88,-1.145,0.401,-13.245,110.535,25.269
0.886,-1.0,0.166,-19.775,17.578,23.315
0.884,-1.027,0.124,-19.165,-54.077,33.02
0.949,-1.153,0.153,-23.804,-115.479,44.006
0.949,-1.188,0.146,-32.41,-184.387,52.612
0.837,-1.175,0.082,-39.795,-254.883,53.833
0.807,-1.181,0.018,-47.119,-319.946,51.575
0.775,-1.123,0.004,-59.692,-381.836,48.218
0.649,-1.044,0.001,-70.557,-437.073,40.344
0.496,-0.954,-0.04,-76.782,-479.675,29.419
0.355,-0.853,-0.095,-76.172,-504.761,18.921
0.171,-0.746,-0.158,-68.115,-511.169,11.902
-0.035,-0.648,-0.244,-51.819,-496.582,10.986
-0.226,-0.58,-0.257,-28.748,-458.008,17.7
-0.338,-0.86,-0.102,-2.38,-402.039,23.132
-0.377,-1.013,-0.122,9.216,-345.825,10.193
-0.744,-0.745,-0.325,14.832,-270.081,-1.953
-1.322,-0.722,-0.587,31.982,-145.935,10.193
-1.526,-0.832,-0.538,38.086,31.982,21.667
-1.372,-0.862,-0.49,34.424,235.046,15.808
-1.06,-0.936,-0.602,35.095,432.8,11.841
-0.584,-0.937,-0.655,37.048,609.131,10.803
0.015,-0.981,-0.619,45.166,739.868,10.742
0.655,-1.056,-0.53,51.086,808.533,0.488
1.05,-0.98,-0.565,57.19,818.481,-16.907
1.283,-1.28,-0.475,71.472,788.574,-26.55
1.406,-1.248,-0.146,55.542,729.431,-49.072
1.41,-0.994,0.119,38.757,642.212,-59.326
1.44,-0.945,0.252,29.785,536.804,-53.894
1.656,-1.046,0.427,15.686,413.818,-37.781
1.839,-1.105,0.619,-3.54,262.756,-14.954
1.865,-1.142,0.634,-21.667,85.693,5.859
1.877,-1.199,0.535,-38.574,-98.328,26.367
1.852,-1.245,0.399,-56.458,-276.978,47.974
1.643,-1.241,0.139,-73.242,-441.467,66.223
1.33,-1.171,-0.192,-84.961,-575.928,76.477
0.98,-1.018,-0.494,-86.67,-670.959,76.05
0.686,-0.914,-0.675,-77.209,-724.548,71.167
0.434,-0.79,-0.774,-60.791,-744.141,59.265
0.239,-0.708,-0.778,-43.396,-734.131,45.166
0.126,-0.694,-0.681,-27.832,-702.698,36.011
0.006,-0.664,-0.569,-9.827,-659.607,29.846
-0.155,-0.667,-0.476,15.137,-605.103,26.306
-0.372,-0.69,-0.418,41.138,-540.955,23.926
-0.649,-0.716,-0.385,62.683,-462.158,22.888
-1.11,-0.798,-0.492,81.97,-355.042,19.104
-1.632,-0.94,-0.658,93.384,-202.454,10.986
-1.722,-0.944,-0.589,90.637,-0.854,5.432
-1.382,-0.976,-0.452,84.045,215.942,5.249
-1.04,-1.109,-0.479,75.378,409.607,-1.587
-0.637,-1.139,-0.548,66.162,575.012,-11.292
-0.026,-1.112,-0.574,65.491,698.975,-14.038
0.513,-1.148,-0.664,67.627,767.273,-13.794
0.88,-1.163,-0.685,69.092,795.654,-23.743
1.1,-1.158,-0.605,68.115,788.086,-36.743
1.226,-1.078,-0.349,59.326,751.404,-42.48
1.306,-1.005,-0.107,42.664,686.279,-36.194
1.455,-1.063,0.113,24.353,597.29,-22.522
1.714,-1.108,0.376,0.61,481.14,-6.104
1.909,-1.026,0.569,-26.428,324.585,15.991
2.232,-1.383,0.958,-53.955,135.437,45.471
2.51,-1.346,0.878,-88.135,-90.82,53.345
1.781,-1.899,-0.012,-125.793,-508.118,117.432
1.512,-1.605,-0.317,-152.954,-659.912,85.632
1.168,-1.13,-0.827,-159.79,-777.283,62.134
0.749,-0.788,-1.101,-148.926,-833.13,54.382
0.388,-0.563,-1.088,-125.183,-842.529,48.401
0.177,-0.48,-0.926,-93.201,-822.144,43.396
-0.055,-0.402,-0.819,-59.57,-783.569,40.344
-0.361,-0.371,-0.807,-19.592,-716.37,45.654
-0.831,-0.369,-0.721,28.931,-609.436,46.448
-1.44,-0.55,-0.74,74.28,-460.388,45.41
-2.069,-0.917,-0.822,107.727,-272.4,53.04
-2.164,-1.053,-0.779,114.929,-33.264,54.382
-1.659,-0.873,-0.525,108.337,247.009,45.776
-1.174,-0.86,-0.649,106.201,480.53,48.401
-0.738,-1.052,-0.877,114.807,672.119,41.199
-0.046,-1.338,-1.044,129.761,817.383,31.616
0.84,-1.691,-0.975,129.578,892.517,10.315
1.674,-1.553,-0.714,108.765,893.616,-26.55
1.913,-0.92,-0.393,100.342,825.806,-51.392
2.163,-1.072,0.185,107.056,714.111,-41.016
2.544,-1.26,0.889,72.51,538.147,-42.542
2.756,-1.36,1.015,29.907,294.922,-42.053
2.734,-1.247,0.843,-21.667,13.611,-34.119
2.61,-1.157,0.5,-60.547,-247.559,-11.414
2.33,-1.266,0.04,-84.534,-474.121,15.076
1.957,-1.423,-0.393,-97.961,-652.222,38.94
1.495,-1.422,-0.761,-98.206,-774.292,51.453
0.989,-1.3,-1.055,-83.984,-839.722,49.622
0.424,-1.106,-1.127,-58.716,-845.642,36.255
-0.344,-0.744,-1.074,-21.912,-793.335,19.836
-1.164,-0.708,-1.064,19.287,-674.377,20.081
-1.638,-0.748,-1.11,36.56,-493.713,48.889
-1.798,-0.893,-0.779,42.175,-253.723,102.234
-1.653,-1.06,-0.379,38.513,4.944,135.132
-1.215,-0.98,-0.301,23.56,234.863,150.696
-0.432,-0.984,-0.284,20.203,427.979,175.598
0.188,-1.007,-0.409,28.87,559.998,195.557
0.451,-1.174,-0.593,48.889,641.418,201.294
0.665,-1.36,-0.636,71.655,690.613,194.519
1.005,-1.524,-0.589,84.839,703.491,184.875
1.402,-1.559,-0.502,91.492,673.889,163.086
1.724,-1.517,-0.034,90.576,599.06,132.568
2.077,-1.431,0.589,74.951,471.924,111.877
2.269,-1.357,0.848,43.518,274.902,106.018
2.433,-1.534,0.848,-0.305,44.495,102.905
2.211,-1.44,0.443,-50.842,-182.129,88.623
1.917,-1.658,0.354,-96.252,-371.704,80.139
1.512,-1.652,-0.142,-139.221,-539.124,59.509
0.969,-1.189,-0.443,-159.424,-656.921,49.988
0.776,-1.267,-0.633,-146.545,-717.041,55.359
0.458,-1.092,-0.891,-125.061,-744.385,40.833
-0.295,-0.78,-1.097,-87.708,-709.717,27.832
-1.296,-0.815,-1.172,-50.354,-599.487,30.884
-1.583,-0.794,-0.986,-42.542,-433.899,53.284
-1.684,-0.603,-0.748,-37.598,-228.76,87.708
-1.571,-0.533,-0.38,-29.48,-3.723,118.896
-1.028,-0.886,-0.385,-34.119,193.909,142.761
-0.365,-0.632,-0.265,-43.884,352.356,140.015
-0.077,-0.806,-0.57,-27.588,451.233,148.926
0.154,-0.849,-0.533,-8.911,526.184,137.756
0.543,-1.045,-0.532,3.54,571.35,109.863
1.557,-1.091,-0.001,2.686,566.711,70.74
1.741,-0.906,-0.03,-3.784,477.051,41.748
1.754,-1.125,0.596,-3.906,358.948,21.851
1.479,-0.58,0.736,-47.302,209.839,-30.701
1.128,-0.485,0.285,-50.781,76.721,-18.738
0.796,-0.37,0.141,-48.706,-16.663,7.08
0.643,-0.333,0.192,-36.499,-82.703,41.321
0.518,-0.407,-0.011,-19.714,-135.742,69.336
0.174,-0.55,-0.067,-1.16,-151.184,83.252
-0.228,-0.602,-0.063,8.972,-126.282,87.097
-0.306,-0.734,-0.075,7.568,-72.144,83.374
0.023,-0.801,-0.074,-8.667,-9.766,70.74
0.301,-0.743,-0.012,-29.968,30.457,54.321
0.582,-0.682,0.122,-48.645,37.17,40.222
0.938,-0.563,0.246,-60.486,6.104,32.227
1.065,-0.359,0.17,-60.547,-60.669,32.166
0.874,-0.241,-0.047,-40.283,-140.991,41.382
0.784,-0.422,-0.128,-5.737,-204.285,52.551
0.307,-0.17,-0.367,25.696,-244.08,48.462
-0.498,-0.147,-0.572,69.153,-220.703,45.288
-0.745,-0.585,-0.416,106.14,-98.938,43.152
-0.667,-0.672,-0.382,100.952,69.336,33.752
-0.184,-0.736,-0.373,78.491,241.211,26.428
0.375,-0.724,-0.336,57.129,372.864,20.569
0.514,-0.672,-0.508,45.898,453.491,13.428
0.765,-0.843,-0.597,37.598,507.202,10.376
1.59,-0.792,-0.072,9.399,514.343,10.071
2.083,-0.776,-0.179,-14.526,430.664,7.324
2.244,-0.833,0.206,-17.517,298.523,-14.038
2.246,-0.792,0.18,-32.898,127.625,-44.189
2.116,-0.708,-0.124,-53.955,-53.223,-66.772
1.888,-0.738,-0.181,-66.223,-198.059,-85.999
1.602,-0.73,-0.184,-69.946,-302.246,-106.506
1.344,-0.59,-0.237,-69.824,-374.268,-130.615
1.076,-0.355,-0.47,-54.016,-409.851,-144.287
0.648,-0.438,-0.688,-8.789,-391.174,-141.113
0.058,-0.632,-0.746,35.889,-308.716,-116.394
-0.507,-0.478,-0.473,51.575,-187.439,-76.172
-0.603,-0.544,-0.429,76.66,-20.63,-35.706
-0.322,-0.666,-0.579,103.149,173.584,-2.625
0.099,-0.884,-0.434,109.68,348.633,27.649
0.354,-0.73,-0.404,93.933,489.258,47.729
0.885,-0.618,-0.146,78.857,588.318,70.068
2.184,-1.446,0.196,55.298,591.003,83.74
3.281,-1.509,2.195,-27.283,460.388,49.316
3.057,-0.838,1.431,-123.901,178.345,21.118
2.475,-0.629,0.071,-178.65,-112.976,25.879
1.936,-0.627,-0.26,-188.232,-289.001,18.921
1.605,-0.469,-0.264,-179.26,-415.955,-0.793
1.291,-0.227,-0.566,-157.227,-505.493,-26.917
0.655,-0.319,-0.886,-110.718,-521.179,-52.124
-0.842,-0.285,-0.775,-67.139,-447.266,-63.782
-1.977,-0.211,-0.425,-44.495,-257.507,-33.813
-1.782,-0.319,-0.595,-25.696,36.865,17.7
-0.759,-0.257,-0.985,-6.897,346.436,67.322
-0.004,0.023,-1.218,19.287,562.378,102.722
0.415,-0.312,-1.229,79.041,703.918,105.469
1.029,-1.074,-0.859,120.117,785.034,82.092
3.318,-0.986,0.38,17.395,580.383,33.081
3.435,-0.582,0.584,-23.804,282.471,27.039
2.964,-0.877,0.15,-63.11,-88.684,22.156
2.386,-0.992,-0.3,-95.886,-413.574,15.564
1.581,-0.6,-0.762,-119.995,-624.451,0.366
0.894,-0.443,-0.945,-120.483,-722.168,-6.775
0.366,-0.399,-0.977,-100.952,-734.741,-13.794
-0.202,-0.424,-0.882,-73.181,-684.692,-27.527
-0.746,-0.669,-0.872,-41.016,-565.552,-24.475
-1.124,-0.662,-0.855,-23.376,-386.23,12.451
-1.196,-0.574,-0.616,-14.832,-168.335,50.476
-0.882,-0.576,-0.526,0.977,49.377,72.083
-0.442,-0.767,-0.46,26.611,230.652,72.021
0.163,-1.036,-0.275,45.166,360.901,58.289
0.888,-1.174,-0.208,37.598,422.119,47.485
1.694,-1.232,-0.462,20.996,409.851,42.175
2.395,-1.363,-0.268,-0.366,331.665,44.983
2.489,-0.948,0.244,-40.955,181.824,52.246
1.618,-0.29,0.001,-44.678,-12.39,72.571
1.73,-0.627,-0.304,-12.939,-162.476,99.304
1.521,-1.174,0.315,-5.127,-236.389,77.393
0.579,-0.483,0.078,-7.996,-299.5,42.908
-0.165,-0.275,-0.328,21.301,-292.175,49.744
-0.562,-0.38,-0.43,55.725,-172.913,52.917
-0.546,-0.548,-0.376,76.66,8.484,49.744
-0.32,-0.547,-0.397,79.59,198.242,33.081
0.112,-0.66,-0.373,78.796,361.145,7.935
0.908,-0.814,-0.345,67.566,454.163,-17.761
1.687,-0.924,-0.269,49.622,452.82,-40.1
1.944,-0.628,-0.08,22.705,366.272,-49.805
2.602,-0.443,0.369,-3.479,213.318,-39.917
2.644,-0.927,0.531,-32.532,20.569,-40.955
1.986,-0.427,0.665,-79.285,-172.913,-48.035
1.387,-0.244,-0.134,-110.352,-349.792,-19.287
0.715,-0.339,-0.556,-102.539,-426.697,11.108
0.066,-0.316,-0.708,-80.261,-402.039,39.795
-0.494,-0.226,-0.697,-65.918,-301.392,62.988
-0.575,-0.358,-0.48,-50.903,-138.367,86.182
0.023,-0.385,-0.49,-46.082,26.489,95.642
0.431,-0.488,-0.422,-46.753,147.949,86.182
0.612,-0.4,-0.332,-51.392,233.887,66.528
1.007,-0.457,-0.358,-48.523,276.001,56.458
1.674,-0.575,-0.164,-48.34,266.174,46.57
1.695,-0.65,-0.1,-59.631,202.454,24.048
1.431,-0.479,0.23,-75.867,122.192,-7.202
1.177,-0.503,0.377,-94.971,47.668,-22.522
0.91,-0.479,0.424,-116.089,2.93,-20.996
0.715,-0.449,0.356,-135.01,-12.085,-10.681
0.565,-0.487,0.333,-150.085,-5.737,-2.625
0.48,-0.438,0.263,-160.278,12.573,2.136
0.551,-0.348,0.18,-161.499,26.733,6.104
0.597,-0.354,0.141,-157.593,32.593,3.723
0.571,-0.369,0.117,-148.56,35.095,-3.235
0.38,-0.299,0.034,-139.16,39.246,-12.695
0.185,-0.279,-0.07,-123.474,58.105,-29.297
0.16,-0.321,-0.094,-107.3,95.52,-51.575
0.264,-0.378,-0.017,-99.426,139.16,-76.599
0.427,-0.517,0.046,-96.13,177.49,-101.99
0.659,-0.663,0.046,-100.342,203.064,-126.587
1.043,-0.736,0.091,-113.342,205.017,-132.507
1.178,-0.692,0.121,-124.023,174.866,-117.004
1.197,-0.746,0.084,-127.686,125.916,-97.534
1.322,-0.868,0.048,-131.348,70.862,-81.421
1.323,-0.803,0.015,-138.794,13.794,-67.383
1.096,-0.645,-0.095,-138.062,-29.907,-51.758
0.812,-0.637,-0.198,-120.422,-43.274,-34.851
0.639,-0.694,-0.137,-102.051,-26.428,-19.47
0.525,-0.699,-0.007,-90.942,0.977,-8.545
0.391,-0.677,0.045,-75.684,32.043,-5.127
0.358,-0.684,0.098,-64.209,63.965,-9.277
0.409,-0.688,0.149,-60.12,88.44,-20.264
0.49,-0.687,0.187,-61.035,101.624,-34.851
0.751,-0.725,0.182,-61.829,102.966,-45.105
0.933,-0.721,0.172,-61.218,89.905,-44.067
0.939,-0.63,0.175,-59.021,71.411,-40.71
0.933,-0.622,0.142,-52.246,53.284,-35.767
0.94,-0.676,0.089,-41.565,37.231,-31.128
0.917,-0.755,0.049,-31.006,23.865,-30.029
0.885,-0.816,0.047,-22.644,13.245,-29.663
0.858,-0.82,0.068,-17.151,3.174,-26.978
0.831,-0.795,0.085,-15.198,-5.554,-22.034
0.777,-0.748,0.079,-14.526,-13.489,-16.541
0.737,-0.675,0.076,-14.343,-18.921,-10.742
0.693,-0.614,0.07,-13.306,-22.583,-5.493
0.641,-0.66,0.066,-10.376,-23.865,-2.686
0.617,-0.664,0.078,-6.897,-23.437,-1.831
0.593,-0.64,0.115,-3.967,-21.606,-0.793
0.557,-0.663,0.138,0.061,-19.714,1.648
0.537,-0.701,0.143,4.944,-17.578,5.249
0.507,-0.772,0.138,9.583,-15.137,8.667
0.495,-0.839,0.122,12.817,-11.169,9.766
0.507,-0.894,0.093,13.733,-6.714,9.338
0.552,-0.969,0.067,12.268,-1.831,6.531
0.626,-0.967,0.051,9.216,2.136,1.465
0.688,-0.933,0.052,4.883,4.028,-1.343
0.733,-0.894,0.059,1.099,3.662,-1.709
0.762,-0.86,0.062,-1.587,1.953,-0.61
0.754,-0.83,0.067,-3.479,-0.366,1.953
0.741,-0.8,0.07,-4.639,-1.709,5.005
0.724,-0.784,0.078,-4.761,-2.197,6.287
0.705,-0.768,0.083,-4.395,-1.953,5.554
0.676,-0.776,0.081,-4.15,-2.197,4.456
0.663,-0.775,0.083,-4.211,-2.258,3.418
0.664,-0.757,0.094,-4.7,-2.747,2.441
0.665,-0.74,0.104,-4.944,-4.395,2.502
0.673,-0.715,0.109,-4.028,-6.592,3.479
0.671,-0.674,0.12,-3.296,-9.094,5.371
0.661,-0.641,0.125,-2.014,-11.841,8.057
0.654,-0.613,0.121,0.061,-14.465,10.742
0.645,-0.605,0.113,1.831,-16.357,13.672
0.644,-0.63,0.094,4.028,-17.151,14.587
0.635,-0.669,0.08,5.554,-17.212,15.503
0.618,-0.682,0.075,5.798,-16.663,16.357
0.617,-0.68,0.075,5.493,-15.32,17.578
0.623,-0.689,0.086,5.127,-13.855,19.592
0.647,-0.703,0.1,5.249,-12.878,21.24
0.696,-0.696,0.122,6.042,-12.817,22.888
0.735,-0.683,0.134,6.836,-14.526,25.879
0.739,-0.679,0.138,7.812,-17.273,30.212
0.57,-0.004,0.773,61.218,-13.55,-43.091
0.215,0.29,1.325,60.791,19.47,-65.43
0.047,0.62,1.118,81.238,38.513,-83.496
0.459,0.585,0.969,111.572,32.043,-83.374
0.807,0.339,0.967,143.494,19.897,-72.51
0.815,0.219,0.962,161.56,2.991,-67.871
0.753,0.199,0.932,168.762,-10.864,-68.665
0.702,0.11,0.93,171.082,-18.372,-69.214
0.706,0.093,0.957,164.795,-24.719,-70.557
0.717,0.108,0.963,155.212,-31.25,-71.472
0.702,0.106,0.979,143.188,-36.072,-70.74
0.68,0.104,0.994,129.028,-42.419,-67.688
0.676,0.109,0.993,114.624,-51.636,-62.378
0.611,0.084,1.023,101.44,-61.89,-56.274
0.493,0.039,1.081,88.745,-67.322,-50.659
0.351,0.002,1.108,75.317,-65.063,-45.471
0.239,-0.031,1.128,61.035,-51.514,-39.49
0.187,-0.016,1.151,46.143,-30.029,-32.715
0.214,-0.027,1.174,30.151,-6.409,-23.315
0.297,-0.025,1.159,15.625,15.625,-11.963
0.442,0.008,1.156,2.38,34.363,-0.549
0.55,0.041,1.145,-11.658,43.03,10.925
0.604,0.039,1.122,-25.085,42.847,22.339
0.624,0.064,1.09,-36.56,37.415,30.823
0.618,0.095,1.04,-47.791,30.212,38.086
0.564,0.128,0.981,-57.19,23.01,44.25
0.553,0.162,0.973,-64.758,18.066,50.598
0.546,0.17,0.943,-70.251,10.132,58.105
0.508,0.202,0.931,-75.073,1.587,64.575
0.495,0.196,0.907,-78.247,-5.493,68.237
0.46,0.219,0.891,-79.895,-12.939,68.604
0.421,0.28,0.866,-78.674,-21.24,67.932
0.42,0.312,0.8,-72.388,-32.043,69.397
0.371,0.338,0.744,-64.331,-47.729,68.787
0.266,0.337,0.696,-53.589,-62.073,65.979
0.101,0.408,0.653,-43.274,-70.007,60.303
0.026,0.499,0.668,-38.818,-66.711,55.42
0.112,0.495,0.68,-37.964,-60.242,51.392
0.157,0.488,0.666,-35.461,-53.345,43.457
0.118,0.536,0.7,-32.898,-42.053,35.461
0.142,0.615,0.831,-32.227,-30.823,33.264
0.272,0.448,0.815,-33.508,-27.71,36.255
0.303,0.44,0.758,-35.034,-27.222,32.898
0.224,0.509,0.828,-35.461,-20.813,31.616
0.274,0.385,0.849,-34.424,-17.944,33.325
0.333,0.364,0.835,-33.264,-16.479,30.09
0.276,0.363,0.841,-34.241,-10.925,28.564
0.239,0.36,0.847,-35.339,-4.15,28.198
0.26,0.339,0.851,-35.95,0.549,29.724
0.248,0.308,0.839,-35.156,4.822,31.677
0.215,0.311,0.827,-33.63,10.62,31.921
0.22,0.31,0.818,-32.898,17.7,33.203
0.252,0.309,0.812,-33.081,24.78,35.156
0.241,0.315,0.732,-34.79,30.151,36.865
0.272,0.311,0.722,-35.828,37.537,38.757
0.314,0.408,0.766,-36.011,38.94,40.466
0.411,0.42,0.748,-36.438,27.1,48.218
0.481,0.421,0.782,-36.255,8.911,56.213
0.553,0.422,0.823,-33.997,-10.132,64.087
0.52,0.428,0.796,-33.264,-33.203,69.458
0.407,0.407,0.818,-32.166,-44.373,72.998
0.331,0.422,0.81,-32.776,-51.331,73.792
0.251,0.433,0.778,-33.02,-50.842,72.693
0.198,0.448,0.765,-32.104,-42.786,69.885
0.143,0.436,0.779,-30.151,-31.372,66.04
-0.584,0.062,0.773,-26.184,-22.461,61.401
-0.046,0.56,0.823,-30.884,-15.991,46.265
-0.017,0.457,0.905,-22.888,-12.634,27.649
-0.043,0.48,0.839,-17.09,-19.104,25.513
-0.025,0.499,0.762,-17.151,-24.597,21.545
-0.028,0.519,0.761,-18.311,-20.264,18.677
-0.026,0.476,0.754,-16.846,-8.789,16.052
0.045,0.462,0.732,-13.245,7.141,14.587
0.124,0.442,0.779,-9.766,21.973,12.939
0.223,0.449,0.815,-5.798,32.104,11.902
0.277,0.479,0.821,-1.953,36.133,9.888
0.293,0.506,0.841,1.465,34.668,7.507
0.295,0.534,0.856,7.446,30.457,6.836
0.293,0.588,0.886,15.93,23.315,8.179
0.328,0.543,0.967,28.809,13.123,12.268
0.272,0.614,0.957,41.016,-6.714,13.855
0.14,0.545,0.945,46.875,-31.433,19.226
0.063,0.504,0.879,54.871,-52.368,22.339
-0.022,0.474,0.795,61.401,-66.223,22.339
-0.157,0.461,0.762,65.063,-63.843,19.409
-0.157,0.426,0.725,68.787,-48.767,14.099
-0.108,0.387,0.724,72.388,-31.311,6.531
-0.036,0.359,0.784,74.585,-15.564,-0.183
0.126,0.394,0.803,74.097,-9.644,-3.174
0.165,0.36,0.834,69.763,-12.268,-0.793
0.142,0.352,0.883,63.965,-16.602,3.479
0.141,0.374,0.889,56.458,-25.452,8.606
0.169,0.382,0.88,47.974,-27.344,14.465
0.22,0.391,0.877,43.579,-23.499,20.264
0.276,0.408,0.885,42.603,-21.301,25.085
0.278,0.428,0.889,44.434,-23.682,29.907
0.255,0.422,0.894,47.607,-28.015,32.959
0.218,0.414,0.895,50.781,-33.752,33.813
0.174,0.406,0.889,51.758,-39.49,33.264
0.128,0.417,0.88,51.025,-44.617,31.372
0.087,0.439,0.872,50.72,-48.279,27.649
0.066,0.444,0.865,52.612,-49.927,23.499
0.053,0.453,0.874,56.03,-49.133,19.958
0.045,0.471,0.895,61.584,-46.875,17.09
0.044,0.48,0.918,68.359,-43.457,14.648
0.046,0.48,0.938,75.745,-40.222,11.719
0.044,0.475,0.958,83.435,-37.476,8.545
0.053,0.458,0.978,91.919,-36.194,5.432
0.057,0.428,0.992,99.854,-36.194,2.991
0.047,0.39,1.003,106.506,-37.048,2.136
0.045,0.347,1.014,112.671,-37.292,1.953
0.045,0.298,1.022,117.31,-36.987,2.014
0.016,0.256,1.02,119.568,-35.95,3.235
-0.014,0.222,1.015,120.117,-34.302,5.005
-0.039,0.183,1.012,120.483,-31.677,6.104
-0.07,0.128,0.996,121.216,-26.794,7.507
-0.097,0.06,0.976,120.605,-19.348,8.484
-0.093,-0.002,0.979,118.286,-9.583,8.179
-0.058,-0.061,1.014,114.685,0.427,6.409
1.326,0.425,0.661,-279.419,184.814,32.959
1.216,0.448,0.548,-271.912,166.504,37.781
1.174,0.492,0.494,-262.878,155.579,41.077
1.215,0.538,0.376,-248.596,150.879,43.579
1.261,0.555,0.329,-233.521,150.635,46.509
1.308,0.526,0.331,-223.45,154.846,46.448
1.329,0.401,0.311,-222.168,161.926,49.988
1.23,0.357,0.375,-236.694,179.871,60.425
1.242,0.454,0.414,-255.493,199.829,68.542
1.336,0.61,0.477,-271.24,203.491,70.984
1.42,0.747,0.511,-280.029,189.148,69.824
1.424,0.845,0.422,-279.358,160.583,67.749
1.381,0.931,0.285,-268.494,126.404,67.993
1.278,0.923,0.168,-248.657,91.98,72.815
1.149,0.881,0.156,-226.99,66.895,81.604
1.087,0.839,0.17,-208.069,53.528,94.116
1.092,0.848,0.235,-193.542,45.593,112.122
1.118,0.857,0.331,-180.664,38.391,133.545
1.134,0.957,0.464,-171.631,27.222,152.1
1.132,1.031,0.539,-159.729,10.132,169.739
1.091,1.078,0.594,-145.813,-13.916,183.655
0.983,1.119,0.599,-131.897,-41.138,191.467
0.832,1.057,0.519,-119.385,-60.73,195.862
0.667,0.97,0.379,-109.558,-67.2,199.951
0.688,0.872,0.204,-102.6,-61.157,200.562
0.579,0.36,0.411,-103.271,-53.162,203.735
-0.03,0.536,0.247,-132.385,-44.495,184.57
0.387,0.546,0.126,-136.902,-16.846,146.667
0.583,0.56,0.353,-139.099,-14.099,127.808
0.498,0.805,0.132,-145.691,-23.193,109.802
0.492,0.432,0.319,-138.733,-25.146,101.44
0.294,0.47,0.824,-133.606,-14.343,88.013
0.29,1.227,0.471,-147.217,4.944,91.003
0.564,1.443,-0.236,-139.099,-2.747,111.084
0.676,1.227,-0.345,-98.816,-25.391,116.455
0.624,1.017,-0.301,-56.458,-44.617,115.112
0.499,0.879,-0.25,-31.738,-51.697,115.906
0.496,0.656,-0.05,-21.912,-37.415,114.014
0.545,0.663,0.012,-24.414,-24.841,105.164
0.527,0.712,-0.094,-28.137,-23.743,97.778
0.557,0.704,-0.111,-24.841,-24.719,91.98
0.587,0.662,-0.067,-18.616,-24.841,88.013
0.565,0.642,-0.062,-15.93,-25.818,87.83
0.515,0.653,-0.108,-17.456,-28.32,89.111
0.479,0.69,-0.148,-18.616,-29.358,88.867
0.47,0.729,-0.139,-17.273,-27.405,86.792
0.459,0.761,-0.131,-14.648,-23.926,84.656
0.444,0.758,-0.126,-10.376,-20.935,82.336
0.388,0.758,-0.13,-5.249,-19.714,79.346
0.349,0.767,-0.128,0.61,-18.555,74.097
0.355,0.78,-0.115,6.653,-17.09,67.749
0.333,0.797,-0.107,11.292,-17.029,63.782
0.322,0.82,-0.108,16.052,-19.47,61.89
0.33,0.845,-0.095,20.02,-22.827,62.805
0.324,0.868,-0.059,22.827,-28.259,67.81
0.274,0.904,-0.071,26.306,-36.377,75.867
0.229,0.964,-0.085,32.715,-42.603,84.229
0.205,0.992,-0.077,41.931,-46.875,91.736
0.237,1.013,-0.042,53.284,-49.988,97.961
0.271,1.016,-0.006,64.148,-55.542,106.201
0.258,0.999,-0.0,73.914,-67.078,116.028
0.2,0.935,0.008,82.153,-81.055,125.305
0.123,0.859,0.025,88.989,-92.468,131.592
0.078,0.809,0.04,93.201,-99.67,136.169
-0.034,0.761,-0.007,95.947,-106.628,138.916
-0.161,0.848,0.001,94.543,-110.107,137.024
-0.104,0.868,-0.047,96.008,-101.624,137.756
-0.089,0.897,-0.034,99.792,-90.21,144.104
-0.096,0.848,0.012,105.286,-79.773,152.71
-0.037,0.837,0.039,111.694,-72.937,163.33
-0.003,0.903,0.04,115.967,-73.486,175.171
0.005,0.902,0.038,120.056,-77.759,190.247
0.004,0.907,0.042,126.892,-81.177,205.261
-0.046,0.893,0.023,136.23,-82.886,217.59
-0.151,0.789,0.023,147.583,-80.75,224.487
-0.302,0.704,-0.0,159.668,-72.266,221.436
-0.338,0.799,-0.007,167.847,-53.955,212.891
-0.381,0.63,0.096,172.302,-26.917,208.557
-0.282,0.637,0.145,176.086,-2.258,197.449
-0.303,0.714,0.204,176.208,8.24,190.857
-0.328,0.709,0.383,172.607,16.907,191.589
-0.307,0.663,0.556,160.583,22.766,199.768
-0.329,0.55,0.638,149.292,26.611,205.933
-0.415,0.667,0.567,135.742,22.217,204.041
-0.391,0.717,0.521,131.042,25.574,205.2
-0.354,0.693,0.503,133.362,27.344,208.74
-0.392,0.624,0.491,138.245,24.658,210.815
-0.521,0.568,0.49,140.564,21.606,207.336
-0.634,0.604,0.515,139.954,28.442,199.219
-0.629,0.52,0.608,137.024,46.021,190.186
-0.602,0.467,0.748,130.066,58.899,177.185
-0.599,0.539,0.657,119.08,59.204,160.645
-0.688,0.501,0.65,112.671,70.557,144.409
-0.595,0.53,0.716,107.727,83.435,126.099
-0.521,0.477,0.703,102.417,82.336,112.305
-0.524,0.464,0.709,97.595,78.491,101.257
-0.519,0.436,0.729,92.59,78.125,95.764
-0.466,0.397,0.751,87.83,79.59,94.238
-0.442,0.355,0.778,81.177,76.111,93.872
-0.438,0.315,0.788,71.899,70.068,94.543
-0.431,0.303,0.784,61.096,62.866,94.604
-0.418,0.312,0.744,50.659,51.88,93.262
-0.466,0.276,0.697,44.25,38.147,89.905
-0.588,0.189,0.705,39.063,24.048,80.75
-0.695,0.17,0.698,32.898,12.573,63.11
-0.705,0.198,0.663,25.818,6.592,40.833
-0.7,0.184,0.634,18.494,7.141,19.47
-0.65,0.197,0.612,11.841,11.23,-1.465
-0.574,0.242,0.602,6.226,17.334,-19.897
-0.406,0.251,0.704,0.854,26.001,-33.752
-0.224,0.185,0.751,-6.104,27.649,-41.565
-0.271,0.172,0.738,-14.221,11.597,-47.058
-0.404,0.157,0.696,-21.729,-11.292,-52.063
-0.511,0.17,0.61,-27.527,-29.419,-59.631
-0.568,0.208,0.576,-32.043,-37.292,-68.359
-0.572,0.27,0.582,-37.354,-40.161,-80.261
-0.566,0.319,0.549,-41.077,-42.48,-96.252
-0.549,0.356,0.5,-43.945,-40.955,-114.319
-0.524,0.373,0.489,-47.058,-36.072,-134.033
1.336,0.709,-0.51,10.376,135.681,60.364
1.302,0.683,-0.585,17.029,103.943,71.411
1.234,0.705,-0.644,22.827,81.848,79.041
1.133,0.746,-0.704,30.09,68.909,86.304
1.035,0.746,-0.765,38.879,63.11,95.459
0.953,0.7,-0.804,47.607,64.27,105.835
0.891,0.653,-0.798,54.077,71.838,117.31
0.833,0.655,-0.774,58.533,80.566,127.441
0.743,0.684,-0.769,63.293,87.769,138.55
0.654,0.666,-0.743,69.702,96.375,150.513
0.573,0.618,-0.692,76.111,104.37,159.973
0.505,0.569,-0.655,81.36,106.506,165.283
0.441,0.516,-0.625,83.557,102.6,167.786
0.333,0.49,-0.616,84.29,94.91,168.03
0.214,0.47,-0.576,86.426,87.585,167.175
0.11,0.444,-0.537,88.989,79.712,164.856
0.013,0.428,-0.521,90.332,68.481,158.691
-0.082,0.423,-0.514,90.515,56.702,149.536
-0.18,0.425,-0.507,89.294,45.471,139.099
-0.288,0.427,-0.53,87.952,35.461,127.441
-0.419,0.414,-0.55,86.243,27.832,113.464
-0.582,0.395,-0.577,83.191,23.437,97.595
-0.735,0.381,-0.594,79.773,20.935,80.322
-0.864,0.371,-0.617,76.111,20.569,61.157
-0.964,0.364,-0.621,72.571,23.071,39.307
-1.005,0.373,-0.601,71.35,25.208,13.123
-1.004,0.374,-0.575,74.524,24.597,-18.982
-0.999,0.357,-0.532,81.238,22.888,-56.335
-0.928,0.338,-0.453,92.285,19.836,-95.947
-0.829,0.312,-0.37,106.934,12.939,-134.827
-0.715,0.265,-0.278,122.559,2.869,-172.119
-0.58,0.206,-0.197,137.573,-8.423,-207.031
-0.481,0.124,-0.145,149.109,-20.081,-239.441
-0.371,0.066,-0.08,156.677,-27.649,-270.874
-0.229,0.012,-0.019,162.903,-31.921,-301.514
-0.103,-0.07,-0.008,167.786,-35.767,-331.543
-0.017,-0.18,-0.04,171.57,-36.499,-360.291
0.077,-0.287,-0.058,175.903,-30.945,-385.132
0.229,-0.376,-0.054,180.603,-20.63,-406.128
0.396,-0.456,-0.058,183.777,-10.132,-424.805
0.529,-0.537,-0.043,186.157,-0.183,-440.186
0.642,-0.612,0.017,187.439,8.972,-451.294
0.713,-0.662,0.083,187.012,12.817,-458.008
0.756,-0.701,0.129,185.791,12.756,-460.937
0.78,-0.733,0.184,186.035,8.606,-458.191
0.76,-0.744,0.238,185.547,-2.686,-449.219
0.727,-0.771,0.253,185.364,-19.226,-439.026
0.707,-0.821,0.228,184.753,-36.804,-429.443
0.69,-0.885,0.174,180.237,-52.124,-420.654
0.693,-0.961,0.104,169.556,-62.561,-413.574
0.718,-1.012,0.027,152.893,-66.162,-410.583
0.719,-1.007,-0.032,134.827,-61.34,-411.865
0.703,-1.013,-0.079,122.803,-47.424,-412.72
0.728,-1.023,-0.099,112.915,-28.503,-411.56
0.794,-1.013,-0.049,106.323,-7.507,-409.912
0.867,-1.001,0.046,104.919,12.268,-404.114
0.905,-1.04,0.176,105.469,27.893,-393.127
1.034,-1.065,0.162,101.868,41.138,-377.563
1.505,-1.2,0.378,97.046,51.392,-351.746
1.935,-1.34,0.347,80.017,48.645,-314.941
2.017,-1.489,0.328,66.956,28.137,-278.076
1.689,-1.373,0.426,51.331,20.264,-274.231
1.362,-1.328,0.244,33.142,12.329,-298.767
1.267,-1.436,0.053,21.24,16.357,-319.641
1.326,-1.461,-0.095,17.456,35.522,-334.534
1.543,-1.428,-0.184,19.226,61.768,-338.196
1.798,-1.362,-0.191,18.311,84.717,-325.134
2.103,-1.376,-0.172,12.451,89.783,-297.119
2.281,-1.432,-0.177,5.676,75.867,-263.123
2.283,-1.421,-0.195,0.366,52.368,-228.21
2.21,-1.22,-0.19,-7.263,35.278,-184.143
2.057,-1.02,-0.218,-17.822,26.367,-118.591
1.829,-1.076,-0.259,-29.358,24.902,-41.199
1.605,-1.12,-0.285,-38.391,38.452,30.884
1.545,-1.219,-0.298,-44.739,65.857,95.581
1.659,-1.272,-0.151,-51.147,96.558,141.968
1.705,-1.26,-0.063,-55.847,110.291,172.241
1.661,-1.149,-0.052,-59.265,107.239,196.777
1.594,-1.15,-0.05,-60.059,97.778,223.816
1.564,-1.176,-0.11,-63.477,83.679,248.169
1.604,-1.254,-0.148,-68.909,71.96,266.968
1.598,-1.237,-0.17,-76.172,61.401,279.48
1.541,-1.136,-0.188,-82.886,48.767,295.654
1.531,-1.094,-0.208,-87.341,34.485,318.909
1.465,-1.063,-0.199,-89.355,23.01,341.248
1.37,-1.044,-0.175,-87.341,15.259,361.755
1.272,-1.066,-0.113,-86.06,10.986,380.615
1.08,-1.058,-0.066,-86.67,9.705,395.691
0.988,-1.092,-0.062,-89.233,10.071,404.785
1.003,-1.091,-0.058,-94.727,14.16,406.25
1.005,-1.022,-0.097,-100.769,20.996,407.043
1.001,-0.936,-0.111,-105.469,28.015,413.208
1.013,-0.865,-0.079,-108.704,34.729,419.922
1.023,-0.809,-0.034,-109.924,38.879,424.377
1.025,-0.744,-0.014,-108.765,38.208,426.331
1.044,-0.698,0.004,-106.323,33.203,428.345
1.058,-0.649,-0.001,-106.934,25.085,433.899
1.025,-0.593,-0.019,-108.521,13.489,440.857
0.96,-0.558,-0.048,-110.168,3.601,447.937
0.931,-0.541,-0.052,-113.953,-0.854,452.881
0.87,-0.487,-0.021,-119.812,0.244,456.909
0.75,-0.358,-0.011,-121.948,5.066,459.656
0.712,-0.208,-0.009,-115.112,9.949,459.839
0.399,-0.473,0.145,-107.971,11.719,458.496
0.786,-0.04,-0.012,-114.563,3.723,438.599
1.053,0.213,-0.106,-111.45,15.259,444.153
0.987,0.118,0.052,-104.492,36.987,456.726
0.83,-0.023,0.078,-100.281,34.668,463.318
0.59,-0.106,-0.008,-99.854,22.461,462.952
0.609,0.014,0.017,-102.051,11.902,457.336
0.656,0.115,0.007,-103.271,-0.854,454.285
0.663,0.169,-0.013,-102.966,-18.677,447.937
0.586,0.221,-0.081,-99.487,-39.795,439.575
0.447,0.252,-0.156,-92.896,-58.533,429.26
0.28,0.308,-0.215,-85.144,-69.641,411.194
0.139,0.376,-0.263,-77.759,-76.355,384.277
-0.034,0.444,-0.373,-70.862,-79.041,353.577
-0.196,0.519,-0.416,-62.805,-71.411,320.74
-0.327,0.588,-0.434,-52.124,-57.617,287.598
0.9,-1.424,-0.423,49.744,189.697,-365.051
0.994,-1.418,-0.361,47.729,198.059,-361.084
1.091,-1.434,-0.386,48.218,195.312,-357.727
1.331,-1.473,-0.333,48.462,188.354,-355.713
1.57,-1.434,-0.303,52.368,169.556,-357.544
1.828,-1.386,-0.227,60.73,138.0,-358.948
1.982,-1.319,-0.151,71.045,92.59,-357.422
2.02,-1.238,-0.148,82.275,32.288,-354.858
1.877,-1.148,-0.182,89.233,-32.471,-351.868
1.594,-1.055,-0.266,91.309,-89.172,-344.421
1.15,-0.829,-0.442,86.975,-133.606,-333.618
0.612,-0.726,-0.579,88.501,-142.273,-314.087
0.162,-0.721,-0.675,87.769,-114.38,-283.142
-0.111,-0.718,-0.725,79.529,-66.284,-251.709
-0.21,-0.748,-0.7,67.139,-9.094,-223.511
-0.162,-0.854,-0.639,50.415,44.617,-200.134
-0.089,-0.965,-0.586,30.701,86.06,-187.744
-0.033,-1.071,-0.544,12.573,115.051,-186.462
0.077,-1.14,-0.55,0.977,129.883,-196.228
0.165,-1.101,-0.591,0.977,129.822,-216.003
0.197,-1.075,-0.563,15.686,120.239,-236.694
0.215,-1.059,-0.447,40.161,102.844,-256.348
0.258,-1.076,-0.314,64.148,76.355,-273.865
0.263,-1.119,-0.242,78.369,42.053,-289.246
0.204,-1.194,-0.222,82.031,7.324,-302.063
0.121,-1.236,-0.219,77.881,-23.376,-312.866
0.079,-1.27,-0.24,69.336,-50.659,-323.486
0.019,-1.311,-0.302,60.913,-74.341,-335.449
-0.046,-1.321,-0.325,53.589,-90.21,-348.206
-0.104,-1.304,-0.33,48.95,-98.328,-359.558
-0.169,-1.329,-0.283,45.776,-100.281,-367.981
-0.185,-1.391,-0.235,39.063,-99.731,-374.451
-0.176,-1.399,-0.215,25.391,-100.464,-378.967
-0.213,-1.361,-0.182,12.817,-100.647,-379.578
-0.281,-1.357,-0.138,5.31,-100.22,-376.16
-0.359,-1.362,-0.15,0.427,-100.525,-372.498
-0.451,-1.355,-0.187,-2.258,-98.511,-367.92
-0.568,-1.297,-0.213,-0.122,-90.027,-359.131
-0.697,-1.204,-0.227,8.484,-76.416,-348.45
-0.79,-1.15,-0.239,24.597,-59.753,-336.731
-0.842,-1.096,-0.24,44.617,-43.823,-324.219
-0.793,-1.083,-0.251,60.303,-29.053,-313.232
-0.778,-1.19,-0.292,65.369,-15.259,-308.594
-0.919,-1.292,-0.278,61.768,1.099,-303.284
-1.007,-1.359,-0.211,51.88,19.226,-297.424
-0.967,-1.389,-0.16,38.391,33.813,-293.945
-0.936,-1.329,-0.092,24.597,45.166,-289.001
-0.98,-1.232,-0.057,11.719,54.077,-281.311
-1.108,-1.218,-0.085,2.502,65.125,-271.729
-1.259,-1.274,-0.122,-4.089,86.121,-259.277
-1.224,-1.344,-0.125,-15.076,117.126,-248.718
-1.116,-1.368,-0.098,-34.485,151.55,-241.577
-1.087,-1.318,-0.03,-55.542,182.739,-234.253
-1.051,-1.228,0.07,-72.632,206.238,-226.135
-1.093,-1.121,0.132,-86.548,221.13,-217.346
-1.238,-1.062,0.069,-97.168,235.413,-207.52
-1.253,-1.068,-0.056,-106.934,259.216,-201.721
-1.139,-1.08,-0.004,-122.192,294.495,-199.28
-1.022,-1.121,0.035,-145.752,323.486,-195.007
-0.97,-1.135,0.072,-177.979,344.543,-189.88
-0.941,-1.078,0.055,-215.698,359.558,-187.988
-0.872,-0.972,0.014,-251.709,368.286,-191.467
-0.781,-0.822,-0.022,-279.48,372.009,-195.984
-0.714,-0.641,0.016,-296.509,371.155,-200.806
-0.633,-0.474,0.081,-299.988,363.159,-204.285
-0.552,-0.292,0.235,-291.687,351.624,-205.444
-0.533,-0.125,0.377,-275.146,338.928,-204.346
-0.593,0.018,0.451,-254.089,324.341,-203.308
-0.648,0.096,0.475,-229.98,312.256,-203.796
-0.682,0.104,0.498,-205.994,306.396,-204.102
-0.753,0.116,0.536,-191.345,308.838,-203.308
-0.791,0.13,0.638,-187.622,315.674,-200.806
-0.738,0.163,0.745,-194.092,321.045,-196.594
-0.648,0.202,0.797,-206.116,321.533,-191.162
-0.612,0.187,0.765,-219.36,318.115,-186.768
-0.318,0.392,0.798,-231.812,308.167,-179.626
-0.481,0.493,0.671,-232.544,303.711,-175.354
-0.297,0.671,0.765,-227.356,301.147,-163.33
-0.143,0.714,0.789,-212.524,299.5,-149.902
-0.109,0.628,0.872,-199.402,293.823,-135.437
-0.113,0.574,0.942,-194.763,288.513,-125.671
-0.085,0.489,0.851,-198.303,282.959,-119.385
-0.066,0.516,0.734,-211.365,286.011,-115.112
-0.07,0.656,0.663,-225.159,292.847,-110.657
-0.066,0.745,0.617,-232.239,300.293,-103.699
-0.025,0.754,0.61,-234.375,306.824,-96.13
0.029,0.79,0.567,-233.643,310.791,-85.083
0.073,0.899,0.507,-230.103,310.547,-73.608
0.118,0.923,0.437,-219.055,303.406,-60.486
0.07,0.974,0.384,-203.43,294.067,-50.171
-0.033,1.013,0.323,-183.472,290.833,-43.335
-0.057,1.02,0.297,-162.72,298.767,-37.598
0.013,0.983,0.289,-145.02,311.218,-34.424
0.058,0.887,0.314,-132.08,318.97,-36.682
0.077,0.809,0.363,-128.418,323.425,-44.617
0.043,0.782,0.309,-134.399,329.712,-51.147
-0.014,0.805,0.182,-143.494,338.623,-54.26
-0.032,0.872,0.109,-148.804,352.417,-58.655
0.072,0.95,0.092,-148.865,369.446,-61.584
0.173,1.007,0.078,-143.372,378.54,-63.11
0.151,1.007,0.033,-133.423,383.057,-65.857
0.083,1.01,-0.045,-121.521,393.311,-69.519
0.135,0.986,-0.049,-109.68,410.767,-72.998
0.193,0.901,-0.05,-100.891,424.561,-73.364
0.212,0.836,-0.095,-96.375,427.429,-71.289
0.17,0.798,-0.137,-93.994,425.354,-69.641
0.198,0.766,-0.184,-92.468,426.636,-65.735
0.24,0.727,-0.224,-92.59,424.988,-59.509
0.111,0.746,-0.272,-93.384,420.654,-58.716
0.115,0.718,-0.356,-89.172,422.485,-61.829
0.162,0.766,-0.353,-85.876,429.077,-62.439
0.061,0.793,-0.503,-80.811,433.899,-62.378
0.013,0.866,-0.459,-74.524,445.984,-63.232
0.102,0.925,-0.433,-64.453,454.224,-67.078
0.137,0.987,-0.442,-53.65,451.66,-67.627
0.043,1.034,-0.471,-41.809,447.083,-72.205
-0.04,1.046,-0.533,-27.222,445.801,-78.43
-0.017,1.005,-0.615,-11.047,445.312,-85.205
-0.076,0.958,-0.681,3.662,449.097,-90.515
1.355,-0.637,0.911,69.214,-169.922,-370.667
1.443,-0.704,0.9,58.472,-204.163,-369.019
1.433,-0.704,0.874,44.189,-234.802,-376.404
1.357,-0.729,0.903,34.18,-260.254,-386.23
1.339,-0.744,0.933,23.437,-289.49,-398.682
1.37,-0.734,0.914,10.376,-321.289,-410.828
1.354,-0.8,0.945,-4.639,-349.731,-418.518
1.304,-0.744,0.892,-20.264,-384.888,-427.795
1.155,-0.865,0.737,-31.311,-419.739,-437.012
0.889,-0.766,0.667,-33.691,-440.369,-437.5
0.746,-0.613,0.631,-22.705,-442.261,-441.406
0.602,-0.56,0.639,3.723,-432.556,-443.726
0.471,-0.647,0.743,40.894,-410.461,-445.374
0.349,-0.691,0.795,74.585,-393.616,-442.749
0.165,-0.593,0.86,105.103,-381.958,-433.472
-0.057,-0.489,0.836,130.493,-370.117,-412.598
-0.261,-0.423,0.802,146.423,-357.178,-383.057
-0.467,-0.428,0.8,160.095,-336.914,-352.661
-0.672,-0.507,0.765,169.8,-309.753,-323.608
-0.757,-0.667,0.786,178.101,-273.01,-300.964
-0.789,-0.843,0.883,186.646,-224.06,-285.706
-0.771,-0.951,0.942,183.472,-172.852,-270.691
-0.759,-0.963,0.974,165.955,-126.587,-256.226
-0.788,-0.948,0.963,142.395,-83.862,-243.591
-0.877,-0.892,0.901,113.464,-42.725,-234.436
-0.927,-0.768,0.845,83.435,-0.977,-228.516
-0.853,-0.687,0.804,55.481,38.757,-222.534
-0.784,-0.726,0.74,29.48,66.406,-215.393
-0.815,-0.615,0.626,3.357,84.656,-210.083
-0.54,-0.599,0.639,-16.418,100.769,-204.407
-0.657,-0.787,0.618,-33.142,99.487,-198.608
-1.095,-0.728,0.634,-56.702,90.881,-206.726
-0.806,-0.701,0.6,-79.285,87.708,-222.168
-0.259,-0.458,0.489,-89.722,84.106,-223.633
0.211,0.082,0.248,-79.895,74.829,-200.439
-1.515,-1.09,0.58,-54.382,52.307,-177.002
-1.515,-0.914,0.37,-78.369,26.978,-225.952
-0.937,-0.584,0.306,-78.125,56.458,-238.098
-0.449,-0.609,0.311,-69.336,93.262,-240.723
-0.583,-0.515,0.403,-65.125,111.328,-250.488
-0.622,-0.526,0.481,-60.242,128.723,-249.39
-0.558,-0.558,0.513,-60.73,140.503,-247.131
-0.282,-0.387,0.535,-63.599,149.841,-244.629
-0.321,-0.445,0.535,-62.805,152.039,-228.516
-0.308,-0.386,0.519,-64.697,150.146,-221.741
-0.207,-0.3,0.528,-61.218,140.442,-213.562
-0.248,-0.2,0.576,-59.387,132.629,-201.416
-0.093,-0.058,0.638,-57.617,125.671,-191.589
-0.13,-0.109,0.637,-53.772,110.291,-177.063
-0.134,-0.012,0.656,-49.988,96.985,-166.321
-0.166,-0.037,0.661,-39.917,83.496,-152.405
-0.156,-0.032,0.673,-27.893,71.96,-143.127
-0.175,-0.023,0.682,-13.489,60.791,-135.498
-0.2,0.001,0.707,0.793,50.171,-130.92
-0.197,0.042,0.724,15.747,38.513,-128.784
-0.178,0.09,0.735,30.579,24.048,-127.197
-0.193,0.124,0.737,45.837,7.141,-125.916
-0.227,0.135,0.716,60.791,-9.644,-125.0
-0.276,0.134,0.675,74.768,-25.818,-123.413
-0.336,0.107,0.631,88.318,-38.879,-120.056
-0.393,0.083,0.591,101.074,-46.875,-116.882
-0.437,0.049,0.558,112.732,-50.049,-113.892
-0.463,-0.003,0.514,122.498,-49.683,-110.779
-0.474,-0.073,0.468,129.761,-46.509,-107.605
-0.458,-0.152,0.427,135.559,-41.138,-103.455
-0.426,-0.228,0.395,140.381,-34.546,-96.985
-0.379,-0.33,0.409,144.653,-29.114,-86.975
-0.302,-0.431,0.451,149.353,-27.1,-73.303
-0.229,-0.497,0.449,155.457,-30.884,-57.678
-0.222,-0.598,0.358,164.429,-40.1,-42.908
-0.149,-0.715,0.314,177.124,-50.903,-25.757
-0.137,-0.77,0.18,195.312,-59.875,-6.47
-0.112,-0.799,0.03,222.839,-63.599,11.902
-0.051,-0.836,-0.061,255.188,-61.768,32.349
-0.012,-0.887,-0.1,289.185,-53.772,55.786
-0.08,-0.989,-0.097,326.05,-39.673,79.163
-0.144,-1.133,-0.069,364.38,-20.508,99.426
-0.093,-1.314,-0.034,399.963,1.221,117.004
-0.023,-1.522,0.014,430.42,25.085,130.188
0.042,-1.652,0.042,453.125,49.377,134.827
0.14,-1.717,0.072,468.384,73.364,131.531
0.264,-1.774,0.122,475.037,93.262,123.047
0.386,-1.886,0.119,469.543,106.567,109.924
0.533,-1.826,0.146,452.026,114.563,88.318
0.725,-1.748,0.149,428.833,112.671,73.853
0.93,-1.587,0.16,401.855,95.52,69.031
1.072,-1.491,0.14,374.695,61.829,75.378
1.133,-1.439,0.093,342.041,16.541,88.989
1.066,-1.445,0.015,300.354,-32.104,108.093
0.964,-1.443,-0.05,252.197,-75.806,129.395
0.907,-1.404,-0.123,203.369,-111.877,155.334
0.836,-1.425,-0.246,155.457,-140.625,189.758
0.636,-1.521,-0.406,109.558,-158.63,225.586
0.395,-1.576,-0.556,65.43,-159.546,253.113
0.258,-1.49,-0.683,26.367,-144.47,274.963
0.187,-1.316,-0.788,-0.916,-117.065,300.659
0.115,-1.193,-0.865,-14.16,-80.139,332.581
0.06,-1.11,-0.948,-13.977,-38.269,366.333
0.078,-1.05,-1.028,-0.671,6.226,395.874
0.162,-1.015,-1.079,26.184,52.185,419.434
0.212,-0.849,-1.089,62.988,94.971,438.11
0.406,-0.956,-1.061,104.736,130.371,457.031
0.577,-1.015,-1.086,143.066,158.569,460.693
0.717,-1.027,-1.002,178.772,177.856,463.379
0.784,-1.043,-0.961,209.473,186.096,467.773
0.894,-1.051,-0.881,232.544,192.749,469.666
1.012,-1.147,-0.835,244.873,198.12,470.764
1.051,-1.139,-0.772,243.469,205.994,461.182
1.016,-1.051,-0.764,234.741,211.67,448.12
0.987,-0.951,-0.786,222.717,220.581,437.927
0.962,-0.865,-0.815,208.679,236.572,428.589
0.975,-0.787,-0.865,191.528,258.24,417.542
1.049,-0.761,-0.881,172.18,283.447,403.687
1.217,-0.777,-0.848,153.748,304.687,383.85
1.4,-0.783,-0.817,135.925,314.27,358.643
1.514,-0.71,-0.804,114.502,312.744,330.627
1.525,-0.583,-0.779,92.041,305.115,301.575
1.505,-0.466,-0.789,72.693,294.861,277.344
1.484,-0.347,-0.797,57.007,283.936,259.644
1.341,-0.207,-0.932,39.917,270.386,239.685
1.36,-0.181,-1.01,31.86,275.024,233.276
1.51,-0.126,-1.063,23.01,287.354,222.717
1.657,-0.035,-1.071,15.991,297.424,208.252
1.743,0.027,-1.101,16.541,296.814,193.909
1.758,0.08,-1.165,22.827,286.865,183.716
1.694,0.088,-1.202,29.114,273.437,179.077
1.518,0.015,-1.082,33.63,260.742,179.26
1.292,-0.14,-1.105,30.701,237.183,189.941
1.228,-0.207,-1.587,9.521,213.684,200.5
0.856,-0.315,-1.141,-28.198,235.962,209.29
0.769,-0.162,-1.149,-65.613,241.333,212.769
0.706,-0.283,-1.146,-89.783,244.446,219.421
0.708,-0.419,-1.184,-122.986,231.506,210.999
0.614,-0.264,-1.126,-159.241,214.111,188.477
0.581,0.068,-0.927,-171.753,191.467,158.02
0.579,0.128,-1.043,-149.414,149.292,129.089
0.445,0.015,-1.091,-119.812,98.45,98.816
0.341,0.037,-1.082,-91.064,51.086,60.913
0.418,0.04,-0.823,-50.72,13.55,32.166
0.574,0.012,-0.657,-10.681,-53.162,18.738
0.697,-0.145,-0.719,18.921,-146.362,16.907
0.785,-0.27,-0.749,33.203,-239.807,26.55
0.793,-0.13,-0.886,40.71,-332.764,51.086
0.707,0.057,-1.048,58.411,-415.1,87.28
0.6,0.133,-1.144,84.045,-470.398,128.54
0.459,0.132,-1.19,115.417,-501.282,165.955
0.41,0.118,-1.213,150.696,-511.23,199.219
0.411,-0.073,-1.256,187.439,-505.859,229.187
0.485,-0.356,-1.3,212.524,-486.816,252.136
0.558,-0.557,-1.265,219.299,-460.205,264.221
0.66,-0.625,-1.202,211.426,-439.88,259.705
0.739,-0.446,-1.19,196.472,-428.101,245.911
0.694,-0.277,-1.121,186.157,-411.499,238.525
0.579,-0.105,-0.984,182.495,-386.902,237.488
0.59,0.069,-0.807,182.007,-359.558,242.676
0.649,0.194,-0.658,185.181,-334.412,255.615
0.678,0.256,-0.549,191.406,-315.063,273.315
0.765,0.311,-0.477,198.303,-304.81,291.87
0.804,0.351,-0.453,204.895,-303.65,308.289
0.804,0.344,-0.444,210.388,-304.81,319.275
0.744,0.373,-0.439,212.891,-304.382,322.51
0.643,0.364,-0.386,214.417,-298.95,322.266
0.634,0.496,-0.298,211.365,-290.527,317.566
0.72,0.863,-0.298,211.609,-279.297,324.402
0.533,0.654,-0.323,231.323,-262.085,352.295
0.469,0.707,-0.373,246.155,-255.188,364.075
0.511,0.666,-0.339,266.174,-241.699,371.155
0.54,0.748,-0.266,286.438,-230.103,373.108
0.518,0.715,-0.19,307.739,-221.008,379.272
0.429,0.61,-0.133,328.613,-215.271,380.554
0.391,0.72,-0.046,344.421,-214.05,371.216
0.3,0.769,-0.007,364.197,-212.463,367.554
0.148,0.687,-0.032,381.958,-209.9,363.586
0.003,0.495,-0.045,399.048,-199.463,355.286
-0.152,0.419,0.006,412.109,-177.917,333.13
-0.266,0.384,0.058,423.157,-149.231,302.246
-0.388,0.309,0.05,434.326,-118.469,263.428
-0.544,0.228,0.084,446.106,-81.604,217.529
-0.654,0.109,0.149,457.947,-36.377,170.532
-0.656,-0.059,0.201,466.858,9.644,128.601
-0.577,-0.224,0.229,470.642,51.514,91.919
-0.462,-0.381,0.276,467.834,87.158,61.584
-0.305,-0.478,0.381,457.397,110.657,38.025
-0.135,-0.541,0.557,441.65,117.798,20.081
-0.02,-0.539,0.737,420.349,109.985,5.615
0.034,-0.513,0.829,397.095,90.332,-4.211
0.055,-0.446,1.039,373.901,64.88,-11.047
-0.211,-0.648,1.059,355.408,41.931,-15.869
-0.52,-0.617,1.362,315.125,38.086,-29.541
-0.92,-0.768,1.34,273.926,75.562,-50.232
-0.726,-0.928,1.426,218.933,139.709,-68.909
-0.076,-0.838,1.338,172.852,168.152,-56.641
0.557,-0.459,1.298,150.452,165.161,-32.898
0.787,-0.239,1.318,139.282,128.662,-21.667
0.554,-0.268,1.284,129.089,68.237,-8.789
0.245,-0.413,1.222,119.934,17.334,3.845
0.16,-0.463,1.143,111.633,-13.428,13.245
0.088,-0.414,1.064,102.722,-33.142,13.794
-0.053,-0.347,0.97,95.215,-43.213,10.864
-0.233,-0.294,0.851,91.98,-43.945,6.287
-0.437,-0.279,0.765,98.877,-31.189,-1.16
-0.536,-0.334,0.713,106.506,-4.761,-10.681
-0.582,-0.352,0.638,105.896,30.64,-23.254
-0.494,-0.403,0.705,95.642,75.928,-30.884
-0.398,-0.413,0.627,73.486,114.563,-29.907
-0.277,-0.405,0.597,46.875,147.095,-26.062
-0.157,-0.316,0.485,20.935,168.335,-22.339
-0.104,-0.325,0.464,0.244,186.89,-14.709
-0.089,-0.404,0.49,-14.465,207.642,-8.484
-0.066,-0.385,0.439,-23.193,220.52,-11.963
