aX,aY,aZ,gX,gY,gZ
0.828,-0.233,1.863,26.489,31.677,22.583
0.774,-0.457,1.987,0.061,12.695,23.926
0.685,-0.633,2.015,-40.955,-4.028,19.531
0.571,-0.714,1.958,-92.651,-13.855,8.24
0.498,-0.693,1.885,-146.24,-13.916,-6.592
0.454,-0.679,1.802,-193.787,-4.883,-21.851
0.446,-0.695,1.719,-233.765,10.01,-35.889
0.493,-0.719,1.641,-266.235,28.625,-48.157
0.569,-0.754,1.516,-293.03,45.654,-57.434
0.658,-0.796,1.402,-316.772,59.204,-63.171
0.751,-0.815,1.304,-338.806,69.58,-64.392
0.826,-0.828,1.216,-357.849,73.792,-62.012
0.891,-0.843,1.143,-374.756,72.388,-56.885
0.95,-0.854,1.071,-389.832,66.04,-50.232
1.001,-0.859,1.003,-404.175,55.298,-41.931
1.024,-0.879,0.961,-418.274,41.626,-32.837
1.03,-0.953,0.883,-434.692,25.818,-24.17
1.042,-1.003,0.79,-454.895,8.423,-17.273
1.027,-1.086,0.682,-477.844,-7.446,-11.78
0.973,-1.164,0.517,-505.798,-22.522,-8.24
0.886,-1.194,0.326,-534.668,-33.813,-8.362
0.823,-1.139,0.193,-560.303,-36.194,-11.719
0.762,-1.101,0.092,-577.332,-31.189,-18.86
0.744,-1.055,-0.039,-585.876,-21.301,-28.503
0.724,-1.032,-0.158,-586.365,-7.996,-37.048
0.714,-1.027,-0.325,-579.712,5.188,-44.556
0.752,-1.013,-0.483,-566.528,18.738,-49.683
0.839,-0.998,-0.59,-548.95,30.823,-50.598
0.936,-0.964,-0.669,-526.794,35.95,-46.265
1.008,-0.904,-0.749,-498.962,30.09,-38.33
1.076,-0.826,-0.821,-465.149,14.038,-28.748
1.094,-0.719,-0.877,-424.683,-6.592,-17.212
1.067,-0.609,-0.947,-378.845,-28.137,-5.798
1.038,-0.51,-0.984,-327.148,-45.959,5.737
1.037,-0.476,-0.965,-271.24,-56.396,17.7
1.04,-0.476,-0.928,-216.736,-61.34,27.527
1.082,-0.496,-0.873,-166.565,-61.768,33.936
1.155,-0.525,-0.822,-123.047,-59.875,36.926
1.204,-0.563,-0.776,-86.609,-57.678,36.438
1.259,-0.592,-0.735,-57.739,-56.519,33.02
1.3,-0.598,-0.695,-35.645,-56.213,27.466
1.303,-0.56,-0.652,-19.958,-54.993,21.179
1.281,-0.481,-0.62,-9.46,-52.856,15.137
1.257,-0.401,-0.59,-1.648,-48.157,9.949
1.25,-0.316,-0.546,4.333,-41.26,5.432
1.245,-0.244,-0.516,8.85,-34.424,2.197
1.224,-0.191,-0.491,12.756,-28.198,0.916
1.211,-0.155,-0.462,15.198,-22.583,2.014
1.179,-0.118,-0.44,16.541,-18.494,5.249
1.159,-0.091,-0.429,17.273,-15.015,9.338
1.123,-0.09,-0.417,17.212,-13.0,13.855
1.075,-0.089,-0.409,14.832,-10.925,17.639
1.036,-0.066,-0.405,12.268,-9.033,19.714
0.999,-0.037,-0.411,9.399,-6.958,20.325
0.972,-0.005,-0.419,7.751,-4.578,19.531
0.931,0.013,-0.413,7.08,-1.892,17.517
0.888,0.035,-0.413,6.653,1.526,14.221
0.854,0.064,-0.415,6.348,6.47,9.216
0.86,0.09,-0.407,7.019,11.963,2.869
0.871,0.11,-0.388,7.935,17.395,-2.563
0.882,0.121,-0.36,8.423,22.156,-6.47
0.901,0.106,-0.327,8.789,25.208,-10.071
0.954,0.12,-0.293,7.568,25.452,-13.245
0.913,0.202,-0.282,6.042,23.315,-13.489
0.958,0.238,-0.323,7.141,22.888,-8.057
0.999,0.191,-0.318,8.789,26.184,-3.296
0.904,0.143,-0.252,7.996,28.076,-3.906
1.037,0.208,-0.251,6.348,26.184,-7.507
1.018,0.217,-0.214,5.92,23.437,-6.165
0.947,0.133,-0.237,4.211,17.883,-4.333
0.864,0.128,-0.257,0.854,15.198,-6.653
1.026,0.26,-0.258,-1.648,18.127,-9.949
0.991,0.219,-0.263,0.732,21.179,-6.409
0.913,0.156,-0.299,4.15,18.188,-3.174
0.944,0.182,-0.298,5.188,17.395,-4.883
0.981,0.206,-0.302,7.935,18.311,-5.371
0.94,0.15,-0.283,12.268,19.653,-3.174
0.964,0.166,-0.284,15.564,18.433,-2.747
0.959,0.15,-0.267,18.311,17.761,-2.136
0.981,0.174,-0.263,20.996,15.32,-1.526
1.0,0.19,-0.246,23.499,13.55,0.732
0.971,0.177,-0.25,26.306,10.681,3.662
0.961,0.191,-0.257,28.381,7.874,5.249
0.957,0.187,-0.247,29.785,7.812,7.08
0.963,0.196,-0.235,30.884,8.24,7.751
0.946,0.203,-0.24,31.921,8.545,7.385
0.921,0.182,-0.251,32.959,10.193,6.165
0.929,0.191,-0.249,33.752,12.146,3.357
0.936,0.205,-0.233,34.668,15.015,0.549
0.937,0.213,-0.23,35.278,17.09,-1.709
0.936,0.22,-0.235,35.706,18.494,-2.93
0.934,0.232,-0.245,37.109,20.264,-3.906
0.947,0.224,-0.248,39.368,21.667,-4.761
0.956,0.202,-0.242,41.87,22.278,-5.188
0.964,0.206,-0.238,43.579,21.973,-5.737
0.969,0.21,-0.234,45.593,21.179,-5.798
0.973,0.195,-0.231,47.607,19.897,-5.127
0.969,0.19,-0.221,48.218,18.555,-4.211
0.967,0.193,-0.212,48.157,17.944,-3.113
0.961,0.208,-0.205,47.18,17.456,-2.075
0.946,0.225,-0.205,46.448,17.273,-0.854
0.939,0.231,-0.204,46.143,17.273,0.427
0.935,0.226,-0.206,45.776,17.7,1.343
0.933,0.224,-0.208,45.227,18.494,1.343
0.928,0.227,-0.207,44.861,18.799,0.732
0.923,0.222,-0.21,44.678,18.127,-0.122
0.917,0.24,-0.215,44.861,17.273,-1.648
0.918,0.261,-0.217,45.654,17.029,-3.174
0.918,0.262,-0.21,46.57,16.724,-3.54
0.92,0.261,-0.191,46.204,16.724,-3.357
0.922,0.261,-0.182,44.189,16.907,-2.869
0.92,0.261,-0.183,41.687,16.479,-2.197
0.913,0.257,-0.19,39.124,15.808,-1.343
0.893,0.252,-0.199,36.438,15.503,-1.404
0.866,0.236,-0.207,34.485,15.93,-2.563
0.839,0.209,-0.221,32.104,16.785,-5.127
0.805,0.188,-0.235,29.358,18.982,-9.705
0.863,0.215,-0.264,26.978,22.949,-15.625
0.908,0.223,-0.249,26.245,28.015,-19.47
1.138,-0.421,1.37,-53.223,-13.367,17.639
1.13,-0.5,1.41,-90.637,-18.188,22.522
1.111,-0.546,1.42,-130.127,-25.33,25.94
1.059,-0.582,1.388,-168.091,-32.715,27.527
1.012,-0.623,1.333,-203.125,-36.804,28.015
0.966,-0.672,1.274,-234.802,-37.231,27.1
0.911,-0.722,1.187,-263.916,-33.691,25.269
0.9,-0.776,1.106,-291.992,-26.794,24.109
0.922,-0.835,1.053,-318.848,-18.86,23.804
0.943,-0.904,0.963,-345.642,-13.184,25.146
0.974,-0.989,0.854,-375.854,-12.085,29.175
0.955,-1.068,0.755,-410.522,-13.428,36.011
0.951,-1.086,0.667,-445.129,-17.09,43.03
0.918,-1.079,0.562,-475.403,-22.888,48.523
0.88,-1.065,0.462,-498.779,-26.855,51.88
0.874,-1.07,0.384,-515.93,-28.198,54.138
0.829,-1.112,0.307,-530.334,-26.184,57.068
0.743,-1.15,0.174,-542.603,-20.813,58.899
0.716,-1.1,0.067,-551.392,-11.475,58.044
0.739,-1.109,-0.008,-554.077,-0.061,59.631
0.768,-1.19,-0.074,-554.016,10.986,62.805
0.865,-1.263,-0.133,-553.772,18.311,63.599
0.993,-1.375,-0.18,-555.176,19.775,65.125
1.068,-1.496,-0.282,-558.35,12.817,67.871
1.114,-1.554,-0.442,-559.326,-2.014,68.359
1.134,-1.498,-0.587,-553.467,-19.958,63.232
1.096,-1.372,-0.74,-538.879,-36.865,52.429
1.043,-1.255,-0.912,-510.01,-50.781,35.706
1.029,-1.188,-0.985,-467.896,-58.105,16.602
1.004,-1.136,-0.986,-420.227,-58.228,0.244
0.983,-1.095,-0.956,-371.399,-54.077,-11.963
1.001,-1.054,-0.921,-322.083,-49.805,-21.851
1.041,-1.055,-0.904,-272.888,-43.945,-27.893
1.14,-0.995,-0.89,-225.647,-39.185,-30.579
1.24,-0.977,-0.844,-180.542,-39.001,-31.677
1.354,-1.005,-0.798,-139.648,-41.26,-31.311
1.428,-1.036,-0.77,-106.812,-44.8,-27.893
1.439,-1.022,-0.759,-81.787,-48.279,-22.522
1.428,-0.988,-0.76,-61.279,-51.819,-15.32
1.385,-0.985,-0.749,-45.41,-52.612,-5.554
1.326,-0.932,-0.764,-35.645,-49.133,4.883
1.269,-0.834,-0.784,-28.198,-44.312,13.184
1.183,-0.722,-0.808,-19.47,-39.307,19.531
1.074,-0.65,-0.818,-9.46,-33.081,23.071
0.996,-0.571,-0.804,1.16,-24.475,24.658
0.961,-0.507,-0.768,12.207,-16.785,24.536
0.938,-0.476,-0.725,22.949,-11.23,24.475
0.905,-0.464,-0.671,31.128,-8.667,24.475
0.879,-0.446,-0.619,35.706,-6.531,24.17
0.876,-0.408,-0.571,37.964,-5.615,22.949
0.871,-0.37,-0.52,39.185,-5.31,21.118
0.846,-0.325,-0.488,39.856,-4.944,18.799
0.832,-0.279,-0.465,40.344,-3.235,15.503
0.852,-0.25,-0.431,41.565,-0.549,11.23
0.86,-0.228,-0.401,42.725,2.991,6.714
0.874,-0.192,-0.384,43.396,7.324,2.441
0.879,-0.176,-0.356,44.189,11.414,-1.282
0.896,-0.165,-0.322,42.969,16.113,-3.784
0.941,-0.145,-0.285,39.978,20.996,-5.493
0.982,-0.146,-0.239,35.645,24.658,-5.92
1.003,-0.13,-0.227,29.907,24.719,-5.188
1.01,-0.107,-0.223,23.193,22.644,-4.333
1.013,-0.074,-0.227,17.273,20.081,-3.723
0.999,-0.045,-0.233,12.878,17.883,-2.869
0.972,-0.031,-0.245,10.986,15.747,-2.075
0.95,-0.031,-0.254,10.925,14.954,-1.77
0.945,-0.03,-0.258,12.085,15.686,-2.441
0.952,-0.037,-0.258,13.428,16.785,-3.357
0.952,-0.048,-0.255,14.404,17.273,-4.822
0.945,-0.055,-0.255,14.16,16.968,-6.653
0.946,-0.062,-0.246,14.404,15.869,-8.484
0.964,-0.057,-0.25,14.832,14.648,-10.01
0.965,-0.059,-0.246,14.954,13.794,-10.681
0.972,-0.04,-0.245,15.503,11.78,-11.23
0.979,-0.033,-0.246,17.09,8.911,-10.986
0.979,-0.023,-0.241,18.555,6.226,-9.827
1.002,-0.002,-0.229,19.836,4.089,-8.484
1.026,-0.001,-0.217,21.606,1.77,-6.775
1.028,-0.006,-0.214,23.376,-1.465,-4.333
1.027,-0.007,-0.208,24.109,-4.944,-2.014
1.026,-0.005,-0.207,24.231,-7.812,0.61
1.012,-0.008,-0.208,24.231,-10.071,3.418
0.997,-0.024,-0.211,23.315,-11.414,5.981
0.985,-0.041,-0.211,21.851,-11.292,7.69
0.978,-0.066,-0.212,19.531,-10.01,9.155
0.975,-0.071,-0.219,17.029,-8.24,9.399
0.982,-0.061,-0.231,15.015,-6.836,8.179
0.978,-0.057,-0.237,13.916,-6.531,6.653
0.967,-0.047,-0.244,13.916,-5.798,4.761
0.969,-0.043,-0.242,14.771,-4.7,3.113
0.971,-0.038,-0.239,16.357,-3.296,2.014
0.978,-0.045,-0.232,17.822,-2.38,1.709
0.993,-0.067,-0.222,18.616,-2.197,2.136
0.997,-0.078,-0.221,18.738,-2.991,2.686
0.981,-0.075,-0.23,18.616,-4.456,2.93
0.974,-0.074,-0.229,18.616,-5.066,2.625
0.974,-0.074,-0.22,18.799,-4.517,2.075
0.976,-0.064,-0.215,19.043,-3.906,1.282
0.978,-0.059,-0.211,18.433,-2.991,0.977
0.979,-0.054,-0.209,17.578,-2.136,1.587
0.976,-0.047,-0.21,16.663,-1.404,2.625
0.974,-0.051,-0.21,16.113,-0.854,3.54
0.974,-0.064,-0.211,15.564,-0.244,4.395
0.971,-0.065,-0.214,14.832,-0.366,4.883
0.966,-0.064,-0.216,14.221,-0.916,4.761
0.957,-0.054,-0.22,13.794,-1.709,4.089
0.946,-0.047,-0.225,14.038,-2.136,3.113
0.928,-0.047,-0.231,14.343,-2.136,2.38
0.915,-0.046,-0.233,14.465,-1.099,1.892
0.911,-0.04,-0.236,15.32,0.549,1.099
0.899,-0.042,-0.243,15.381,2.197,0.427
0.908,-0.054,-0.247,15.625,3.967,-0.671
0.946,-0.006,-0.214,15.564,5.371,-1.404
0.914,-0.062,-0.25,16.907,3.967,-0.732
0.934,-0.066,-0.234,16.968,2.808,-2.93
0.947,-0.049,-0.232,17.395,1.709,-5.127
0.985,-0.024,-0.192,17.578,-0.61,-6.348
0.95,-0.048,-0.217,17.883,-5.188,-5.798
1.0,-0.011,-0.227,17.456,-7.568,-5.188
0.914,-0.34,1.648,-50.476,14.526,37.72
0.892,-0.443,1.775,-85.205,1.099,42.114
0.855,-0.553,1.802,-124.634,-13.306,42.053
0.824,-0.627,1.748,-166.809,-26.306,37.231
0.775,-0.682,1.65,-208.191,-34.546,29.541
0.723,-0.746,1.53,-245.483,-37.659,22.461
0.699,-0.794,1.392,-280.212,-36.377,16.174
0.726,-0.844,1.249,-312.012,-31.982,10.986
0.762,-0.906,1.075,-341.431,-27.466,8.057
0.788,-0.965,0.919,-368.53,-22.095,8.24
0.797,-0.996,0.762,-391.907,-16.785,9.644
0.793,-1.049,0.598,-411.011,-11.841,11.475
0.821,-1.1,0.481,-427.49,-5.127,14.343
0.877,-1.114,0.407,-440.491,1.038,18.799
0.918,-1.162,0.333,-449.768,3.235,23.193
0.928,-1.239,0.262,-459.473,1.16,28.137
0.941,-1.332,0.187,-470.947,-4.761,32.593
0.972,-1.411,0.123,-484.253,-13.184,35.278
1.022,-1.407,0.099,-498.047,-23.376,36.804
0.984,-1.421,0.057,-508.24,-34.485,38.513
0.937,-1.488,-0.009,-514.099,-42.236,35.461
0.939,-1.491,-0.048,-518.311,-42.175,30.029
0.919,-1.496,-0.052,-519.47,-39.429,22.888
0.887,-1.628,-0.057,-519.775,-31.433,16.846
0.86,-1.738,-0.125,-523.193,-19.165,13.062
0.878,-1.81,-0.222,-526.428,-8.789,6.592
0.913,-1.867,-0.307,-527.466,0.793,-1.282
1.006,-1.899,-0.464,-525.635,7.935,-10.01
1.093,-1.846,-0.646,-517.273,7.141,-22.095
1.095,-1.736,-0.784,-500.0,2.625,-36.743
1.035,-1.581,-0.924,-474.609,-1.526,-52.612
0.953,-1.401,-1.073,-438.293,-3.235,-70.068
0.921,-1.206,-1.147,-391.235,1.099,-89.172
0.989,-1.106,-1.125,-337.646,13.611,-104.797
1.125,-1.047,-1.081,-282.898,27.405,-112.061
1.256,-0.926,-1.022,-231.018,33.936,-113.708
1.375,-0.796,-0.966,-181.335,33.264,-110.291
1.453,-0.731,-0.923,-134.033,29.724,-99.976
1.533,-0.653,-0.822,-92.346,26.306,-85.449
1.594,-0.611,-0.76,-57.251,19.043,-65.674
1.582,-0.618,-0.719,-28.259,7.874,-42.48
1.539,-0.598,-0.686,-6.958,-5.127,-19.897
1.477,-0.605,-0.649,8.423,-18.311,1.77
1.379,-0.606,-0.638,18.066,-31.25,22.949
1.255,-0.588,-0.637,22.583,-43.396,40.588
1.119,-0.569,-0.644,24.353,-53.528,53.223
0.986,-0.525,-0.666,24.963,-59.998,58.777
0.874,-0.483,-0.688,26.306,-61.462,57.251
0.805,-0.436,-0.69,29.175,-57.129,50.964
0.779,-0.397,-0.672,33.203,-47.363,41.077
0.779,-0.363,-0.651,37.231,-34.607,29.785
0.79,-0.336,-0.615,41.565,-21.484,18.005
0.825,-0.313,-0.564,45.227,-8.911,7.141
0.872,-0.295,-0.513,47.852,2.625,-1.831
0.932,-0.281,-0.465,49.805,12.268,-7.69
0.994,-0.256,-0.418,51.025,18.616,-11.414
1.047,-0.233,-0.382,51.514,20.874,-12.207
1.08,-0.22,-0.349,52.307,19.165,-10.193
1.09,-0.213,-0.315,52.124,14.282,-6.409
1.177,-0.174,-0.318,50.781,8.545,-1.892
1.1,-0.236,-0.25,49.194,3.723,3.418
1.082,-0.158,-0.299,45.898,-5.127,4.883
1.101,-0.16,-0.296,44.006,-8.301,8.789
1.01,-0.148,-0.287,43.701,-9.033,12.207
0.973,-0.159,-0.285,44.983,-10.742,15.442
0.945,-0.155,-0.291,45.532,-10.01,16.846
1.011,-0.158,-0.289,45.349,-5.188,17.273
0.973,-0.17,-0.257,45.166,-0.977,15.625
1.009,-0.201,-0.273,44.006,-0.61,13.611
1.0,-0.164,-0.246,41.687,0.305,10.498
0.992,-0.172,-0.251,40.527,0.061,9.583
0.98,-0.154,-0.24,40.1,0.61,8.667
0.973,-0.141,-0.231,40.649,2.014,8.24
0.99,-0.164,-0.223,42.175,3.845,8.057
0.993,-0.156,-0.217,42.297,5.066,6.042
0.999,-0.163,-0.174,41.016,6.958,2.625
0.995,-0.083,-0.172,39.673,7.69,0.061
0.97,-0.112,-0.151,40.283,8.911,2.075
1.038,-0.058,-0.183,39.856,9.644,3.418
1.006,-0.108,-0.126,40.588,12.939,6.653
1.081,-0.078,-0.104,38.574,10.01,6.775
1.052,-0.08,-0.116,36.926,5.31,9.583
0.998,-0.12,-0.14,34.973,1.892,13.184
1.02,-0.099,-0.131,32.532,0.244,13.855
1.0,-0.122,-0.142,30.457,-0.549,15.808
0.968,-0.127,-0.16,27.344,-1.892,17.761
0.943,-0.113,-0.165,24.231,-2.625,18.982
0.944,-0.086,-0.159,21.79,-2.441,18.433
0.931,-0.085,-0.16,20.752,-2.38,17.944
0.915,-0.081,-0.177,20.691,-2.625,16.968
0.908,-0.062,-0.185,21.362,-2.258,15.564
0.918,-0.07,-0.175,22.522,-0.793,15.137
0.954,-0.098,-0.154,23.315,0.427,14.832
0.988,-0.1,-0.142,22.827,-0.488,14.954
0.998,-0.079,-0.142,21.362,-3.357,15.503
1.011,-0.072,-0.142,20.203,-7.08,16.174
1.0,-0.079,-0.155,20.081,-10.864,17.578
0.978,-0.075,-0.168,19.775,-13.794,18.738
0.962,-0.077,-0.181,20.142,-15.259,19.592
0.949,-0.089,-0.186,21.057,-14.587,19.47
0.957,-0.091,-0.19,21.973,-12.756,18.188
0.944,-0.093,-0.201,22.4,-10.986,16.724
0.932,-0.094,-0.215,23.254,-9.521,14.893
0.92,-0.092,-0.216,23.621,-6.836,12.451
0.925,-0.085,-0.209,24.719,-3.296,9.216
0.939,-0.087,-0.196,25.452,0.061,6.104
0.951,-0.086,-0.186,25.818,2.869,3.967
0.968,-0.081,-0.176,26.001,4.944,2.991
0.979,-0.075,-0.163,25.757,5.981,2.625
0.984,-0.06,-0.159,24.719,6.47,2.991
0.976,-0.047,-0.158,24.231,6.348,3.235
0.969,-0.043,-0.159,24.17,5.92,3.418
0.957,-0.046,-0.158,23.865,5.981,4.15
0.947,-0.044,-0.159,23.682,5.676,4.517
0.943,-0.043,-0.161,24.048,5.859,4.517
0.955,-0.052,-0.157,24.292,6.653,4.761
0.963,-0.04,-0.155,24.048,7.996,4.822
1.005,-0.036,-0.124,23.499,8.85,5.31
1.102,-0.026,-0.087,23.315,5.92,5.798
1.188,-0.344,1.359,-50.598,-49.438,28.137
1.157,-0.417,1.485,-85.083,-58.411,32.227
1.145,-0.455,1.586,-122.498,-64.209,34.302
1.167,-0.469,1.681,-159.058,-66.956,35.461
1.179,-0.526,1.71,-193.97,-68.481,36.133
1.165,-0.614,1.653,-232.666,-68.848,36.194
1.111,-0.703,1.552,-275.94,-64.941,36.987
1.033,-0.756,1.424,-321.35,-56.03,38.757
1.002,-0.784,1.276,-364.807,-41.87,42.297
0.986,-0.808,1.111,-403.564,-25.818,49.683
0.992,-0.803,0.943,-436.157,-10.132,59.692
1.028,-0.803,0.815,-460.51,2.93,70.74
1.101,-0.818,0.717,-476.746,10.925,82.397
1.151,-0.872,0.617,-486.45,9.766,93.384
1.143,-0.971,0.474,-494.263,-0.305,101.135
1.172,-1.023,0.326,-502.686,-13.916,110.901
1.185,-1.058,0.245,-508.972,-33.447,122.803
1.117,-1.111,0.129,-516.724,-58.35,132.019
1.017,-1.129,0.007,-525.635,-80.505,138.733
0.951,-1.126,-0.094,-535.095,-95.581,142.273
0.884,-1.135,-0.187,-542.236,-104.065,143.799
0.798,-1.184,-0.292,-547.18,-106.812,142.761
0.777,-1.178,-0.366,-551.27,-105.896,135.071
0.79,-1.173,-0.433,-553.65,-106.323,122.803
0.795,-1.135,-0.535,-552.063,-111.267,110.962
0.743,-1.103,-0.655,-544.25,-117.737,102.234
0.738,-1.09,-0.752,-529.724,-122.62,91.309
0.78,-1.016,-0.851,-510.437,-127.686,76.477
0.746,-0.91,-0.977,-481.384,-130.188,58.228
0.782,-0.719,-1.106,-442.078,-129.089,34.058
0.816,-0.547,-1.149,-392.517,-124.023,7.812
0.813,-0.504,-1.117,-335.327,-111.694,-17.822
0.862,-0.513,-1.025,-276.855,-90.698,-42.786
0.976,-0.613,-0.938,-223.389,-65.369,-63.782
1.176,-0.533,-0.8,-176.392,-43.945,-77.209
1.332,-0.581,-0.659,-135.986,-27.954,-88.501
1.412,-0.647,-0.565,-104.797,-21.973,-90.027
1.493,-0.607,-0.481,-83.862,-18.982,-83.496
1.572,-0.56,-0.409,-68.42,-21.118,-71.472
1.613,-0.443,-0.36,-54.504,-29.236,-55.176
1.603,-0.328,-0.33,-41.138,-41.748,-36.804
1.554,-0.227,-0.321,-28.442,-53.955,-16.724
1.48,-0.199,-0.301,-16.846,-62.805,2.258
1.399,-0.217,-0.3,-8.789,-65.308,18.982
1.321,-0.246,-0.322,-5.066,-61.89,31.25
1.242,-0.254,-0.358,-4.028,-55.298,38.452
1.165,-0.241,-0.401,-3.784,-47.913,40.1
1.105,-0.216,-0.432,-2.625,-39.795,37.354
1.046,-0.178,-0.455,0.244,-31.921,31.921
1.002,-0.125,-0.466,4.517,-24.048,25.024
0.981,-0.083,-0.45,9.583,-15.625,18.555
0.98,-0.052,-0.425,14.954,-8.118,13.428
0.998,-0.03,-0.393,19.653,-3.967,10.315
1.014,-0.025,-0.354,23.56,-3.479,10.132
1.03,-0.014,-0.316,26.062,-5.615,12.695
1.047,0.023,-0.285,27.1,-9.766,16.602
1.043,0.055,-0.255,27.1,-15.442,20.935
1.019,0.091,-0.243,26.611,-20.874,24.536
0.997,0.114,-0.245,25.33,-23.56,26.978
0.973,0.122,-0.247,23.987,-23.437,28.076
0.953,0.127,-0.247,22.217,-20.752,27.344
0.941,0.143,-0.247,19.958,-16.968,24.231
0.923,0.154,-0.249,17.7,-12.695,19.653
0.907,0.137,-0.233,14.832,-7.874,14.099
0.897,0.117,-0.23,10.01,-2.38,7.935
0.938,0.132,-0.226,4.944,4.15,1.282
1.027,0.125,-0.184,-0.305,9.521,-3.418
0.996,0.159,-0.208,-5.554,9.521,-6.47
1.031,0.176,-0.207,-8.789,9.583,-5.92
0.875,0.155,-0.176,-10.315,8.911,-4.7
1.015,0.253,-0.26,-10.864,10.803,-3.418
1.066,0.162,-0.231,-8.118,20.996,1.099
1.068,0.203,-0.176,-6.348,20.142,2.258
1.043,0.103,-0.233,-2.869,11.475,5.615
1.003,0.105,-0.236,-1.221,4.272,5.676
0.913,0.076,-0.278,0.488,0.732,4.761
0.859,0.006,-0.277,1.221,3.174,2.014
1.04,0.185,-0.182,0.244,7.812,-3.235
1.031,0.152,-0.23,3.174,4.944,-0.061
0.896,0.127,-0.264,6.836,-0.793,4.15
1.0,0.184,-0.232,9.521,-0.549,3.662
0.99,0.174,-0.219,13.123,-0.671,5.798
0.98,0.161,-0.228,15.381,-1.77,8.423
0.991,0.178,-0.227,17.334,-2.869,10.376
0.982,0.157,-0.213,18.86,-3.296,11.963
0.989,0.159,-0.207,19.653,-4.456,12.634
0.988,0.157,-0.204,19.409,-4.333,13.367
0.982,0.155,-0.207,17.944,-3.54,13.489
0.974,0.162,-0.21,15.991,-3.113,13.306
0.952,0.169,-0.227,14.465,-1.892,12.634
0.922,0.15,-0.236,14.038,0.671,11.23
0.917,0.159,-0.25,13.794,4.883,8.423
0.932,0.157,-0.235,14.343,9.644,5.798
0.947,0.144,-0.235,15.015,12.451,4.211
0.966,0.119,-0.232,16.052,12.634,2.441
0.989,0.153,-0.226,16.846,11.414,0.122
0.988,0.153,-0.233,19.043,8.911,0.366
0.978,0.162,-0.232,21.301,6.104,1.404
0.977,0.159,-0.23,24.109,4.333,3.174
0.988,0.156,-0.224,26.672,2.502,5.554
0.99,0.16,-0.223,29.175,-0.427,7.935
0.991,0.168,-0.219,32.227,-3.967,10.254
0.991,0.178,-0.217,34.912,-8.057,13.367
0.98,0.193,-0.222,37.903,-12.024,16.907
0.993,0.203,-0.225,41.748,-15.625,20.508
0.986,0.198,-0.232,45.776,-19.653,24.658
0.979,0.194,-0.24,50.171,-23.56,28.137
0.967,0.184,-0.241,54.382,-26.917,31.189
0.953,0.185,-0.243,58.167,-29.236,32.898
0.93,0.186,-0.241,61.401,-30.09,33.691
0.912,0.179,-0.24,64.026,-29.541,33.813
0.919,0.186,-0.225,65.002,-26.672,33.325
0.909,0.205,-0.209,65.002,-23.01,31.25
0.918,0.199,-0.188,64.27,-18.677,28.564
0.914,0.196,-0.171,62.317,-14.771,25.452
0.903,0.203,-0.158,59.082,-10.376,22.095
0.921,0.218,-0.143,55.542,-5.676,18.738
0.922,0.235,-0.133,52.551,-1.282,15.381
0.927,0.235,-0.132,50.232,2.502,12.512
1.078,0.035,1.555,13.306,-53.65,4.7
1.091,-0.092,1.71,-7.996,-56.335,6.348
1.086,-0.205,1.79,-36.926,-59.021,12.512
1.079,-0.291,1.819,-70.313,-60.913,19.653
1.088,-0.412,1.83,-104.858,-61.279,27.222
1.104,-0.567,1.826,-141.479,-61.401,35.522
1.122,-0.734,1.808,-182.007,-62.988,43.64
1.111,-0.882,1.746,-227.295,-67.688,50.415
1.099,-1.005,1.63,-274.231,-74.768,54.077
1.08,-1.084,1.493,-320.374,-81.665,56.03
1.035,-1.133,1.339,-361.572,-85.205,56.824
0.962,-1.192,1.162,-395.569,-83.557,55.908
0.939,-1.265,1.037,-421.997,-74.646,53.528
0.946,-1.348,0.938,-443.97,-60.12,52.979
0.965,-1.403,0.828,-464.233,-45.044,53.467
0.992,-1.446,0.714,-481.384,-34.119,54.688
1.003,-1.537,0.589,-496.277,-28.32,56.335
1.059,-1.604,0.507,-511.108,-27.344,58.533
1.069,-1.642,0.461,-526.367,-29.541,61.829
1.049,-1.691,0.381,-540.833,-34.973,64.575
1.008,-1.758,0.28,-555.908,-39.429,66.04
0.904,-1.819,0.118,-570.862,-38.208,67.017
0.796,-1.824,-0.071,-584.534,-30.273,63.721
0.751,-1.854,-0.218,-596.619,-11.841,55.725
0.713,-1.92,-0.364,-608.337,13.428,46.082
0.71,-1.965,-0.576,-619.385,38.452,32.288
0.728,-1.898,-0.747,-627.991,63.538,14.893
0.795,-1.815,-0.848,-631.836,88.562,-0.305
0.861,-1.76,-0.997,-627.319,103.516,-13.55
0.929,-1.573,-1.096,-613.77,104.004,-31.006
0.981,-1.381,-1.099,-588.196,91.614,-46.57
0.959,-1.303,-1.12,-548.767,69.275,-56.03
0.942,-1.216,-1.145,-500.732,41.138,-58.105
0.968,-0.878,-1.125,-443.665,10.925,-52.063
0.963,-0.759,-1.071,-375.122,-16.418,-43.457
0.992,-0.714,-0.979,-300.903,-42.358,-26.978
1.084,-0.709,-0.844,-228.455,-63.477,-5.737
1.22,-0.744,-0.726,-162.415,-86.243,17.395
1.332,-0.742,-0.627,-108.215,-110.046,38.513
1.391,-0.793,-0.564,-67.444,-128.723,56.458
1.421,-0.927,-0.509,-39.795,-139.16,70.129
1.415,-1.008,-0.496,-27.344,-138.672,78.125
1.355,-0.997,-0.553,-24.475,-131.47,78.613
1.255,-0.926,-0.62,-23.804,-118.225,71.777
1.15,-0.821,-0.683,-22.644,-98.694,58.716
1.065,-0.7,-0.712,-19.653,-75.073,42.664
1.008,-0.663,-0.704,-14.343,-50.476,26.978
0.959,-0.659,-0.685,-9.338,-26.489,13.977
0.939,-0.61,-0.679,-5.859,-6.531,4.272
0.951,-0.528,-0.661,-1.526,6.47,-1.587
0.955,-0.437,-0.639,5.981,12.024,-4.028
0.95,-0.367,-0.604,15.503,12.146,-4.578
0.943,-0.314,-0.58,25.391,8.911,-3.479
0.939,-0.27,-0.542,35.217,3.906,-1.648
0.946,-0.256,-0.49,43.457,-1.16,1.892
0.963,-0.251,-0.439,49.5,-5.432,6.348
0.986,-0.243,-0.402,53.406,-9.827,10.315
0.997,-0.225,-0.376,54.871,-13.367,13.245
1.0,-0.194,-0.354,54.932,-15.625,15.076
0.989,-0.169,-0.335,53.528,-15.808,15.686
0.99,-0.168,-0.31,50.293,-14.221,15.503
0.978,-0.173,-0.286,45.593,-11.963,13.489
0.987,-0.169,-0.287,39.917,-7.874,10.803
0.988,-0.126,-0.273,34.424,-3.174,9.033
0.994,-0.14,-0.283,30.396,-0.977,7.812
0.988,-0.098,-0.274,25.513,0.0,3.174
0.99,-0.059,-0.293,21.179,2.38,-1.526
0.974,0.011,-0.279,19.348,5.432,-4.761
0.975,0.006,-0.281,20.569,7.507,-5.676
0.981,0.041,-0.276,22.827,10.742,-5.249
1.031,0.023,-0.28,25.513,14.709,-3.662
1.016,-0.015,-0.26,26.306,17.822,-2.258
0.996,-0.052,-0.247,25.146,17.334,-2.869
1.023,-0.007,-0.228,22.827,15.381,-4.822
1.03,-0.031,-0.216,22.522,12.939,-3.845
0.995,-0.035,-0.222,21.362,9.766,-2.869
1.004,-0.011,-0.233,19.409,8.24,-2.808
1.051,0.047,-0.21,18.25,8.545,-1.343
1.027,0.028,-0.206,19.653,6.653,3.113
1.017,0.023,-0.21,20.02,3.418,5.188
1.02,0.042,-0.207,19.043,1.953,6.287
1.01,0.038,-0.21,18.86,1.343,8.118
1.002,0.02,-0.212,18.738,0.732,10.071
0.991,0.012,-0.215,18.25,0.183,10.559
0.997,0.014,-0.209,17.334,-0.183,10.62
1.0,0.005,-0.204,17.029,-0.183,11.047
1.002,0.001,-0.209,16.541,-0.793,11.658
0.985,0.0,-0.214,15.259,-1.404,12.268
0.979,0.002,-0.222,14.221,-1.038,11.963
0.988,0.005,-0.22,13.611,0.793,11.658
0.995,0.011,-0.216,13.0,2.075,11.108
0.985,0.018,-0.216,12.634,2.136,10.498
0.99,0.01,-0.214,12.268,2.869,10.193
0.995,0.006,-0.207,12.39,2.869,9.827
1.0,0.013,-0.209,12.329,2.014,9.766
0.99,0.008,-0.216,12.39,1.343,9.827
0.978,0.016,-0.233,13.184,1.526,9.888
0.974,0.024,-0.238,14.282,2.502,9.827
0.974,0.015,-0.242,16.052,3.662,10.071
0.971,0.004,-0.241,17.7,3.784,10.437
0.969,-0.01,-0.244,18.921,2.808,9.888
0.956,-0.03,-0.259,20.569,1.831,8.606
0.937,-0.04,-0.277,22.034,1.709,6.226
0.938,-0.047,-0.29,23.56,3.479,3.479
0.951,-0.048,-0.294,24.536,6.409,0.793
0.982,-0.027,-0.291,25.574,9.521,-1.587
1.007,-0.024,-0.287,27.771,11.414,-2.991
1.015,-0.029,-0.284,29.968,11.047,-3.235
1.015,-0.031,-0.291,31.555,10.376,-2.502
1.017,-0.028,-0.293,33.752,10.132,-0.854
1.022,-0.033,-0.291,36.011,10.132,1.221
1.026,-0.055,-0.296,37.781,9.766,3.052
1.018,-0.059,-0.315,39.368,9.399,4.028
1.01,-0.059,-0.325,41.016,10.071,4.211
1.0,-0.056,-0.333,42.664,11.536,4.395
0.985,-0.05,-0.342,44.434,12.756,4.761
0.972,-0.043,-0.348,46.692,14.099,4.517
0.95,-0.04,-0.358,49.866,15.442,3.54
0.929,-0.036,-0.367,53.528,16.296,2.197
1.592,0.077,1.309,-18.921,8.484,3.601
1.609,-0.003,1.439,-31.189,-23.315,13.184
1.539,-0.112,1.536,-51.331,-55.725,23.376
1.43,-0.244,1.583,-79.468,-82.031,31.921
1.247,-0.407,1.585,-116.76,-95.764,40.71
1.069,-0.528,1.531,-162.476,-95.093,47.485
0.975,-0.578,1.484,-209.9,-82.947,49.316
0.912,-0.677,1.404,-255.31,-64.148,49.438
0.875,-0.778,1.302,-301.819,-42.542,47.729
0.849,-0.838,1.178,-347.107,-20.691,44.25
0.87,-0.857,1.072,-385.803,-2.38,40.1
0.937,-0.895,0.989,-416.382,12.146,37.231
1.024,-0.913,0.946,-439.087,20.996,38.33
1.075,-0.974,0.886,-454.651,21.79,43.518
1.066,-1.11,0.739,-467.224,15.076,52.002
1.002,-1.172,0.576,-479.004,7.507,62.378
0.945,-1.125,0.472,-487.488,3.54,70.679
0.97,-1.146,0.429,-490.173,3.906,76.172
0.994,-1.185,0.384,-490.051,5.127,80.75
0.973,-1.196,0.328,-488.464,2.38,83.252
0.956,-1.221,0.276,-483.337,-5.188,81.299
0.991,-1.265,0.238,-476.501,-13.184,77.881
0.954,-1.119,0.154,-467.346,-24.475,72.693
0.888,-1.23,0.095,-453.369,-29.968,74.463
0.85,-1.199,0.016,-439.941,-31.372,75.623
0.902,-1.209,-0.065,-425.354,-36.743,71.411
1.002,-1.269,-0.135,-409.363,-41.87,65.796
0.992,-1.369,-0.299,-393.555,-52.49,62.256
0.946,-1.376,-0.52,-376.282,-68.42,52.307
0.953,-1.358,-0.642,-354.553,-79.163,37.292
0.943,-1.366,-0.75,-330.139,-83.923,21.729
0.931,-1.362,-0.849,-306.885,-83.923,4.333
0.945,-1.352,-0.887,-284.607,-77.332,-13.062
0.985,-1.243,-0.941,-263.794,-64.148,-27.466
1.087,-1.084,-0.945,-239.197,-52.002,-38.879
1.247,-0.977,-0.882,-209.717,-42.847,-46.082
1.383,-0.896,-0.824,-178.406,-39.124,-46.692
1.469,-0.818,-0.785,-148.926,-43.579,-40.466
1.508,-0.764,-0.727,-120.544,-53.65,-30.212
1.508,-0.75,-0.674,-95.642,-63.416,-16.602
1.455,-0.728,-0.669,-76.111,-72.571,-2.502
1.377,-0.688,-0.675,-60.791,-78.369,10.681
1.293,-0.669,-0.69,-48.95,-78.918,22.705
1.2,-0.629,-0.719,-40.405,-75.562,31.189
1.061,-0.587,-0.745,-33.691,-69.397,33.264
0.946,-0.577,-0.742,-27.588,-58.289,29.297
0.878,-0.576,-0.724,-25.146,-42.419,23.56
0.834,-0.505,-0.717,-25.879,-26.367,17.517
0.819,-0.411,-0.69,-24.963,-13.062,10.62
0.839,-0.348,-0.647,-21.79,-2.38,4.456
0.877,-0.282,-0.591,-16.663,4.517,-0.549
0.895,-0.228,-0.544,-10.498,6.653,-3.845
0.9,-0.205,-0.498,-4.395,5.554,-5.31
0.9,-0.173,-0.466,0.305,4.761,-5.127
0.925,-0.147,-0.437,3.967,3.784,-3.967
0.941,-0.137,-0.392,6.348,2.075,-2.625
0.905,-0.156,-0.382,7.446,0.305,-1.343
0.894,-0.165,-0.387,6.47,0.977,-1.831
0.888,-0.152,-0.376,4.761,3.845,-3.723
0.877,-0.156,-0.355,3.601,8.301,-7.507
0.897,-0.161,-0.336,2.747,14.587,-12.878
0.942,-0.144,-0.311,2.563,21.484,-18.372
0.994,-0.12,-0.282,3.479,26.917,-22.888
1.042,-0.083,-0.246,5.493,30.151,-25.391
1.08,-0.069,-0.221,9.277,30.334,-24.414
1.102,-0.045,-0.202,14.038,26.978,-21.24
1.123,-0.029,-0.186,18.555,20.935,-17.09
1.135,-0.003,-0.171,21.912,14.221,-12.634
1.103,-0.002,-0.162,24.292,7.141,-7.141
1.084,-0.006,-0.169,26.184,-0.061,-3.052
1.063,0.007,-0.17,27.344,-5.615,-0.122
1.028,0.029,-0.164,28.809,-9.46,2.258
1.006,0.027,-0.163,30.884,-12.329,4.333
0.998,0.026,-0.164,32.532,-12.817,5.615
1.015,0.043,-0.171,34.241,-10.742,6.653
1.024,0.015,-0.152,35.706,-8.667,7.568
1.001,-0.038,-0.162,35.461,-8.728,4.944
1.024,-0.0,-0.118,33.203,-8.362,-0.549
1.036,-0.016,-0.095,31.311,-7.263,-2.563
1.024,-0.004,-0.122,28.564,-7.08,-2.014
1.007,-0.022,-0.13,26.672,-5.92,-0.793
1.044,0.032,-0.13,25.146,-3.906,-0.61
1.05,-0.0,-0.127,25.513,-3.296,1.465
1.047,0.018,-0.13,24.902,-4.517,1.953
1.051,0.026,-0.128,24.475,-5.371,3.296
1.059,0.02,-0.115,24.78,-6.653,4.7
1.026,0.026,-0.125,25.024,-8.85,5.615
0.993,0.022,-0.141,25.635,-8.362,6.226
0.982,0.021,-0.135,26.367,-5.615,5.981
0.978,0.016,-0.135,27.1,-2.563,5.31
0.977,0.008,-0.134,27.344,-0.61,4.272
0.984,-0.003,-0.131,27.527,0.0,2.747
0.988,-0.015,-0.129,27.283,0.427,1.099
1.004,-0.005,-0.121,26.855,0.244,-0.61
1.002,0.003,-0.118,26.733,-0.732,-0.488
1.014,-0.001,-0.111,27.222,-1.282,0.427
1.016,0.019,-0.1,26.917,-0.732,0.122
1.023,0.013,-0.09,26.611,0.366,-0.122
1.022,0.0,-0.085,26.001,1.404,0.793
1.023,-0.01,-0.09,24.231,2.197,2.197
1.013,-0.013,-0.089,21.851,2.502,3.418
1.0,-0.01,-0.094,19.348,2.93,4.089
0.99,-0.01,-0.094,17.334,3.662,3.418
0.983,-0.004,-0.097,15.808,4.456,2.014
0.985,0.012,-0.095,14.709,5.127,0.549
1.001,0.007,-0.088,14.709,5.737,-0.366
1.011,0.001,-0.077,15.076,5.127,-0.427
1.013,-0.005,-0.068,14.893,3.967,0.244
1.02,-0.032,-0.07,13.794,2.258,1.709
1.012,-0.055,-0.081,11.902,-0.183,4.7
1.019,-0.057,-0.081,9.766,-2.686,8.789
1.044,-0.049,-0.082,7.568,-6.775,12.756
1.031,-0.016,-0.09,6.653,-13.062,16.968
1.018,0.004,-0.103,7.507,-19.958,20.63
0.997,0.026,-0.11,10.254,-25.94,23.682
0.964,0.032,-0.114,14.465,-29.602,25.513
0.956,0.026,-0.104,18.677,-30.457,25.635
0.943,0.004,-0.097,22.156,-29.724,24.78
0.912,-0.016,-0.099,23.315,-27.588,23.193
1.479,-0.214,1.574,61.035,-29.541,13.428
1.521,-0.369,1.797,21.118,-51.758,32.898
1.466,-0.501,2.005,-27.405,-74.463,46.753
1.42,-0.588,2.142,-83.374,-89.844,53.833
1.356,-0.649,2.21,-140.93,-96.069,57.373
1.231,-0.755,2.205,-196.289,-94.36,56.335
1.122,-0.878,2.137,-249.634,-83.313,52.368
1.038,-0.999,2.029,-302.429,-63.599,46.631
0.997,-1.108,1.9,-353.516,-37.476,40.955
0.983,-1.263,1.722,-400.391,-8.057,36.865
0.97,-1.427,1.493,-446.655,19.714,35.583
0.963,-1.543,1.218,-491.699,44.678,36.377
1.017,-1.568,0.989,-530.396,65.613,39.001
1.08,-1.546,0.834,-558.716,79.407,44.556
1.111,-1.545,0.673,-576.66,82.581,52.49
1.091,-1.569,0.494,-586.121,75.684,60.974
1.06,-1.589,0.34,-590.393,62.866,69.336
1.057,-1.598,0.208,-589.172,47.424,77.576
1.07,-1.628,0.09,-584.045,28.687,85.266
1.042,-1.622,-0.004,-576.477,5.005,91.248
1.048,-1.623,-0.051,-567.444,-20.264,94.727
0.927,-1.63,-0.185,-558.35,-45.227,97.229
0.855,-1.471,-0.239,-548.462,-63.049,96.924
0.931,-1.519,-0.275,-530.823,-72.388,98.755
0.941,-1.611,-0.319,-516.052,-83.374,91.736
0.965,-1.668,-0.38,-503.967,-94.116,81.726
1.001,-1.679,-0.501,-490.54,-105.652,70.557
0.942,-1.567,-0.669,-470.276,-116.455,59.021
0.876,-1.443,-0.74,-441.406,-118.225,47.424
0.895,-1.287,-0.781,-406.189,-113.77,36.133
0.913,-1.173,-0.777,-363.342,-108.093,23.254
0.915,-1.129,-0.797,-315.918,-100.891,10.132
0.914,-1.1,-0.807,-268.127,-91.37,-4.028
0.939,-1.116,-0.774,-222.351,-78.613,-19.043
1.034,-1.148,-0.688,-181.885,-65.186,-31.067
1.14,-1.139,-0.633,-149.902,-56.213,-37.048
1.215,-1.081,-0.603,-125.793,-53.528,-39.734
1.26,-1.039,-0.576,-107.605,-52.246,-40.344
1.296,-0.952,-0.553,-95.52,-48.706,-39.246
1.304,-0.83,-0.548,-86.243,-43.64,-37.964
1.305,-0.716,-0.527,-76.843,-36.987,-36.804
1.303,-0.614,-0.508,-66.833,-29.907,-34.363
1.277,-0.538,-0.5,-56.458,-23.987,-30.457
1.245,-0.501,-0.497,-45.715,-19.409,-24.841
1.23,-0.47,-0.487,-36.56,-15.137,-17.09
1.217,-0.419,-0.482,-28.381,-13.855,-8.789
1.178,-0.398,-0.481,-19.958,-15.442,-0.977
1.141,-0.397,-0.495,-11.475,-17.883,6.042
1.095,-0.38,-0.503,-3.113,-19.775,11.292
1.049,-0.353,-0.508,5.371,-20.142,13.489
1.014,-0.337,-0.499,14.038,-17.944,13.306
0.99,-0.334,-0.5,22.034,-13.428,12.146
0.995,-0.321,-0.478,29.48,-8.545,10.01
1.008,-0.267,-0.431,35.767,-4.456,6.958
1.014,-0.223,-0.386,41.687,-1.16,3.479
1.037,-0.21,-0.356,47.302,1.465,0.732
1.047,-0.224,-0.312,51.208,3.174,-0.427
1.079,-0.221,-0.264,51.208,4.944,-0.183
1.101,-0.228,-0.203,47.729,7.019,1.282
1.118,-0.217,-0.189,41.504,8.423,3.601
1.124,-0.19,-0.183,34.241,8.789,6.287
1.103,-0.14,-0.19,27.466,8.118,8.789
1.058,-0.094,-0.199,22.705,7.446,9.705
1.011,-0.066,-0.207,19.653,8.179,9.766
0.978,-0.044,-0.209,19.043,10.071,8.179
0.957,-0.036,-0.212,19.775,13.245,5.981
0.951,-0.032,-0.21,21.118,17.029,3.662
0.963,-0.034,-0.199,22.705,19.836,1.221
0.971,-0.061,-0.199,23.621,20.63,-1.099
0.964,-0.025,-0.179,22.644,21.362,-2.869
0.973,-0.016,-0.171,23.071,21.606,-2.93
0.944,-0.033,-0.164,24.17,18.921,-1.526
0.983,-0.039,-0.168,25.085,16.602,0.488
1.009,-0.063,-0.117,25.696,14.221,2.258
1.022,-0.058,-0.115,25.879,7.812,3.296
0.984,-0.022,-0.122,26.184,1.038,5.615
0.998,-0.053,-0.149,27.588,-4.333,9.705
0.963,-0.057,-0.127,28.137,-6.531,12.878
0.908,-0.146,-0.155,27.71,-7.996,14.587
0.922,-0.103,-0.133,24.963,-6.348,10.742
0.924,-0.114,-0.134,23.193,-2.38,9.033
0.938,-0.125,-0.135,21.973,0.366,7.812
0.945,-0.124,-0.131,19.836,1.953,4.395
0.967,-0.118,-0.135,18.005,3.296,0.916
0.946,-0.088,-0.155,16.418,4.517,-1.526
0.965,-0.056,-0.155,15.686,7.507,-3.54
0.991,-0.047,-0.143,16.174,10.986,-5.066
1.013,-0.039,-0.13,16.724,13.0,-5.371
1.023,-0.023,-0.129,16.907,12.573,-4.822
1.027,-0.024,-0.121,17.639,11.536,-3.479
1.02,-0.025,-0.12,17.761,9.766,-1.404
1.023,-0.01,-0.12,17.395,7.385,1.404
1.021,-0.0,-0.122,17.578,4.7,4.089
1.012,-0.004,-0.127,18.555,1.892,6.409
1.003,0.002,-0.124,19.226,-0.305,8.179
0.994,0.005,-0.119,19.958,-2.258,9.46
0.986,0.01,-0.113,20.63,-3.357,10.254
0.975,0.024,-0.108,20.874,-4.333,10.071
0.972,0.033,-0.098,20.081,-4.028,10.071
0.975,0.039,-0.088,19.165,-3.967,9.888
0.977,0.042,-0.083,17.761,-3.662,9.949
0.976,0.043,-0.085,16.357,-3.906,9.827
0.974,0.047,-0.085,15.259,-4.456,9.338
0.964,0.038,-0.086,14.587,-5.066,8.606
0.965,0.026,-0.082,13.245,-5.432,7.996
0.964,0.021,-0.082,11.292,-5.432,7.263
0.959,0.022,-0.087,9.521,-5.859,6.348
0.95,0.021,-0.093,7.996,-6.47,5.371
0.943,0.014,-0.094,6.836,-6.958,3.906
0.934,0.001,-0.1,6.531,-6.897,1.953
0.938,-0.007,-0.102,5.31,-6.348,0.0
0.942,-0.022,-0.103,4.7,-5.981,-1.953
0.946,-0.035,-0.104,3.845,-5.127,-3.296
0.971,-0.034,-0.099,2.869,-3.235,-4.15
0.998,-0.026,-0.099,1.465,-1.526,-4.578
1.016,-0.01,-0.1,0.244,-1.282,-4.517
1.024,-0.001,-0.109,-0.122,-1.892,-4.089
1.02,-0.0,-0.114,0.549,-3.174,-3.357
1.01,-0.006,-0.121,1.892,-4.211,-2.441
1.472,-0.291,1.501,-5.188,22.888,38.391
1.477,-0.437,1.654,-39.307,9.521,56.641
1.426,-0.552,1.734,-83.74,-9.766,73.547
1.405,-0.623,1.823,-130.005,-29.358,85.327
1.395,-0.729,1.925,-174.194,-42.969,92.896
1.312,-0.882,1.956,-218.384,-52.307,96.558
1.2,-1.035,1.924,-264.771,-57.312,96.252
1.107,-1.175,1.855,-312.622,-55.847,94.421
1.024,-1.282,1.727,-358.765,-49.377,93.079
0.979,-1.406,1.559,-401.062,-38.757,91.553
0.975,-1.519,1.417,-439.819,-24.719,90.942
0.983,-1.627,1.25,-473.938,-12.024,93.323
1.01,-1.754,1.092,-503.845,-4.578,99.243
1.071,-1.821,0.962,-532.166,-3.174,106.567
1.112,-1.851,0.822,-556.213,-8.85,114.319
1.099,-1.946,0.634,-578.43,-19.531,121.887
1.049,-2.017,0.434,-600.647,-29.541,127.625
0.999,-2.034,0.249,-622.803,-34.79,130.798
0.943,-2.075,0.05,-641.541,-36.255,131.775
0.935,-2.133,-0.14,-657.166,-36.377,132.324
0.941,-2.139,-0.307,-673.767,-39.734,133.24
0.931,-2.123,-0.482,-688.782,-49.011,133.057
0.922,-2.087,-0.562,-702.515,-62.561,130.615
0.925,-1.959,-0.639,-712.646,-82.336,122.559
0.887,-1.692,-0.786,-710.205,-107.605,108.948
0.722,-1.383,-1.041,-685.852,-131.042,87.769
0.568,-1.001,-1.278,-633.667,-143.616,59.021
0.473,-0.69,-1.482,-556.091,-142.395,26.855
0.406,-0.398,-1.376,-457.825,-121.46,-1.831
0.749,-0.794,-0.957,-344.055,-82.52,-17.395
1.026,-1.214,-0.689,-253.601,-65.674,-41.626
1.159,-1.532,-0.514,-195.374,-61.035,-58.96
1.318,-1.661,-0.479,-165.283,-60.73,-66.467
1.467,-1.612,-0.465,-149.719,-58.228,-64.514
1.573,-1.43,-0.444,-137.878,-58.899,-59.326
1.633,-1.254,-0.404,-125.671,-60.364,-52.185
1.622,-1.039,-0.399,-114.807,-59.998,-44.189
1.532,-0.87,-0.399,-101.807,-57.007,-35.95
1.433,-0.75,-0.402,-85.754,-49.683,-26.672
1.356,-0.723,-0.373,-68.237,-39.063,-14.465
1.279,-0.727,-0.368,-51.636,-29.297,1.099
1.233,-0.721,-0.372,-37.109,-25.696,16.174
1.199,-0.747,-0.36,-25.513,-27.832,30.029
1.127,-0.812,-0.364,-18.188,-35.645,43.03
1.052,-0.841,-0.4,-15.93,-44.128,53.406
0.984,-0.783,-0.459,-17.029,-50.781,59.082
0.899,-0.684,-0.523,-16.174,-53.833,58.105
0.839,-0.582,-0.558,-11.902,-50.598,51.147
0.796,-0.492,-0.57,-4.944,-42.114,40.344
0.777,-0.447,-0.56,4.761,-30.396,27.893
0.8,-0.414,-0.513,14.16,-16.357,15.32
0.861,-0.368,-0.454,22.583,-3.967,3.357
0.921,-0.313,-0.393,29.907,4.456,-6.165
0.96,-0.276,-0.349,37.109,9.338,-13.672
1.004,-0.271,-0.302,43.396,12.329,-18.066
1.06,-0.266,-0.244,46.143,13.184,-18.188
1.087,-0.247,-0.186,45.166,11.169,-14.893
1.101,-0.233,-0.133,40.649,8.362,-9.216
1.099,-0.203,-0.12,34.119,5.371,-2.808
1.087,-0.155,-0.129,27.832,1.526,3.174
1.074,-0.114,-0.143,23.682,-2.38,8.606
1.016,-0.112,-0.166,22.583,-5.859,12.085
0.983,-0.11,-0.189,22.095,-7.263,13.611
0.958,-0.101,-0.189,22.644,-7.385,12.573
0.941,-0.076,-0.188,23.437,-6.348,9.644
0.928,-0.068,-0.177,24.963,-4.395,5.92
0.934,-0.059,-0.171,26.245,-0.793,2.747
0.952,-0.035,-0.152,27.588,2.441,-0.732
0.967,-0.015,-0.133,28.748,4.822,-2.747
0.975,0.013,-0.117,31.006,4.456,-4.15
0.965,0.047,-0.108,33.813,2.075,-5.554
0.957,0.039,-0.104,37.903,0.0,-5.676
1.009,0.016,-0.081,41.382,0.732,-3.296
1.077,0.001,-0.05,42.297,-0.122,-0.61
1.092,0.022,-0.024,40.71,-4.333,2.747
1.131,0.013,-0.027,39.429,-10.559,8.118
1.116,-0.001,-0.01,36.987,-17.944,14.038
1.057,-0.05,-0.03,33.081,-24.414,19.104
0.985,-0.058,-0.058,27.222,-26.55,20.081
0.957,0.005,-0.067,20.447,-21.545,16.052
0.973,-0.028,-0.067,17.334,-14.282,13.794
0.971,-0.031,-0.068,13.977,-8.606,8.667
0.975,-0.055,-0.106,11.597,-5.981,3.113
0.905,-0.103,-0.123,9.399,-2.319,-1.953
0.927,-0.077,-0.144,7.751,3.296,-7.019
0.929,-0.085,-0.16,7.263,10.62,-10.132
1.003,-0.081,-0.153,7.629,16.602,-13.733
1.042,-0.077,-0.169,9.766,18.005,-16.663
1.058,-0.085,-0.193,12.878,16.541,-18.311
1.076,-0.09,-0.207,16.296,15.259,-18.738
1.109,-0.097,-0.211,20.935,15.93,-17.883
1.153,-0.113,-0.201,24.78,18.005,-15.747
1.184,-0.127,-0.193,26.978,18.982,-12.024
1.193,-0.123,-0.194,28.198,18.188,-7.568
1.178,-0.123,-0.213,29.419,16.785,-3.418
1.147,-0.12,-0.228,31.25,15.747,0.61
1.108,-0.106,-0.244,33.508,15.503,4.089
1.071,-0.088,-0.254,36.743,16.418,6.226
1.057,-0.064,-0.248,40.955,18.372,6.409
1.06,-0.051,-0.225,45.959,20.508,5.92
1.053,-0.069,-0.207,50.293,21.362,5.798
1.047,-0.079,-0.201,52.551,21.362,6.104
1.052,-0.077,-0.188,53.528,21.301,6.714
1.058,-0.081,-0.163,53.162,21.362,8.606
1.06,-0.089,-0.148,51.147,20.508,10.559
1.045,-0.094,-0.157,47.546,19.47,11.536
1.03,-0.091,-0.171,43.701,19.714,10.925
1.029,-0.099,-0.188,39.734,22.278,8.789
1.019,-0.095,-0.201,35.828,26.245,5.127
1.021,-0.079,-0.21,31.494,32.104,1.038
1.036,-0.065,-0.217,28.076,38.147,-2.197
1.054,-0.041,-0.218,25.696,43.274,-4.089
1.074,-0.028,-0.218,24.78,46.021,-5.615
1.082,-0.038,-0.231,24.597,46.57,-6.165
1.093,-0.048,-0.235,25.146,45.532,-5.432
1.096,-0.063,-0.235,25.513,42.664,-3.296
1.06,-0.067,-0.259,26.062,38.635,-0.549
1.03,-0.084,-0.278,27.222,35.156,2.686
1.008,-0.064,-0.298,28.748,33.325,4.944
1.482,-0.182,1.241,-25.269,11.597,27.405
1.49,-0.324,1.397,-53.589,10.376,33.203
1.468,-0.46,1.519,-91.248,9.705,39.001
1.416,-0.562,1.585,-135.498,11.658,44.678
1.341,-0.586,1.618,-181.152,17.578,50.964
1.299,-0.579,1.653,-221.741,27.222,57.007
1.313,-0.602,1.704,-254.211,37.964,62.622
1.325,-0.706,1.738,-279.053,46.57,68.237
1.329,-0.833,1.765,-300.72,49.5,74.829
1.35,-0.94,1.799,-320.923,44.556,81.97
1.334,-1.082,1.795,-338.806,31.799,90.332
1.263,-1.266,1.713,-356.873,14.526,99.121
1.138,-1.428,1.559,-377.502,-3.357,106.995
0.993,-1.532,1.347,-401.367,-16.724,113.525
0.894,-1.542,1.147,-424.744,-23.254,117.615
0.844,-1.517,0.993,-443.42,-25.879,118.286
0.811,-1.499,0.828,-456.787,-27.1,116.638
0.788,-1.529,0.636,-468.933,-26.978,113.037
0.833,-1.464,0.48,-480.286,-24.658,108.032
0.849,-1.456,0.329,-486.816,-22.217,104.431
0.84,-1.631,0.131,-493.103,-19.714,102.234
0.853,-1.814,-0.12,-501.953,-13.123,99.915
0.952,-1.91,-0.419,-510.315,-4.883,95.825
1.119,-1.912,-0.631,-516.602,1.709,95.276
1.202,-1.884,-0.753,-518.555,-0.793,101.074
1.204,-1.866,-0.89,-514.771,-14.221,106.995
1.166,-1.837,-1.026,-506.165,-33.997,107.727
1.116,-1.961,-1.096,-493.53,-54.443,101.318
1.203,-1.386,-1.23,-479.675,-76.782,86.914
1.116,-1.49,-1.239,-444.702,-84.717,90.332
1.147,-1.409,-1.439,-399.902,-99.548,84.595
1.062,-1.226,-1.475,-348.328,-111.023,72.693
1.064,-1.116,-1.421,-292.664,-111.45,62.622
1.071,-1.12,-1.409,-230.469,-108.521,53.772
1.11,-1.117,-1.357,-171.631,-100.037,45.471
1.111,-1.113,-1.307,-121.277,-89.905,36.682
1.101,-1.052,-1.272,-79.346,-77.209,29.663
1.148,-1.023,-1.199,-44.312,-63.599,26.306
1.176,-0.985,-1.104,-16.968,-52.124,28.076
1.196,-0.901,-1.017,2.625,-45.837,31.128
1.204,-0.821,-0.93,16.052,-44.8,33.752
1.166,-0.747,-0.837,23.193,-45.349,36.011
1.093,-0.674,-0.76,24.719,-45.654,36.987
0.996,-0.581,-0.714,23.376,-44.434,35.461
0.903,-0.528,-0.68,20.935,-39.368,32.227
0.828,-0.489,-0.642,17.334,-29.419,27.893
0.776,-0.44,-0.613,11.597,-16.113,22.827
0.751,-0.388,-0.602,5.127,-2.991,16.357
0.739,-0.327,-0.591,-0.061,8.911,9.033
0.74,-0.267,-0.566,-3.784,19.897,1.16
0.768,-0.219,-0.535,-5.798,28.564,-5.005
0.79,-0.181,-0.508,-6.165,32.837,-9.827
0.797,-0.153,-0.49,-5.798,33.875,-13.733
0.823,-0.125,-0.466,-5.554,33.691,-16.479
0.85,-0.091,-0.457,-5.188,32.837,-16.968
0.866,-0.061,-0.449,-4.272,30.457,-16.785
0.889,-0.046,-0.43,-3.052,28.076,-15.625
0.895,-0.035,-0.414,-1.953,25.574,-14.099
0.9,-0.027,-0.411,-1.526,22.766,-12.268
0.887,-0.014,-0.419,-0.366,20.203,-10.925
0.887,0.007,-0.426,2.136,19.226,-10.681
0.89,0.043,-0.417,5.859,19.653,-11.963
0.902,0.054,-0.403,10.071,20.386,-14.16
0.911,0.061,-0.402,15.137,20.203,-16.968
0.907,0.056,-0.395,19.531,20.386,-19.226
0.926,0.043,-0.386,23.499,21.301,-20.996
0.963,0.005,-0.368,26.55,22.095,-21.606
0.988,-0.018,-0.364,27.466,21.301,-21.606
1.005,-0.012,-0.359,27.405,18.921,-21.851
1.023,0.003,-0.351,27.954,16.174,-22.461
1.031,0.019,-0.326,29.114,13.55,-22.705
1.044,0.029,-0.309,31.921,11.414,-22.949
1.058,0.035,-0.296,34.851,9.888,-22.522
1.065,0.053,-0.274,37.598,9.399,-21.606
1.094,0.07,-0.282,40.833,9.033,-18.494
1.101,0.062,-0.266,43.762,8.606,-13.55
1.094,0.093,-0.258,45.166,6.958,-8.85
1.091,0.085,-0.254,47.791,4.456,-3.296
1.073,0.073,-0.261,49.805,1.709,1.16
1.051,0.046,-0.271,51.025,-0.061,4.028
1.028,0.024,-0.278,51.392,-1.282,4.517
1.01,0.044,-0.278,50.598,-1.343,2.747
0.989,0.05,-0.275,49.927,-1.038,-0.122
0.98,0.065,-0.276,50.171,0.305,-2.869
0.981,0.095,-0.267,49.622,2.319,-4.639
0.991,0.106,-0.252,49.133,4.028,-5.615
0.99,0.093,-0.241,49.133,4.395,-5.737
0.966,0.076,-0.244,48.035,4.272,-4.7
0.968,0.064,-0.248,46.692,4.883,-2.747
0.987,0.07,-0.232,44.8,5.554,0.244
1.005,0.064,-0.227,42.542,5.005,3.113
1.023,0.055,-0.236,40.71,2.136,4.822
1.001,0.056,-0.257,39.673,-1.953,5.92
0.975,0.065,-0.278,39.429,-5.371,6.775
0.946,0.048,-0.3,40.71,-7.446,7.263
0.927,0.015,-0.319,42.419,-7.385,7.019
0.923,0.03,-0.334,44.373,-5.493,5.615
0.924,0.032,-0.342,47.546,-3.113,2.991
0.934,0.02,-0.341,51.636,-1.465,0.427
0.955,0.029,-0.324,54.138,-0.183,-1.831
0.962,0.027,-0.311,56.458,0.122,-3.418
0.959,0.01,-0.305,58.167,-0.061,-3.662
0.965,-0.012,-0.293,58.411,0.183,-2.869
0.976,-0.021,-0.285,57.678,0.732,-1.16
0.997,-0.03,-0.286,56.519,0.549,0.793
1.034,0.021,-0.277,53.772,-0.793,2.869
1.043,0.102,-0.257,52.979,-3.052,3.784
1.04,0.142,-0.239,54.504,-5.371,4.578
1.021,0.151,-0.217,56.763,-6.104,5.92
0.995,0.139,-0.204,58.228,-4.944,7.019
0.975,0.114,-0.198,57.739,-2.136,7.935
0.953,0.081,-0.191,55.359,1.648,8.301
0.94,0.059,-0.197,51.147,5.859,7.812
0.948,0.054,-0.203,46.021,10.498,6.47
0.956,0.061,-0.192,41.26,13.733,4.089
0.968,0.085,-0.192,36.926,15.381,0.671
0.921,0.071,-0.218,33.813,16.663,-2.319
0.968,0.066,-0.194,29.663,20.569,-4.333
0.946,-0.005,-0.194,24.719,25.696,-6.653
1.401,-0.14,1.725,151.245,-38.025,10.498
1.394,-0.493,2.293,156.494,-50.476,20.874
1.359,-0.952,2.819,127.93,-67.444,31.616
1.274,-1.321,3.128,57.068,-88.013,39.307
1.157,-1.516,3.12,-46.265,-106.689,40.222
1.068,-1.516,2.915,-159.485,-116.76,31.006
1.019,-1.475,2.677,-258.728,-111.572,18.127
0.992,-1.415,2.421,-339.233,-92.346,5.554
1.013,-1.325,2.164,-401.733,-61.646,-4.395
1.104,-1.34,1.88,-447.327,-27.71,-10.193
1.221,-1.452,1.547,-488.098,1.343,-10.498
1.289,-1.498,1.226,-527.893,27.71,-5.615
1.322,-1.468,0.952,-563.049,53.162,4.395
1.353,-1.459,0.675,-590.82,72.51,18.311
1.428,-1.411,0.46,-608.948,87.585,32.959
1.472,-1.33,0.295,-615.54,93.689,51.88
1.45,-1.343,0.143,-611.572,90.698,75.012
1.299,-1.406,-0.083,-600.83,82.886,96.313
1.088,-1.395,-0.254,-586.243,83.313,111.755
0.933,-1.361,-0.384,-568.909,91.431,124.39
0.795,-1.129,-0.458,-546.997,100.342,135.559
0.755,-1.107,-0.435,-515.503,113.464,152.588
0.799,-1.092,-0.467,-485.718,118.469,166.87
0.844,-1.025,-0.454,-458.557,110.107,180.725
0.89,-0.963,-0.491,-434.143,85.266,195.129
0.86,-1.055,-0.543,-409.973,50.232,214.844
0.879,-1.074,-0.704,-391.663,7.08,229.614
0.89,-0.989,-0.851,-373.108,-38.147,236.023
0.815,-0.941,-0.978,-352.722,-78.918,235.535
0.694,-0.968,-1.151,-330.078,-110.962,227.722
0.54,-1.005,-1.33,-309.509,-127.747,213.989
0.422,-1.01,-1.494,-292.297,-125.366,193.665
0.374,-0.99,-1.623,-276.855,-107.117,168.457
0.367,-0.907,-1.726,-259.644,-77.209,142.151
0.396,-0.73,-1.739,-237.915,-43.152,115.723
0.535,-0.545,-1.668,-209.351,-13.55,91.064
0.707,-0.43,-1.575,-172.18,2.136,70.496
0.792,-0.356,-1.493,-131.958,2.808,53.772
0.818,-0.293,-1.396,-91.614,-6.775,41.382
0.832,-0.261,-1.311,-51.575,-21.362,34.302
0.814,-0.239,-1.229,-14.465,-35.034,32.227
0.775,-0.193,-1.146,16.418,-44.373,33.691
0.761,-0.142,-1.056,43.457,-49.561,37.415
0.763,-0.13,-0.95,64.941,-51.758,42.542
0.768,-0.122,-0.862,79.407,-52.673,47.058
0.738,-0.071,-0.79,87.097,-53.04,49.072
0.695,-0.021,-0.719,90.637,-51.453,49.072
0.659,0.046,-0.651,90.698,-48.34,47.607
0.615,0.117,-0.592,89.294,-43.945,44.922
0.592,0.187,-0.536,87.097,-38.269,41.26
0.57,0.252,-0.49,84.9,-33.569,37.415
0.52,0.301,-0.459,82.153,-28.625,33.569
0.51,0.313,-0.43,78.308,-22.461,28.992
0.524,0.318,-0.396,72.937,-15.564,24.658
0.528,0.346,-0.374,66.589,-9.399,20.813
0.558,0.378,-0.341,59.143,-5.798,19.409
0.594,0.412,-0.302,51.147,-4.456,19.348
0.61,0.457,-0.275,42.847,-5.737,20.203
0.607,0.506,-0.271,36.133,-9.766,20.996
0.593,0.536,-0.279,31.128,-13.855,21.24
0.587,0.558,-0.287,27.832,-16.052,20.63
0.591,0.578,-0.283,25.513,-17.09,19.348
0.563,0.576,-0.285,24.17,-17.517,17.212
0.558,0.568,-0.292,22.766,-14.954,13.55
0.581,0.563,-0.285,20.874,-10.864,8.484
0.598,0.567,-0.279,18.433,-7.324,3.052
0.608,0.565,-0.281,15.32,-5.066,-1.892
0.616,0.568,-0.285,12.024,-3.357,-5.371
0.626,0.573,-0.286,8.667,-0.366,-8.362
0.643,0.579,-0.287,5.493,3.235,-10.742
0.658,0.586,-0.287,2.319,6.531,-12.39
0.677,0.587,-0.293,-0.183,7.568,-14.038
0.7,0.571,-0.298,-3.113,7.141,-15.503
0.694,0.558,-0.318,-5.676,6.165,-16.785
0.698,0.573,-0.335,-7.935,5.249,-18.005
0.685,0.574,-0.342,-8.789,5.127,-19.104
0.63,0.538,-0.354,-9.033,4.578,-21.179
0.56,0.453,-0.364,-9.644,4.883,-26.917
0.685,0.542,-0.37,-13.428,7.874,-36.865
0.75,0.652,-0.354,-14.343,13.977,-41.443
0.769,0.699,-0.317,-9.216,17.273,-35.4
0.434,0.336,-0.387,0.122,12.695,-26.489
0.82,1.064,-0.581,-4.7,9.827,-41.687
1.143,0.63,-0.3,10.681,33.203,-26.062
0.582,0.242,-0.227,17.944,27.649,-18.25
0.802,0.43,-0.441,7.874,-2.869,-33.569
0.933,0.585,-0.318,3.662,-3.113,-37.476
0.911,0.621,-0.504,5.31,-8.545,-29.48
0.788,0.364,-0.39,17.7,-4.578,-12.146
0.848,0.492,-0.446,18.372,-8.118,-11.536
0.917,0.522,-0.411,21.667,-8.484,-9.094
0.871,0.511,-0.407,25.269,-9.583,-6.042
0.892,0.569,-0.428,27.527,-10.437,-5.615
0.889,0.533,-0.396,30.762,-7.08,-3.357
0.885,0.54,-0.375,32.532,-7.141,-1.77
0.862,0.537,-0.375,33.569,-8.911,-0.122
0.825,0.517,-0.375,33.691,-9.705,1.709
0.801,0.486,-0.373,33.752,-9.399,2.258
0.795,0.499,-0.379,33.325,-8.667,0.854
0.777,0.507,-0.386,33.569,-7.324,-1.404
0.768,0.519,-0.375,34.79,-5.493,-3.906
0.764,0.521,-0.359,36.072,-3.845,-6.47
0.771,0.517,-0.347,37.354,-1.587,-8.545
0.774,0.536,-0.331,37.781,0.916,-9.216
0.773,0.539,-0.317,38.452,3.113,-8.728
0.799,0.536,-0.304,39.246,3.601,-7.385
0.832,0.535,-0.285,39.307,2.991,-5.31
0.845,0.537,-0.268,38.269,0.793,-3.357
0.828,0.547,-0.266,36.56,-2.319,-2.136
0.808,0.558,-0.27,35.156,-5.554,-1.038
0.786,0.563,-0.274,34.912,-7.69,-0.916
0.763,0.547,-0.278,35.4,-8.484,-1.526
0.759,0.548,-0.273,36.255,-8.484,-2.869
0.757,0.532,-0.275,36.438,-7.507,-3.296
0.741,0.519,-0.261,36.804,-5.615,-3.479
0.729,0.523,-0.258,36.377,-3.601,-3.723
0.766,0.527,-0.251,36.255,-1.16,-3.906
0.773,0.506,-0.227,36.072,0.916,-3.906
0.771,0.505,-0.217,34.851,0.0,-5.249
1.73,-0.078,1.541,377.625,13.733,-39.307
2.024,-0.5,2.006,415.955,19.714,-8.545
2.335,-1.097,2.521,430.359,12.146,27.893
2.305,-1.768,2.938,402.771,-12.024,70.007
1.934,-2.398,3.266,317.139,-40.833,103.577
1.468,-2.919,3.626,167.297,-44.739,118.774
1.5,-2.844,3.458,-43.213,-18.677,109.619
1.439,-2.694,3.027,-259.155,12.878,115.479
1.269,-2.649,2.697,-439.941,37.048,145.264
1.101,-2.633,2.156,-580.994,55.298,167.847
1.169,-2.354,1.767,-684.021,73.853,179.199
1.121,-2.32,1.265,-753.662,86.243,195.374
1.135,-2.265,0.851,-802.673,97.107,204.956
1.121,-2.296,0.481,-834.473,106.75,216.125
0.951,-2.349,0.069,-849.976,119.69,220.764
0.811,-2.355,-0.228,-849.976,140.564,218.872
0.693,-2.16,-0.445,-833.923,166.687,220.581
0.577,-1.955,-0.428,-804.626,194.641,233.459
0.338,-1.922,-0.484,-759.583,220.581,252.869
0.106,-1.863,-0.596,-709.656,245.911,270.264
-0.005,-1.694,-0.634,-659.546,270.081,286.804
-0.03,-1.548,-0.555,-609.558,283.203,304.749
-0.096,-1.492,-0.54,-563.66,270.752,324.89
-0.063,-1.454,-0.508,-522.034,231.873,345.276
0.027,-1.527,-0.563,-491.76,163.269,367.004
-0.201,-1.461,-0.821,-461.853,76.66,382.507
-0.44,-1.719,-0.958,-433.35,1.038,388.733
-0.521,-1.709,-1.315,-416.992,-81.726,364.197
-0.651,-1.667,-1.64,-396.057,-144.47,323.303
-0.829,-1.62,-1.978,-369.08,-182.312,269.165
-0.953,-1.406,-2.326,-333.008,-190.613,201.111
-0.959,-1.026,-2.343,-286.987,-160.278,127.319
-0.743,-0.702,-2.173,-226.44,-109.497,55.847
-0.401,-0.63,-1.933,-155.945,-55.603,-9.705
-0.05,-0.634,-1.637,-90.881,-6.897,-64.026
0.235,-0.67,-1.452,-39.49,26.978,-104.492
0.518,-0.748,-1.292,-2.014,46.936,-126.892
0.774,-0.81,-1.131,21.423,51.758,-133.911
0.953,-0.838,-1.009,35.4,40.405,-130.249
1.027,-0.78,-0.927,40.649,19.775,-117.615
1.042,-0.672,-0.89,41.931,-4.028,-98.816
1.045,-0.556,-0.87,41.199,-24.17,-77.576
1.01,-0.417,-0.864,39.124,-36.865,-55.725
0.946,-0.28,-0.884,39.307,-43.335,-34.79
0.829,-0.141,-0.918,42.175,-46.143,-17.273
0.722,-0.032,-0.944,48.096,-43.579,-4.333
0.645,0.014,-0.926,56.641,-38.086,4.028
0.591,0.044,-0.892,65.308,-32.654,9.888
0.537,0.047,-0.857,72.51,-29.968,13.184
0.499,0.003,-0.838,77.026,-28.015,14.404
0.49,-0.071,-0.817,77.942,-26.123,14.526
0.467,-0.13,-0.802,72.083,-23.926,14.526
0.447,-0.132,-0.78,60.73,-21.667,13.428
0.462,-0.104,-0.752,46.448,-19.226,12.085
0.482,-0.04,-0.739,32.715,-18.066,10.986
0.483,0.057,-0.732,20.325,-19.897,8.972
0.47,0.138,-0.731,11.536,-22.4,5.615
0.433,0.198,-0.759,6.165,-22.583,1.282
0.435,0.234,-0.781,3.845,-18.555,-4.028
0.451,0.248,-0.778,3.662,-12.329,-8.728
0.477,0.245,-0.762,3.54,-6.226,-12.634
0.499,0.219,-0.748,2.197,-0.977,-15.564
0.532,0.19,-0.754,-0.916,3.845,-16.846
0.57,0.165,-0.754,-4.822,6.47,-17.212
0.6,0.154,-0.761,-9.277,7.446,-16.785
0.621,0.165,-0.768,-14.404,5.737,-16.113
0.604,0.178,-0.794,-18.616,2.625,-15.686
0.583,0.188,-0.814,-20.874,0.122,-16.479
0.571,0.183,-0.806,-21.667,-0.183,-18.188
0.535,0.136,-0.733,-21.667,-1.587,-19.958
0.615,0.047,-0.715,-23.743,-10.498,-22.705
0.637,0.036,-0.765,-28.503,-16.418,-26.184
0.613,0.188,-0.986,-31.738,-3.54,-23.376
0.539,0.149,-0.948,-27.527,3.906,-21.79
0.606,0.054,-0.764,-26.794,8.728,-24.658
0.716,0.244,-0.926,-21.179,4.883,-26.672
0.517,0.069,-0.615,-13.062,14.832,-19.836
0.76,0.412,-1.201,-8.728,-8.301,-23.682
0.674,-0.195,-0.962,2.38,-0.549,-15.198
0.546,0.145,-0.982,-7.874,6.592,-23.499
0.608,0.13,-0.842,-3.723,12.695,-23.376
0.738,-0.02,-0.889,1.892,12.634,-18.677
0.676,0.076,-0.844,-0.305,8.24,-20.325
0.703,0.064,-0.846,-1.038,5.371,-18.616
0.687,0.07,-0.896,0.854,-1.587,-17.09
0.633,0.067,-0.841,2.136,-4.517,-16.113
0.613,0.071,-0.828,2.38,-6.47,-15.93
0.588,0.079,-0.826,3.845,-8.362,-16.296
0.523,-0.068,-0.896,4.944,-7.202,-17.395
0.579,0.095,-0.67,0.366,-2.93,-24.109
0.641,0.122,-0.992,4.089,-4.578,-24.109
0.563,0.174,-0.705,7.874,3.784,-22.888
0.646,-0.007,-0.86,14.221,0.793,-18.188
0.547,0.042,-0.791,15.564,-1.648,-17.639
0.665,0.056,-0.864,13.916,-5.066,-19.104
0.624,0.038,-0.792,15.259,-3.296,-16.785
0.636,-0.004,-0.806,17.029,-5.249,-13.672
0.653,-0.029,-0.827,16.296,-9.338,-11.23
0.624,0.021,-0.816,12.695,-10.803,-10.01
0.593,0.026,-0.806,12.085,-12.451,-9.338
0.621,0.028,-0.775,12.512,-13.916,-10.315
0.589,0.102,-0.885,13.489,-14.771,-11.719
0.471,-0.01,-0.771,15.503,-7.08,-12.268
0.644,0.048,-0.849,15.808,-2.93,-17.639
0.631,0.006,-0.768,17.883,3.479,-19.165
0.63,0.007,-0.833,17.7,-1.587,-21.912
0.638,0.032,-0.822,17.944,-3.052,-21.606
0.658,0.059,-0.818,18.799,-4.822,-21.423
0.657,0.071,-0.804,20.996,-6.287,-20.142
0.656,0.096,-0.808,22.522,-8.118,-18.738
0.672,0.084,-0.803,24.231,-10.132,-16.968
0.675,0.085,-0.798,25.452,-12.024,-16.541
0.685,0.078,-0.805,26.306,-13.611,-16.663
0.658,0.089,-0.815,26.184,-14.343,-17.639
0.638,0.098,-0.838,26.794,-13.062,-19.348
0.635,0.082,-0.839,28.015,-8.179,-21.24
0.657,0.049,-0.845,29.541,-2.258,-23.56
0.674,0.024,-0.862,30.029,2.93,-25.94
0.674,0.007,-0.856,30.09,7.568,-27.283
1.673,0.301,1.143,110.718,-47.18,10.132
1.997,0.266,1.474,146.545,-39.368,11.169
2.353,0.105,1.921,187.622,-36.987,18.921
2.651,-0.238,2.474,223.877,-47.119,37.476
2.785,-0.85,3.089,238.098,-79.712,69.275
2.429,-1.787,3.592,200.378,-129.456,106.995
1.638,-2.634,3.849,79.041,-172.363,135.681
0.981,-2.909,3.545,-117.004,-187.317,147.095
0.661,-2.738,2.93,-327.271,-166.26,143.25
0.23,-2.493,2.323,-487.488,-111.755,138.733
0.018,-2.175,1.847,-592.712,-30.029,124.268
0.121,-1.943,1.396,-655.64,60.059,110.962
0.265,-1.936,0.861,-693.481,138.489,107.971
0.311,-1.997,0.352,-715.942,203.308,106.75
0.176,-2.02,-0.127,-728.333,261.169,107.971
0.144,-1.931,-0.579,-730.652,319.58,115.112
0.086,-1.755,-0.841,-720.703,380.31,135.925
0.025,-1.565,-0.91,-693.787,434.814,164.917
-0.159,-1.497,-0.947,-654.358,478.149,195.068
-0.281,-1.492,-0.937,-612.0,511.719,222.107
-0.292,-1.367,-0.792,-572.327,530.762,245.483
-0.125,-1.011,-0.578,-531.555,516.113,262.451
-0.028,-0.899,-0.457,-481.201,471.802,284.912
-0.109,-0.97,-0.224,-428.955,407.593,305.786
-0.217,-0.927,-0.091,-389.221,310.608,312.195
-0.385,-0.883,-0.075,-354.98,197.205,313.599
-0.646,-0.9,-0.227,-322.021,84.106,309.814
-0.9,-0.961,-0.407,-291.931,-13.062,299.927
-1.136,-1.073,-0.65,-270.203,-86.365,284.363
-1.337,-1.174,-0.922,-256.47,-129.578,258.423
-1.488,-1.1,-1.143,-248.535,-142.029,218.445
-1.462,-0.97,-1.237,-238.098,-129.211,164.856
-1.274,-0.999,-1.291,-223.999,-102.539,103.699
-1.048,-1.103,-1.35,-214.355,-66.101,41.016
-0.799,-1.078,-1.402,-212.585,-25.085,-14.893
-0.528,-0.98,-1.387,-212.952,13.733,-59.326
-0.29,-0.919,-1.321,-209.9,47.729,-89.294
-0.027,-0.901,-1.225,-203.369,71.533,-105.53
0.206,-0.821,-1.155,-195.984,80.811,-108.398
0.32,-0.661,-1.11,-184.937,73.059,-102.112
0.461,-0.453,-1.06,-167.053,53.101,-92.468
0.617,-0.401,-1.002,-143.005,28.198,-76.477
0.664,-0.39,-1.025,-118.896,1.099,-54.688
0.615,-0.451,-1.096,-96.802,-24.963,-33.752
0.552,-0.55,-1.172,-78.125,-41.504,-13.916
0.494,-0.636,-1.223,-65.491,-47.119,1.953
0.438,-0.692,-1.263,-59.204,-43.274,13.245
0.382,-0.668,-1.306,-58.228,-33.875,20.203
0.318,-0.58,-1.312,-56.946,-23.376,20.447
0.27,-0.48,-1.299,-52.673,-13.611,15.503
0.272,-0.477,-1.264,-44.983,-5.493,8.179
0.267,-0.545,-1.221,-39.734,0.366,2.563
0.246,-0.581,-1.193,-40.039,4.578,1.587
0.256,-0.551,-1.182,-42.297,5.737,5.066
0.27,-0.519,-1.198,-42.908,2.563,9.46
0.254,-0.498,-1.216,-41.443,-2.319,11.536
0.243,-0.444,-1.238,-38.086,-6.897,11.047
0.235,-0.385,-1.243,-31.677,-10.986,8.606
0.216,-0.354,-1.249,-22.827,-13.916,4.822
0.203,-0.341,-1.252,-13.794,-14.282,0.977
0.216,-0.345,-1.232,-5.798,-12.146,-2.441
0.239,-0.336,-1.201,0.732,-9.277,-4.517
0.26,-0.318,-1.174,5.981,-8.24,-6.592
0.289,-0.335,-1.154,10.62,-9.338,-8.301
0.318,-0.367,-1.142,14.832,-11.414,-9.216
0.338,-0.401,-1.137,16.296,-14.343,-8.667
0.343,-0.418,-1.137,15.137,-16.968,-6.409
0.335,-0.395,-1.141,12.817,-18.555,-3.723
0.333,-0.35,-1.144,10.925,-19.043,-1.526
0.336,-0.311,-1.138,11.23,-19.836,-0.183
0.308,-0.31,-1.145,14.099,-21.057,0.0
0.279,-0.294,-1.154,18.433,-21.301,-1.16
0.258,-0.281,-1.132,25.085,-21.362,-3.113
0.258,-0.31,-1.083,33.02,-23.193,-5.249
0.25,-0.368,-0.855,40.527,-30.396,-7.69
0.538,-0.309,-0.496,46.204,-66.528,-11.414
0.539,-0.536,-1.783,51.147,-122.314,-9.766
-0.19,-0.396,-0.899,40.283,-66.467,-5.005
0.199,-0.122,-1.208,46.692,-58.96,-7.446
0.284,-0.491,-1.135,65.735,-58.899,-8.057
0.143,-0.287,-1.181,66.528,-35.828,-12.695
0.299,-0.267,-0.876,73.547,-22.644,-16.174
0.529,-0.214,-0.913,84.473,-42.786,-19.775
0.476,-0.353,-1.12,94.116,-65.552,-15.747
0.219,-0.407,-1.175,91.125,-70.007,-16.235
0.338,-0.245,-0.968,86.67,-51.697,-17.456
0.43,-0.254,-1.021,96.558,-58.289,-16.418
0.393,-0.349,-1.083,100.83,-63.293,-13.916
0.367,-0.229,-1.037,101.135,-56.885,-15.137
0.419,-0.17,-1.014,107.117,-60.425,-17.212
0.437,-0.118,-0.94,114.868,-68.359,-20.142
0.464,-0.082,-0.966,122.314,-76.111,-20.874
0.372,-0.246,-1.013,127.93,-77.637,-19.348
0.394,-0.26,-0.924,124.573,-74.524,-24.475
0.526,-0.049,-1.075,121.338,-71.838,-27.588
0.41,-0.169,-0.964,120.422,-56.824,-22.217
0.4,-0.099,-0.887,117.676,-44.006,-20.386
0.499,-0.093,-0.93,115.479,-42.786,-21.973
0.56,0.007,-0.943,111.816,-36.499,-24.536
0.482,-0.007,-0.81,112.183,-24.475,-23.621
0.495,0.049,-0.85,112.488,-26.855,-26.001
0.576,0.004,-0.827,112.427,-26.794,-27.283
0.548,0.064,-0.778,109.863,-24.902,-30.273
0.621,-0.053,-0.86,108.704,-27.1,-29.358
0.545,-0.036,-0.831,102.966,-23.376,-29.419
0.552,-0.079,-0.794,98.267,-20.935,-28.564
0.635,-0.025,-0.837,92.468,-23.315,-30.701
0.561,-0.094,-0.86,87.952,-21.423,-29.968
0.541,-0.05,-0.893,81.543,-17.334,-32.227
0.524,0.028,-0.84,76.843,-9.827,-35.583
0.558,0.08,-0.809,76.66,-6.287,-38.33
0.635,0.109,-0.794,78.491,-6.226,-40.649
0.662,0.191,-0.74,80.627,-9.949,-41.809
0.694,0.204,-0.717,85.449,-20.935,-41.809
0.722,0.21,-0.735,90.21,-34.851,-41.504
0.672,0.205,-0.734,94.604,-44.678,-39.124
0.619,0.217,-0.713,98.511,-51.331,-35.583
0.618,0.187,-0.731,102.966,-56.396,-30.518
0.586,0.148,-0.742,105.042,-57.007,-25.818
1.944,0.108,0.667,231.628,-10.071,-38.208
2.047,0.017,0.85,263.672,-12.268,-22.827
2.176,-0.101,1.125,298.828,-20.63,-1.648
2.261,-0.255,1.492,332.825,-38.757,27.71
2.212,-0.524,1.824,360.535,-70.129,67.2
1.926,-0.988,2.229,372.498,-107.849,117.493
1.171,-1.796,2.54,352.539,-143.372,166.748
0.101,-2.839,3.124,263.977,-151.306,186.523
-0.566,-2.963,3.093,83.435,-110.229,160.95
-0.342,-2.46,2.791,-119.446,-36.133,120.239
-0.519,-2.554,2.604,-280.518,49.622,128.052
-0.471,-2.542,2.353,-402.71,133.057,137.329
-0.383,-2.385,1.881,-489.319,199.951,133.911
-0.118,-2.265,1.528,-548.096,259.399,144.958
0.057,-2.218,1.068,-594.116,304.26,161.56
0.137,-2.178,0.629,-634.033,344.91,185.73
0.139,-2.109,0.19,-670.349,381.226,215.088
0.002,-2.034,-0.186,-697.571,416.626,248.718
-0.185,-1.905,-0.489,-710.815,455.017,286.621
-0.313,-1.679,-0.711,-706.909,495.056,328.918
-0.434,-1.442,-0.768,-681.274,537.17,372.07
-0.429,-1.328,-0.731,-636.536,573.975,406.921
-0.318,-1.084,-0.603,-581.665,591.003,425.476
-0.067,-1.038,-0.392,-527.283,584.229,438.171
0.143,-1.095,-0.152,-479.553,550.11,448.242
0.271,-1.223,0.194,-441.528,481.262,460.632
0.12,-1.524,0.469,-416.199,366.394,463.318
-0.172,-1.508,0.121,-405.457,215.21,439.514
-0.536,-1.677,-0.121,-392.151,97.656,416.016
-1.019,-1.609,-0.393,-377.197,5.981,385.132
-1.296,-1.688,-0.788,-356.873,-61.279,348.755
-1.425,-1.55,-0.928,-340.576,-91.797,302.063
-1.429,-1.358,-0.994,-317.261,-102.966,250.793
-1.312,-1.299,-1.014,-284.363,-105.164,195.251
-1.112,-1.429,-1.083,-248.779,-102.356,135.376
-0.885,-1.667,-1.19,-223.511,-91.675,79.041
-0.604,-1.81,-1.336,-213.44,-75.073,36.621
-0.31,-1.851,-1.477,-211.609,-58.655,12.268
-0.058,-1.818,-1.576,-210.571,-47.241,1.099
0.167,-1.676,-1.623,-206.116,-43.152,-0.488
0.358,-1.445,-1.63,-193.176,-49.072,3.662
0.419,-1.238,-1.636,-171.265,-62.195,10.498
0.404,-1.105,-1.635,-141.418,-74.402,16.663
0.336,-0.949,-1.649,-108.704,-81.482,21.057
0.212,-0.849,-1.613,-73.975,-78.796,25.513
0.1,-0.816,-1.565,-40.039,-67.505,30.151
0.012,-0.803,-1.5,-10.986,-51.27,33.63
-0.064,-0.84,-1.449,12.146,-34.79,34.912
-0.114,-0.859,-1.4,28.442,-22.888,33.02
-0.13,-0.847,-1.336,38.94,-17.151,28.32
-0.123,-0.849,-1.276,44.067,-17.395,22.583
-0.137,-0.836,-1.257,43.762,-22.766,16.052
-0.169,-0.796,-1.267,40.527,-29.724,7.202
-0.195,-0.716,-1.289,36.621,-34.485,-3.174
-0.179,-0.649,-1.292,35.095,-35.522,-14.954
-0.113,-0.605,-1.276,35.583,-33.752,-27.588
-0.019,-0.557,-1.273,36.682,-31.128,-38.574
0.071,-0.483,-1.278,39.551,-29.846,-47.546
0.176,-0.394,-1.271,45.593,-28.809,-54.077
0.28,-0.325,-1.245,54.565,-28.198,-57.678
0.356,-0.269,-1.2,64.148,-29.602,-58.899
0.411,-0.232,-1.16,74.097,-32.227,-56.885
0.439,-0.22,-1.134,82.581,-35.706,-52.429
0.44,-0.23,-1.126,89.111,-39.185,-46.265
0.429,-0.246,-1.12,93.689,-41.321,-39.185
0.415,-0.278,-1.108,95.825,-42.297,-32.837
0.398,-0.276,-1.08,95.642,-43.274,-27.344
0.417,-0.205,-0.947,94.788,-47.974,-22.705
0.512,-0.066,-0.949,97.412,-64.026,-14.954
0.503,-0.54,-1.521,101.563,-73.425,-6.592
0.167,-0.297,-0.855,78.674,-46.814,-17.639
0.345,-0.108,-1.353,72.144,-51.575,-23.132
0.284,-0.282,-1.09,81.238,-29.175,-24.841
0.219,-0.025,-0.95,75.928,-11.292,-32.654
0.344,-0.09,-0.972,83.923,-9.155,-36.255
0.316,-0.156,-1.023,88.074,-5.249,-38.025
0.348,-0.167,-1.093,88.379,1.282,-41.382
0.385,-0.09,-0.914,87.158,13.184,-45.41
0.485,-0.139,-0.861,88.135,7.385,-48.462
0.612,-0.139,-0.954,88.135,-10.498,-49.744
0.549,-0.234,-1.039,86.365,-22.888,-47.791
0.431,-0.021,-0.93,81.848,-26.489,-47.119
0.476,-0.094,-0.978,90.942,-38.452,-41.077
0.474,-0.069,-0.973,96.741,-48.34,-40.466
0.428,-0.076,-0.95,102.295,-52.551,-40.588
0.466,-0.085,-0.986,106.018,-55.42,-43.335
0.409,0.039,-0.931,108.215,-55.176,-47.424
0.453,-0.104,-0.95,114.197,-52.673,-46.997
0.45,-0.104,-0.966,112.549,-49.5,-50.72
0.397,-0.123,-0.946,109.619,-42.175,-51.392
0.387,-0.075,-0.935,105.347,-37.17,-52.917
0.387,-0.101,-0.904,103.455,-30.457,-52.49
0.365,-0.092,-0.837,101.44,-27.405,-53.833
0.404,-0.072,-0.875,98.083,-30.09,-56.702
0.451,-0.025,-0.923,96.436,-26.123,-57.678
0.397,-0.031,-0.826,96.13,-16.907,-57.617
0.488,0.006,-0.833,95.886,-19.531,-59.875
0.513,-0.007,-0.851,97.778,-22.583,-60.547
0.462,0.001,-0.828,97.717,-24.536,-61.707
0.463,0.034,-0.841,99.06,-27.405,-61.951
0.435,-0.027,-0.859,101.99,-28.198,-58.777
0.357,-0.064,-0.856,101.929,-26.978,-57.495
0.334,-0.089,-0.877,100.22,-25.391,-58.838
0.369,-0.078,-0.893,96.252,-22.156,-62.012
0.412,-0.019,-0.889,93.079,-17.944,-67.993
0.446,0.028,-0.866,92.651,-13.245,-75.562
0.457,0.039,-0.857,93.933,-10.193,-83.435
0.474,0.061,-0.819,95.276,-6.836,-90.21
0.503,0.127,-0.748,97.595,-3.601,-93.811
0.5,0.181,-0.69,102.112,-2.869,-91.614
0.461,0.12,-0.741,107.849,-5.188,-84.717
0.468,0.006,-0.746,108.337,-4.272,-80.566
0.413,-0.001,-0.73,102.417,-2.808,-81.665
0.401,-0.016,-0.747,95.337,-2.563,-84.045
0.456,-0.026,-0.76,87.891,-3.418,-87.708
0.541,0.03,-0.722,81.787,-4.639,-92.468
0.652,0.097,-0.73,79.651,-9.583,-97.473
0.716,0.137,-0.705,82.336,-15.015,-100.647
0.748,0.177,-0.639,87.891,-20.874,-100.952
1.809,0.016,0.968,85.083,-22.766,9.338
1.913,-0.023,1.131,103.516,-32.654,18.86
1.934,-0.085,1.288,124.146,-43.335,25.635
1.908,-0.163,1.465,143.555,-49.866,33.325
1.795,-0.335,1.622,159.363,-47.363,46.204
1.632,-0.565,1.775,163.025,-31.799,64.27
1.509,-0.743,1.993,154.602,-6.653,85.449
1.407,-0.897,2.206,139.343,18.921,114.624
1.275,-1.157,2.346,117.859,36.499,150.024
1.166,-1.587,2.447,83.374,50.659,179.199
0.995,-1.992,2.408,22.888,64.819,191.895
0.838,-2.235,2.284,-66.956,82.397,191.345
0.715,-2.282,2.08,-174.805,103.21,184.937
0.61,-2.256,1.83,-279.846,123.535,180.603
0.491,-2.268,1.565,-372.498,141.968,188.232
0.343,-2.349,1.264,-448.853,158.264,204.834
0.192,-2.349,0.886,-516.968,173.889,223.022
0.047,-2.257,0.435,-575.928,194.641,241.455
-0.097,-2.107,0.038,-621.399,226.562,260.986
-0.241,-1.949,-0.265,-649.841,270.63,281.372
-0.403,-1.774,-0.498,-663.208,322.388,301.208
-0.554,-1.569,-0.635,-661.987,374.878,322.327
-0.649,-1.366,-0.666,-645.874,422.424,345.215
-0.729,-1.137,-0.676,-614.075,458.252,362.366
-0.769,-0.979,-0.605,-575.073,477.417,371.094
-0.67,-0.861,-0.49,-535.522,480.469,370.972
-0.4,-0.821,-0.314,-498.047,460.022,367.859
-0.142,-1.002,-0.137,-465.637,404.602,365.601
0.035,-1.235,-0.144,-441.04,307.8,353.943
0.01,-1.414,-0.368,-424.194,177.368,332.886
-0.228,-1.42,-0.68,-409.424,41.382,306.152
-0.481,-1.429,-0.925,-394.47,-73.303,278.503
-0.557,-1.424,-1.318,-381.409,-154.175,253.296
-0.853,-1.314,-1.458,-369.446,-189.636,227.844
-1.144,-1.137,-1.615,-350.586,-198.914,199.341
-1.093,-1.093,-1.83,-313.599,-183.594,164.612
-0.953,-0.989,-1.834,-270.081,-141.052,119.751
-0.756,-0.874,-1.75,-223.328,-92.285,70.251
-0.44,-0.866,-1.678,-175.964,-48.889,21.118
-0.146,-0.795,-1.589,-135.132,-17.639,-21.973
0.093,-0.703,-1.49,-98.511,-2.258,-54.993
0.385,-0.8,-1.371,-65.063,-0.671,-73.853
0.63,-0.912,-1.265,-43.64,-9.155,-71.35
0.695,-0.934,-1.219,-35.767,-32.654,-53.101
0.652,-0.959,-1.237,-34.668,-65.491,-29.114
0.589,-0.969,-1.286,-37.17,-94.299,-3.357
0.534,-0.901,-1.344,-40.894,-114.197,19.043
0.47,-0.817,-1.404,-43.701,-124.023,34.79
0.354,-0.743,-1.465,-43.213,-120.667,42.847
0.255,-0.625,-1.465,-39.429,-103.271,40.833
0.212,-0.504,-1.41,-31.25,-78.308,32.41
0.185,-0.447,-1.351,-18.738,-52.734,21.24
0.156,-0.421,-1.296,-6.348,-29.114,9.338
0.155,-0.424,-1.229,4.395,-9.705,-2.93
0.231,-0.509,-1.153,10.62,4.395,-12.634
0.288,-0.542,-1.119,9.033,13.794,-14.954
0.334,-0.483,-1.101,3.784,13.55,-13.123
0.385,-0.411,-1.088,-0.061,6.409,-10.01
0.392,-0.383,-1.106,-0.977,-2.502,-7.141
0.388,-0.344,-1.107,-0.793,-8.24,-5.981
0.403,-0.273,-1.082,1.16,-12.329,-6.47
0.412,-0.238,-1.046,4.517,-15.747,-8.057
0.425,-0.214,-1.014,7.629,-18.494,-10.681
0.446,-0.206,-0.998,10.376,-20.935,-14.526
0.442,-0.205,-1.006,11.841,-21.912,-17.639
0.436,-0.184,-1.005,13.672,-19.104,-18.921
0.446,-0.155,-0.96,15.564,-13.428,-18.616
0.477,-0.128,-0.844,17.822,-10.376,-17.151
0.581,-0.19,-1.082,21.423,-13.0,-13.916
0.444,-0.304,-1.024,18.555,1.831,-14.648
0.368,-0.189,-0.759,8.057,14.526,-20.508
0.563,-0.28,-1.061,7.935,6.042,-22.766
0.511,-0.25,-0.98,4.517,16.418,-22.888
0.375,-0.201,-0.926,2.075,29.114,-21.057
0.511,-0.205,-1.052,3.662,26.733,-23.621
0.533,-0.128,-0.924,6.592,30.823,-24.353
0.554,-0.156,-0.825,11.597,27.466,-22.583
0.69,-0.254,-1.099,13.062,9.949,-23.682
0.505,-0.205,-0.984,11.169,11.78,-24.048
0.486,-0.161,-0.953,10.803,13.428,-23.987
0.537,-0.211,-0.99,16.052,11.414,-24.353
0.493,-0.193,-0.919,19.165,14.587,-23.193
0.519,-0.196,-0.97,21.362,12.573,-23.499
0.517,-0.194,-0.923,23.254,13.367,-24.78
0.527,-0.191,-0.914,24.902,10.315,-26.245
0.548,-0.204,-0.825,26.062,5.493,-26.306
0.568,-0.212,-0.837,26.123,-5.066,-25.208
0.498,-0.27,-1.01,24.536,-11.902,-23.682
0.346,-0.215,-0.884,19.775,-2.136,-25.146
0.347,-0.292,-0.887,19.775,4.883,-26.794
0.421,-0.183,-0.947,20.508,9.705,-28.87
0.391,-0.231,-0.912,21.79,21.484,-27.893
0.393,-0.208,-0.866,20.325,28.076,-29.663
0.5,-0.209,-0.868,19.775,27.161,-30.701
0.512,-0.208,-0.85,18.555,23.804,-31.799
0.475,-0.183,-0.897,17.883,18.799,-31.128
0.495,-0.251,-0.915,19.165,16.724,-28.076
0.444,-0.203,-0.876,17.883,15.32,-27.283
0.484,-0.22,-0.94,19.409,11.963,-25.452
0.48,-0.198,-0.919,19.165,13.123,-24.048
0.481,-0.197,-0.906,19.409,13.855,-22.827
0.514,-0.206,-0.899,19.775,11.475,-21.851
0.509,-0.19,-0.896,18.982,7.874,-20.996
0.482,-0.183,-0.89,18.982,4.944,-19.653
0.486,-0.173,-0.885,20.02,2.014,-17.7
0.479,-0.176,-0.881,21.118,-0.244,-15.747
0.475,-0.18,-0.899,21.79,-2.075,-13.977
0.476,-0.209,-0.926,22.156,-1.892,-12.512
0.461,-0.216,-0.93,20.691,0.427,-12.695
0.459,-0.202,-0.93,19.226,3.113,-14.099
0.468,-0.187,-0.929,18.616,5.92,-15.442
0.488,-0.169,-0.921,18.555,7.751,-16.052
0.509,-0.145,-0.915,19.409,8.484,-15.808
0.535,-0.139,-0.909,20.142,8.24,-14.404
0.541,-0.134,-0.901,20.752,7.202,-12.268
0.542,-0.131,-0.895,21.118,5.615,-9.888
0.53,-0.125,-0.89,21.118,3.845,-7.812
0.526,-0.129,-0.894,21.179,2.319,-6.47
0.504,-0.125,-0.888,20.63,1.465,-6.592
1.772,-0.401,0.605,134.521,-29.602,-19.531
1.783,-0.436,0.63,133.728,-35.156,-6.348
1.794,-0.477,0.683,133.728,-40.283,5.554
1.764,-0.512,0.755,132.69,-41.626,19.958
1.706,-0.552,0.847,132.202,-39.368,34.729
1.658,-0.623,0.949,132.629,-33.325,50.781
1.594,-0.746,1.067,128.235,-23.682,70.007
1.528,-0.885,1.203,115.234,-10.803,90.881
1.44,-1.009,1.32,95.337,3.174,111.694
1.338,-1.126,1.393,67.627,18.86,130.188
1.271,-1.211,1.445,30.457,35.889,146.24
1.214,-1.305,1.471,-12.634,54.504,159.546
1.169,-1.383,1.466,-61.584,72.144,170.41
1.169,-1.434,1.432,-112.427,85.754,179.565
1.141,-1.48,1.333,-161.56,93.506,188.599
1.057,-1.503,1.214,-208.618,98.328,198.914
0.961,-1.532,1.089,-249.695,103.394,212.28
0.863,-1.561,0.986,-286.255,111.633,229.553
0.826,-1.606,0.959,-319.092,125.244,250.732
0.786,-1.66,0.911,-349.304,139.343,275.269
0.626,-1.676,0.779,-382.629,150.452,303.04
0.431,-1.676,0.608,-418.518,161.194,330.933
0.22,-1.633,0.43,-451.782,174.194,354.919
0.02,-1.576,0.265,-477.6,191.956,373.291
-0.112,-1.503,0.135,-495.911,212.891,386.536
-0.196,-1.432,0.013,-507.202,233.215,395.447
-0.319,-1.371,-0.108,-512.268,251.587,401.489
-0.419,-1.322,-0.246,-510.437,269.653,403.198
-0.538,-1.223,-0.353,-507.263,288.513,401.489
-0.652,-1.134,-0.404,-501.709,309.875,397.034
-0.684,-1.08,-0.445,-492.737,327.332,388.672
-0.662,-1.066,-0.48,-483.032,334.839,376.343
-0.62,-1.067,-0.519,-471.191,330.017,360.474
-0.586,-1.055,-0.594,-457.52,310.242,340.576
-0.52,-1.0,-0.632,-440.918,276.428,316.589
-0.417,-1.023,-0.65,-421.448,230.713,290.283
-0.345,-1.072,-0.684,-398.315,170.532,261.475
-0.318,-1.043,-0.732,-372.009,98.511,229.98
-0.313,-0.968,-0.796,-340.515,20.996,196.838
-0.316,-0.906,-0.904,-299.805,-52.368,164.429
-0.329,-0.937,-1.033,-254.333,-114.563,133.362
-0.329,-1.023,-1.156,-211.853,-158.264,104.126
-0.302,-1.126,-1.264,-177.429,-181.763,76.599
-0.253,-1.211,-1.378,-152.71,-187.561,50.72
-0.188,-1.257,-1.484,-135.803,-178.162,26.917
-0.127,-1.278,-1.575,-124.207,-156.677,7.08
-0.062,-1.282,-1.66,-116.455,-126.77,-7.324
0.025,-1.253,-1.727,-111.206,-92.102,-16.541
0.138,-1.177,-1.724,-105.408,-57.068,-19.287
0.249,-1.06,-1.666,-98.022,-27.466,-14.832
0.321,-0.968,-1.613,-88.379,-9.766,-4.272
0.338,-0.895,-1.577,-78.125,-2.441,10.498
0.326,-0.804,-1.51,-69.214,-0.977,28.32
0.315,-0.695,-1.438,-60.12,-5.188,45.349
0.29,-0.622,-1.399,-48.828,-16.296,58.411
0.23,-0.58,-1.377,-36.011,-29.968,65.796
0.143,-0.534,-1.348,-22.888,-41.626,66.467
0.059,-0.502,-1.318,-10.01,-48.584,61.279
-0.005,-0.494,-1.296,2.075,-50.049,51.392
-0.05,-0.492,-1.28,11.963,-45.715,38.086
-0.077,-0.473,-1.265,19.165,-36.865,22.034
-0.074,-0.447,-1.236,24.597,-23.743,5.188
-0.031,-0.42,-1.199,28.625,-9.094,-10.742
0.034,-0.397,-1.158,31.616,3.967,-25.635
0.125,-0.375,-1.119,33.691,15.015,-37.842
0.214,-0.351,-1.1,34.79,21.545,-46.631
0.286,-0.323,-1.083,35.583,24.414,-52.734
0.36,-0.298,-1.054,36.438,24.597,-55.481
0.435,-0.265,-1.03,36.987,21.484,-55.176
0.485,-0.236,-1.008,37.72,15.442,-52.917
0.503,-0.224,-0.996,37.781,7.996,-48.34
0.504,-0.218,-0.985,37.476,0.0,-42.175
0.487,-0.218,-0.987,36.56,-7.446,-35.767
0.458,-0.236,-0.999,35.339,-12.39,-29.114
0.433,-0.244,-1.01,33.264,-14.099,-22.949
0.4,-0.241,-1.025,30.09,-13.55,-18.372
0.377,-0.234,-1.025,26.672,-9.277,-15.93
0.351,-0.231,-0.937,23.987,-3.906,-15.808
0.37,-0.263,-0.634,20.996,-9.399,-17.822
0.701,-0.155,-1.415,17.639,-34.424,-22.034
0.368,-0.261,-1.105,15.503,-1.343,-19.531
0.178,-0.127,-0.911,11.78,21.973,-21.24
0.448,-0.236,-1.132,19.531,18.982,-23.804
0.461,-0.267,-1.005,22.766,29.968,-26.062
0.471,-0.06,-0.906,21.667,31.433,-29.602
0.567,-0.376,-0.911,30.396,25.024,-24.231
0.528,0.214,-1.137,27.588,5.798,-29.968
0.58,-0.272,-0.604,39.429,6.47,-17.334
0.54,-0.315,-1.305,40.039,-32.288,-22.522
0.347,-0.277,-0.996,34.424,-15.32,-24.536
0.322,-0.139,-0.929,31.799,-4.272,-28.259
0.396,-0.188,-1.033,40.1,-6.104,-29.724
0.414,-0.28,-0.99,43.762,2.319,-29.114
0.432,-0.164,-0.928,40.222,9.033,-32.898
0.516,-0.2,-0.94,42.603,8.667,-31.067
0.533,-0.155,-0.897,43.274,2.563,-30.396
0.545,-0.181,-0.898,44.128,-5.554,-27.954
0.562,-0.136,-0.849,43.518,-14.16,-26.489
0.564,-0.13,-0.797,44.067,-26.123,-23.193
0.523,-0.223,-0.788,42.908,-41.504,-20.63
0.492,-0.169,-1.028,35.889,-51.636,-21.973
0.446,-0.068,-1.01,32.227,-34.729,-19.104
0.299,-0.165,-0.929,34.485,-12.634,-16.235
0.303,-0.011,-0.911,32.898,-3.296,-19.653
0.492,-0.173,-0.902,39.124,11.353,-15.015
0.409,-0.112,-0.786,36.133,21.912,-16.541
0.556,-0.074,-0.882,33.752,18.311,-16.541
0.565,-0.139,-0.854,33.325,18.433,-12.085
0.506,-0.127,-0.814,28.625,14.221,-10.376
0.518,-0.089,-0.835,25.269,4.7,-9.521
0.529,-0.115,-0.863,23.437,-2.991,-7.019
0.449,-0.093,-0.831,20.691,-6.47,-5.737
0.462,-0.104,-0.833,18.86,-10.071,-4.639
0.465,-0.095,-0.832,17.029,-13.733,-5.493
0.441,-0.101,-0.837,14.832,-15.564,-7.019
0.413,-0.062,-0.82,13.123,-16.602,-8.545
0.412,-0.064,-0.827,14.16,-18.005,-7.141
0.41,-0.078,-0.822,15.442,-18.616,-4.639
0.404,-0.061,-0.784,16.357,-18.555,-3.052
1.426,-0.233,0.931,112.793,-35.217,-27.405
1.435,-0.236,0.974,108.276,-36.072,-20.264
1.435,-0.239,1.015,102.905,-35.156,-13.733
1.395,-0.263,1.05,96.863,-32.043,-7.019
1.336,-0.293,1.087,89.294,-24.475,-1.709
1.277,-0.315,1.126,79.529,-10.803,4.211
1.218,-0.343,1.168,66.772,9.705,11.108
1.203,-0.376,1.241,51.331,37.109,18.433
1.232,-0.398,1.324,33.997,66.162,26.184
1.25,-0.398,1.404,16.174,91.797,33.63
1.272,-0.435,1.491,-0.732,115.54,41.809
1.323,-0.503,1.575,-19.104,136.353,51.025
1.379,-0.574,1.656,-42.419,152.222,62.134
1.41,-0.665,1.713,-71.228,159.424,75.378
1.377,-0.734,1.719,-107.361,158.264,90.881
1.317,-0.785,1.699,-147.583,152.893,107.483
1.242,-0.832,1.629,-190.308,147.034,123.474
1.086,-0.879,1.518,-231.873,143.25,136.169
0.919,-0.934,1.377,-269.165,147.949,145.996
0.838,-0.973,1.24,-303.528,162.048,154.175
0.794,-0.962,1.111,-335.327,180.542,161.743
0.729,-0.953,0.975,-360.901,200.623,170.776
0.674,-0.963,0.832,-381.958,222.473,180.237
0.586,-0.963,0.648,-400.94,245.056,191.528
0.503,-0.928,0.485,-417.053,269.287,205.078
0.417,-0.885,0.336,-426.697,294.617,217.773
0.35,-0.803,0.204,-430.481,321.289,228.882
0.3,-0.718,0.102,-428.467,348.328,239.99
0.21,-0.683,0.019,-421.936,372.742,250.793
0.062,-0.722,-0.077,-414.062,394.043,260.62
-0.083,-0.728,-0.151,-409.485,411.682,266.663
-0.131,-0.655,-0.13,-405.823,423.157,271.606
-0.139,-0.548,-0.111,-396.851,420.349,280.884
-0.012,-0.595,-0.047,-380.066,403.076,293.03
-0.083,-0.772,0.037,-361.511,364.502,296.326
-0.198,-0.819,-0.042,-344.849,303.284,283.752
-0.195,-0.834,-0.129,-325.5,240.601,261.658
-0.209,-0.882,-0.218,-303.284,178.894,234.619
-0.359,-0.943,-0.381,-281.128,117.188,199.707
-0.548,-1.107,-0.638,-259.827,66.711,160.889
-0.659,-1.25,-0.871,-243.591,38.94,124.329
-0.634,-1.276,-0.975,-231.384,28.992,94.91
-0.507,-1.284,-1.045,-219.727,21.606,76.05
-0.407,-1.352,-1.171,-209.717,10.132,63.599
-0.295,-1.364,-1.288,-202.637,-4.395,55.115
-0.167,-1.291,-1.365,-196.045,-22.827,49.805
-0.047,-1.224,-1.399,-183.838,-45.288,45.471
0.046,-1.191,-1.445,-167.542,-69.946,40.833
0.094,-1.167,-1.511,-150.085,-92.896,34.912
0.11,-1.099,-1.576,-131.897,-108.704,28.259
0.108,-0.995,-1.6,-112.549,-115.051,22.705
0.106,-0.886,-1.583,-92.102,-111.511,19.043
0.094,-0.791,-1.546,-71.594,-100.83,16.541
0.043,-0.752,-1.536,-53.772,-84.961,15.991
0.002,-0.708,-1.514,-40.1,-63.782,16.907
-0.002,-0.652,-1.459,-29.663,-40.1,18.86
0.013,-0.64,-1.401,-20.569,-19.165,21.423
0.046,-0.63,-1.349,-14.16,-4.089,22.583
0.094,-0.582,-1.299,-10.193,5.127,20.752
0.146,-0.501,-1.251,-6.836,9.766,16.418
0.173,-0.446,-1.206,-2.258,10.254,9.827
0.182,-0.396,-1.155,2.319,8.728,1.526
0.185,-0.376,-1.094,6.836,6.531,-6.104
0.189,-0.371,-1.059,10.681,3.479,-13.184
0.202,-0.367,-1.034,13.123,1.038,-19.348
0.24,-0.352,-1.021,14.099,0.061,-24.292
0.28,-0.332,-1.017,14.404,-0.61,-28.259
0.324,-0.314,-1.014,13.977,-0.671,-31.494
0.375,-0.286,-1.007,13.123,-0.244,-33.875
0.421,-0.259,-1.003,12.451,0.244,-35.889
0.452,-0.244,-0.991,12.878,1.16,-36.987
0.471,-0.247,-0.973,13.489,2.38,-36.499
0.487,-0.246,-0.938,13.672,3.54,-35.095
0.488,-0.236,-0.854,13.062,2.686,-32.349
0.508,-0.233,-0.767,11.902,-4.944,-27.344
0.639,-0.327,-0.991,10.071,-17.517,-20.874
0.514,-0.341,-1.046,3.113,-11.353,-16.357
0.331,-0.266,-0.857,-5.127,3.113,-13.733
0.456,-0.268,-1.029,-6.714,-0.061,-13.0
0.46,-0.31,-1.026,-6.226,4.944,-12.085
0.414,-0.255,-0.907,-7.263,13.062,-12.939
0.498,-0.319,-1.01,-4.761,9.216,-14.16
0.48,-0.334,-1.015,-5.188,7.996,-18.311
0.449,-0.278,-0.913,-6.653,8.484,-23.254
0.627,-0.297,-1.058,-4.089,1.892,-26.184
0.524,-0.28,-0.99,-1.953,3.723,-28.137
0.437,-0.233,-0.898,1.709,1.465,-27.649
0.574,-0.243,-0.972,8.362,-8.972,-24.475
0.533,-0.201,-0.863,14.099,-11.78,-18.311
0.51,-0.187,-0.79,18.066,-17.456,-13.489
0.654,-0.37,-1.079,21.362,-26.917,-8.545
0.356,-0.37,-0.875,18.555,-17.456,-7.385
0.361,-0.263,-0.892,14.343,-17.639,-10.803
0.515,-0.334,-0.927,15.686,-20.63,-12.756
0.463,-0.308,-0.969,12.512,-15.076,-17.212
0.351,-0.31,-0.868,10.376,-3.784,-19.531
0.485,-0.202,-0.899,9.827,-0.427,-20.447
0.532,-0.412,-0.907,11.597,4.822,-15.991
0.446,-0.23,-0.8,7.08,5.188,-17.639
0.539,-0.326,-0.97,9.46,-1.221,-11.536
0.482,-0.298,-0.893,8.728,2.93,-6.714
0.467,-0.284,-0.891,9.216,2.93,-3.235
0.509,-0.305,-0.922,9.888,0.244,-0.977
0.478,-0.297,-0.913,9.155,-0.061,-0.305
0.451,-0.294,-0.91,9.399,-0.854,-0.732
0.465,-0.29,-0.919,10.864,-1.404,-2.197
0.458,-0.305,-0.919,12.024,-0.488,-2.808
0.45,-0.309,-0.896,11.963,0.671,-3.296
0.467,-0.301,-0.89,11.353,-0.183,-3.662
0.487,-0.303,-0.888,10.681,-1.831,-3.296
0.457,-0.289,-0.867,10.071,-3.845,-2.563
0.448,-0.287,-0.876,10.071,-6.836,-1.099
0.441,-0.304,-0.909,10.132,-8.484,0.488
0.429,-0.302,-0.883,9.766,-6.897,0.366
0.422,-0.273,-0.864,9.094,-6.47,-0.305
0.446,-0.303,-0.88,9.766,-7.935,0.366
0.44,-0.313,-0.88,8.911,-8.606,0.183
0.428,-0.306,-0.891,7.568,-9.033,-0.61
0.42,-0.314,-0.896,6.897,-8.667,-1.099
1.598,0.161,1.123,80.566,65.674,-5.066
1.71,0.09,1.339,87.036,56.702,3.845
1.832,0.003,1.638,88.867,50.11,19.104
1.904,-0.164,1.949,82.886,44.678,42.786
1.958,-0.395,2.231,64.636,36.743,66.895
1.885,-0.606,2.456,30.823,27.649,88.684
1.66,-0.823,2.679,-18.921,29.48,113.159
1.488,-1.096,2.922,-82.947,50.293,134.949
1.388,-1.41,3.017,-164.246,84.29,148.743
1.352,-1.603,2.821,-262.695,121.948,155.09
1.368,-1.668,2.458,-362.244,158.875,161.865
1.264,-1.625,2.024,-449.707,191.65,172.791
1.164,-1.589,1.587,-514.893,225.098,188.66
1.134,-1.616,1.107,-560.608,257.019,210.876
1.076,-1.669,0.571,-595.093,285.095,236.877
0.85,-1.65,0.06,-619.263,312.256,263.855
0.513,-1.488,-0.293,-624.939,343.811,292.969
0.177,-1.277,-0.457,-608.521,380.859,323.12
-0.063,-1.199,-0.527,-574.219,418.274,349.548
-0.187,-1.142,-0.478,-531.433,446.96,370.85
-0.147,-1.047,-0.279,-485.291,453.735,386.536
0.015,-0.945,-0.004,-437.195,423.157,394.897
0.124,-0.965,0.192,-389.832,354.248,393.066
0.017,-1.078,0.242,-345.459,257.812,375.916
-0.312,-1.254,0.172,-306.152,152.588,338.379
-0.622,-1.26,-0.083,-269.165,56.702,288.025
-0.991,-1.494,-0.314,-233.643,-6.104,242.981
-1.253,-1.633,-0.556,-212.158,-36.499,194.031
-1.289,-1.771,-0.744,-202.454,-38.33,148.01
-1.17,-1.92,-0.913,-202.759,-22.949,108.887
-1.004,-2.022,-1.102,-213.684,-3.54,74.585
-0.76,-2.056,-1.293,-230.713,13.794,47.791
-0.428,-1.961,-1.415,-249.146,20.142,29.541
-0.092,-1.763,-1.485,-260.742,8.423,18.799
0.191,-1.552,-1.521,-260.132,-19.409,14.16
0.354,-1.321,-1.6,-246.704,-58.533,11.597
0.436,-1.127,-1.65,-218.567,-98.572,11.536
0.434,-1.077,-1.657,-180.054,-127.991,15.381
0.345,-1.108,-1.686,-143.311,-143.494,22.461
0.2,-1.08,-1.654,-113.281,-143.188,32.654
0.069,-1.0,-1.578,-88.379,-130.493,45.715
-0.024,-0.955,-1.522,-68.176,-110.535,60.608
-0.092,-0.942,-1.498,-53.223,-85.205,74.219
-0.144,-0.912,-1.471,-43.884,-57.922,83.313
-0.16,-0.814,-1.433,-38.33,-34.729,86.06
-0.159,-0.709,-1.383,-32.654,-18.555,82.214
-0.124,-0.632,-1.349,-26.428,-9.644,72.449
-0.095,-0.592,-1.342,-20.386,-5.92,57.495
-0.085,-0.558,-1.349,-14.282,-3.479,37.231
-0.067,-0.514,-1.318,-7.568,-0.427,13.306
-0.035,-0.473,-1.256,0.061,2.075,-10.742
0.02,-0.454,-1.19,8.057,2.563,-32.349
0.093,-0.419,-1.138,14.954,1.099,-49.011
0.184,-0.364,-1.099,20.996,-0.977,-60.12
0.277,-0.311,-1.065,27.832,-4.089,-66.345
0.354,-0.273,-1.045,34.912,-7.996,-68.909
0.408,-0.246,-1.044,40.955,-12.268,-69.092
0.438,-0.234,-1.047,46.143,-14.832,-67.322
0.465,-0.239,-1.035,50.476,-13.794,-62.683
0.482,-0.255,-1.017,52.49,-11.23,-56.519
0.473,-0.267,-1.007,51.636,-8.118,-49.561
0.458,-0.271,-0.999,48.401,-4.15,-42.175
0.448,-0.267,-0.991,43.091,-0.671,-34.363
0.434,-0.251,-1.0,36.743,2.136,-27.222
0.418,-0.232,-1.005,30.151,5.432,-21.545
0.402,-0.205,-0.999,24.475,9.46,-17.456
0.385,-0.2,-0.987,20.02,12.939,-15.259
0.368,-0.215,-0.979,16.418,15.869,-14.587
0.372,-0.224,-0.973,13.245,17.395,-15.442
0.387,-0.24,-0.963,11.108,16.541,-17.761
0.408,-0.247,-0.969,9.094,13.489,-21.301
0.41,-0.247,-0.986,8.057,9.46,-25.635
0.404,-0.237,-1.0,8.85,6.104,-28.87
0.432,-0.21,-1.0,10.986,4.7,-31.372
0.461,-0.204,-0.997,14.648,4.028,-33.02
0.48,-0.211,-0.989,18.433,3.235,-33.081
0.492,-0.217,-0.977,20.752,2.075,-32.043
0.488,-0.227,-0.967,23.071,0.0,-29.968
0.485,-0.245,-0.94,25.146,-2.441,-27.1
0.496,-0.276,-0.89,25.696,-7.385,-24.475
0.481,-0.333,-0.834,23.56,-17.151,-23.987
0.46,-0.296,-0.886,17.944,-32.532,-27.039
0.551,-0.234,-0.997,16.174,-39.307,-25.391
0.385,-0.296,-0.911,19.592,-30.273,-21.24
0.392,-0.249,-0.987,17.09,-29.419,-26.245
0.434,-0.131,-0.998,18.494,-21.301,-29.358
0.448,-0.107,-0.684,25.879,-6.714,-26.306
0.528,0.025,-0.712,36.987,-19.531,-19.226
0.458,-0.406,-1.276,50.171,-33.508,-8.423
0.213,-0.475,-1.011,35.217,-3.357,-13.977
0.31,-0.131,-0.995,18.311,19.531,-26.062
0.383,-0.194,-0.835,22.339,39.185,-26.184
0.263,-0.175,-0.868,25.33,35.645,-25.696
0.647,-0.277,-0.821,23.987,30.762,-24.292
0.752,-0.195,-0.993,18.982,25.391,-24.78
0.4,-0.17,-0.786,14.648,26.184,-20.386
0.532,-0.159,-0.902,14.343,6.348,-17.517
0.549,-0.162,-0.919,17.639,-5.859,-14.648
0.431,-0.203,-0.894,18.86,-13.245,-13.0
0.441,-0.184,-0.943,19.226,-20.203,-13.489
0.466,-0.186,-0.979,20.508,-22.278,-13.977
0.407,-0.21,-0.976,21.118,-18.127,-14.954
0.421,-0.184,-0.968,21.606,-13.733,-17.212
0.43,-0.187,-0.967,23.56,-9.705,-17.822
0.448,-0.175,-0.991,24.78,-7.202,-18.005
0.433,-0.189,-0.974,25.513,-2.38,-16.846
0.45,-0.181,-0.988,25.208,-0.305,-16.541
0.463,-0.168,-0.997,25.269,0.671,-15.747
0.45,-0.164,-0.986,26.245,2.014,-13.672
0.461,-0.182,-0.974,27.344,1.77,-11.353
0.472,-0.18,-0.978,27.405,-0.793,-10.193
0.455,-0.185,-0.981,26.367,-2.563,-8.85
0.446,-0.185,-0.987,25.269,-3.662,-7.935
0.439,-0.167,-0.98,24.292,-3.906,-7.629
0.428,-0.156,-0.974,23.865,-3.601,-7.202
0.428,-0.142,-0.967,23.743,-3.052,-6.958
0.428,-0.133,-0.956,24.048,-2.747,-6.775
0.433,-0.125,-0.945,24.231,-2.808,-6.348
0.435,-0.119,-0.937,24.414,-3.54,-5.615
1.549,-0.068,1.503,46.204,38.635,51.697
1.707,-0.171,1.936,55.481,29.846,68.298
1.808,-0.45,2.314,57.434,6.409,90.881
1.794,-0.851,2.593,33.875,-32.532,111.572
1.629,-1.285,2.738,-18.799,-75.5,121.704
1.354,-1.66,2.679,-100.037,-108.521,118.469
1.118,-1.788,2.439,-203.918,-119.812,103.027
0.933,-1.738,2.125,-308.472,-107.727,88.074
0.684,-1.744,1.8,-397.949,-76.477,82.52
0.555,-1.801,1.523,-468.323,-28.564,79.834
0.575,-1.847,1.243,-524.292,26.855,80.383
0.501,-1.866,0.882,-573.303,85.754,86.304
0.4,-1.827,0.549,-616.028,146.729,98.328
0.349,-1.675,0.244,-644.958,201.904,114.319
0.339,-1.506,0.021,-660.583,243.713,135.437
0.305,-1.416,-0.137,-660.217,269.043,159.424
0.201,-1.357,-0.26,-649.78,281.25,183.655
0.028,-1.299,-0.363,-633.606,283.02,204.712
-0.136,-1.227,-0.462,-612.915,280.273,218.079
-0.263,-1.241,-0.564,-588.257,277.283,223.083
-0.391,-1.305,-0.684,-561.401,274.231,222.351
-0.486,-1.363,-0.724,-537.598,271.729,216.736
-0.404,-1.442,-0.751,-518.494,264.832,206.848
-0.189,-1.681,-0.908,-500.732,249.573,192.383
-0.134,-1.874,-1.231,-484.009,225.159,170.41
-0.168,-1.777,-1.532,-464.661,192.688,141.418
-0.065,-1.536,-1.611,-435.547,158.63,113.037
0.126,-1.427,-1.569,-388.733,122.314,92.529
0.288,-1.354,-1.461,-331.543,78.247,77.454
0.435,-1.341,-1.285,-274.292,24.536,66.101
0.489,-1.368,-1.215,-220.215,-34.973,60.73
0.449,-1.375,-1.271,-170.898,-94.849,54.504
0.427,-1.351,-1.351,-127.502,-139.465,45.532
0.44,-1.367,-1.426,-88.623,-162.476,37.109
0.457,-1.428,-1.437,-58.96,-164.673,33.142
0.477,-1.425,-1.414,-43.03,-154.602,34.973
0.466,-1.335,-1.423,-37.17,-141.541,39.917
0.409,-1.192,-1.446,-35.767,-126.221,43.213
0.363,-1.03,-1.443,-34.607,-105.835,43.945
0.333,-0.877,-1.402,-32.349,-81.482,43.03
0.291,-0.75,-1.328,-27.954,-56.763,39.673
0.266,-0.642,-1.232,-22.827,-34.851,33.203
0.256,-0.546,-1.144,-16.846,-17.578,24.658
0.255,-0.471,-1.072,-9.705,-6.226,15.808
0.256,-0.428,-1.012,-1.404,-0.916,7.385
0.25,-0.413,-0.973,6.531,1.404,-0.488
0.257,-0.406,-0.938,13.245,2.441,-7.324
0.284,-0.398,-0.894,17.517,2.014,-13.489
0.327,-0.391,-0.844,19.653,-0.61,-19.104
0.373,-0.388,-0.809,19.714,-5.249,-24.17
0.419,-0.376,-0.798,17.456,-11.23,-28.198
0.475,-0.344,-0.79,13.611,-18.311,-31.372
0.511,-0.302,-0.792,9.766,-24.536,-33.936
0.513,-0.276,-0.806,6.531,-27.283,-35.95
0.524,-0.255,-0.823,4.028,-24.597,-37.598
0.537,-0.236,-0.829,2.136,-16.724,-38.452
0.564,-0.222,-0.818,0.854,-6.226,-37.903
0.609,-0.209,-0.794,-0.671,5.188,-36.377
0.651,-0.194,-0.773,-2.502,14.587,-34.18
0.674,-0.194,-0.758,-5.005,20.569,-31.433
0.69,-0.203,-0.743,-7.263,22.583,-28.198
0.7,-0.215,-0.737,-10.193,19.47,-25.208
0.706,-0.197,-0.77,-13.489,13.489,-23.865
0.679,-0.201,-0.812,-15.076,9.888,-22.4
0.643,-0.195,-0.802,-14.465,9.399,-21.484
0.626,-0.203,-0.777,-12.939,7.507,-22.156
0.682,-0.223,-0.786,-11.108,2.38,-24.231
0.709,-0.249,-0.886,-9.766,-1.282,-25.879
0.646,-0.243,-0.861,-10.437,3.174,-27.527
0.644,-0.218,-0.863,-9.827,7.202,-28.198
0.7,-0.234,-0.882,-5.432,9.949,-27.344
0.72,-0.231,-0.838,-3.479,13.794,-27.222
0.737,-0.23,-0.867,-0.793,13.306,-27.039
0.74,-0.255,-0.858,1.343,13.062,-26.428
0.739,-0.249,-0.834,2.136,12.39,-26.245
0.737,-0.25,-0.827,3.418,9.644,-25.94
0.734,-0.266,-0.837,4.517,6.775,-24.963
0.715,-0.258,-0.826,5.005,5.127,-23.682
0.703,-0.263,-0.798,6.042,3.662,-21.79
0.718,-0.283,-0.807,6.958,1.038,-19.653
0.711,-0.297,-0.812,7.019,-0.916,-18.127
0.666,-0.288,-0.814,6.104,-1.526,-17.395
0.642,-0.285,-0.831,5.859,-1.099,-17.212
0.635,-0.285,-0.828,6.409,1.526,-17.944
0.622,-0.288,-0.828,7.263,5.249,-18.372
0.615,-0.301,-0.813,8.545,8.667,-18.311
0.636,-0.303,-0.809,9.155,10.01,-17.7
0.653,-0.318,-0.802,10.132,10.498,-15.625
0.661,-0.315,-0.791,9.399,9.827,-12.634
0.658,-0.308,-0.805,8.362,6.897,-9.644
0.647,-0.288,-0.82,8.301,3.662,-7.812
0.639,-0.283,-0.839,9.399,2.136,-7.202
0.624,-0.296,-0.851,11.169,2.319,-7.141
0.617,-0.3,-0.859,13.0,3.113,-7.751
0.612,-0.318,-0.863,14.465,4.578,-7.874
0.614,-0.334,-0.871,15.259,5.493,-7.446
0.611,-0.327,-0.891,16.174,5.31,-6.409
0.609,-0.311,-0.913,18.127,4.333,-5.066
0.613,-0.309,-0.946,22.156,2.38,-4.272
0.618,-0.293,-0.962,27.771,0.427,-5.066
0.631,-0.289,-0.969,34.18,-1.404,-6.165
0.642,-0.3,-0.971,40.771,-3.418,-7.019
0.652,-0.323,-0.978,46.448,-5.798,-7.08
0.661,-0.344,-0.991,51.27,-9.094,-5.737
0.647,-0.353,-1.004,54.688,-13.0,-3.845
0.635,-0.38,-1.021,58.228,-16.357,-2.502
0.629,-0.396,-1.044,60.547,-18.25,-0.977
0.627,-0.386,-1.063,62.195,-18.982,0.305
0.632,-0.381,-1.088,64.819,-19.165,1.038
0.649,-0.365,-1.097,69.336,-18.921,1.892
0.667,-0.311,-1.07,75.378,-20.447,2.747
0.68,-0.291,-1.042,83.557,-24.963,4.456
0.67,-0.295,-1.024,91.919,-31.799,6.531
0.649,-0.291,-1.008,99.731,-40.222,8.423
0.609,-0.247,-0.956,107.117,-49.561,10.071
0.645,-0.274,-0.965,115.356,-59.937,12.634
0.738,-0.319,-0.989,121.704,-70.435,12.878
0.716,-0.277,-1.019,124.207,-77.576,10.864
0.667,-0.283,-0.978,124.146,-78.613,8.362
1.565,-0.362,1.236,172.852,45.593,-36.011
1.714,-0.546,1.516,174.683,48.157,-21.973
1.801,-0.761,1.766,161.56,41.931,-0.549
1.813,-1.02,1.927,130.188,24.902,22.583
1.796,-1.278,2.038,79.895,3.601,41.87
1.824,-1.51,2.219,13.916,-15.686,58.777
1.778,-1.757,2.394,-65.186,-34.912,72.998
1.704,-1.95,2.413,-157.166,-57.861,79.102
1.63,-2.073,2.339,-252.38,-78.674,79.468
1.497,-2.168,2.15,-342.163,-91.736,80.933
1.207,-2.183,1.799,-425.537,-95.459,86.975
0.966,-2.207,1.394,-497.498,-84.778,96.497
0.907,-2.237,1.066,-558.105,-59.814,110.474
0.905,-2.286,0.766,-609.802,-29.785,128.113
0.917,-2.341,0.497,-654.785,-3.601,147.583
0.868,-2.397,0.193,-691.284,15.015,164.429
0.868,-2.359,-0.023,-720.154,27.039,177.673
0.914,-2.307,-0.14,-736.084,33.447,189.392
0.861,-2.281,-0.288,-742.126,34.668,199.768
0.744,-2.292,-0.452,-742.31,35.095,209.473
0.637,-2.264,-0.57,-737.915,38.452,217.163
0.608,-2.183,-0.639,-728.699,42.48,220.642
0.651,-2.186,-0.672,-715.698,42.786,223.083
0.747,-2.063,-0.715,-704.712,36.743,223.022
0.757,-2.107,-0.762,-692.2,23.437,223.816
0.71,-2.177,-0.875,-675.598,4.15,217.773
0.75,-2.172,-0.935,-657.593,-15.259,205.75
0.756,-2.113,-1.013,-640.137,-35.217,186.646
0.721,-2.019,-1.157,-619.324,-54.077,157.471
0.651,-1.831,-1.27,-594.604,-66.956,123.535
0.507,-1.644,-1.355,-560.852,-71.228,88.257
0.458,-1.527,-1.4,-517.456,-63.232,52.49
0.503,-1.413,-1.367,-468.994,-45.837,22.949
0.598,-1.286,-1.3,-415.283,-28.625,-0.183
0.736,-1.187,-1.155,-355.225,-15.564,-21.423
0.904,-1.24,-0.994,-293.701,-9.949,-36.865
1.027,-1.256,-0.885,-240.173,-13.184,-43.03
1.105,-1.303,-0.847,-195.923,-20.386,-43.518
1.202,-1.269,-0.828,-160.4,-26.733,-38.147
1.224,-1.189,-0.824,-132.08,-33.203,-28.931
1.245,-1.129,-0.826,-107.605,-38.391,-18.311
1.248,-1.095,-0.807,-89.111,-40.344,-6.409
1.168,-1.023,-0.838,-75.562,-41.077,5.737
1.065,-0.942,-0.849,-63.416,-41.626,16.846
0.97,-0.904,-0.845,-50.598,-40.649,25.818
0.884,-0.887,-0.852,-38.33,-39.978,33.691
0.814,-0.807,-0.869,-26.794,-42.542,38.879
0.738,-0.737,-0.884,-14.282,-47.119,40.649
0.678,-0.661,-0.894,-0.793,-50.354,39.246
0.654,-0.609,-0.868,12.817,-52.063,34.424
0.667,-0.567,-0.827,25.33,-50.964,28.137
0.678,-0.534,-0.794,35.4,-48.767,21.545
0.712,-0.515,-0.749,42.542,-45.105,14.343
0.763,-0.502,-0.716,46.448,-39.185,8.179
0.784,-0.479,-0.691,48.096,-32.776,3.052
0.817,-0.46,-0.663,47.241,-25.574,-1.648
0.859,-0.437,-0.617,44.25,-18.311,-4.883
0.898,-0.415,-0.571,39.429,-12.451,-7.568
0.94,-0.384,-0.538,33.997,-9.705,-9.094
0.967,-0.343,-0.516,28.687,-9.583,-8.545
0.976,-0.3,-0.523,24.109,-11.78,-6.348
0.957,-0.235,-0.536,22.217,-15.137,-3.601
0.961,-0.182,-0.54,22.705,-16.235,-1.038
0.973,-0.157,-0.52,25.208,-16.479,2.197
0.971,-0.163,-0.496,28.809,-17.578,5.005
0.974,-0.18,-0.47,31.921,-19.409,7.69
0.981,-0.194,-0.455,34.485,-22.034,10.132
0.98,-0.21,-0.446,36.194,-25.33,12.085
0.987,-0.208,-0.437,36.804,-28.32,13.672
0.955,-0.197,-0.436,36.682,-30.457,13.916
0.93,-0.192,-0.441,36.743,-29.053,12.451
0.941,-0.178,-0.426,36.316,-23.865,9.766
0.942,-0.176,-0.408,35.706,-17.334,6.714
0.955,-0.175,-0.389,34.729,-11.292,3.418
0.981,-0.167,-0.366,32.715,-7.08,0.671
1.001,-0.164,-0.342,30.945,-5.127,-0.793
1.0,-0.151,-0.327,28.931,-5.981,-1.038
0.955,-0.169,-0.302,27.771,-8.606,-0.61
0.831,-0.23,-0.32,25.635,-12.146,-1.77
0.567,-0.339,-0.326,20.874,-9.705,-7.263
1.315,0.062,-0.445,15.442,7.507,-15.564
1.151,-0.112,-0.192,25.513,29.297,-3.113
1.02,-0.174,-0.05,29.663,1.709,2.747
1.09,-0.05,-0.439,32.104,-27.1,8.484
1.136,-0.11,-0.411,37.781,-20.264,19.409
0.934,0.068,-0.359,37.231,-16.174,22.522
1.057,-0.277,-0.44,47.241,-19.287,29.297
0.929,-0.116,-0.339,45.715,-15.381,27.405
1.123,-0.354,-0.468,47.852,-16.357,25.024
0.822,-0.161,-0.377,44.373,-14.648,15.808
0.947,-0.319,-0.452,48.279,-11.841,17.151
0.982,-0.291,-0.411,47.913,-7.751,10.193
0.911,-0.271,-0.421,47.241,-6.165,5.005
0.986,-0.183,-0.446,48.95,-7.996,3.235
0.866,-0.279,-0.508,54.443,-7.812,5.676
1.006,-0.146,-0.434,59.143,-4.272,4.272
0.953,-0.203,-0.443,65.796,-2.441,4.272
1.029,-0.149,-0.421,70.557,-2.991,3.784
1.012,-0.202,-0.422,75.806,-4.456,6.531
0.982,-0.254,-0.447,79.712,-7.568,9.338
1.029,-0.237,-0.389,80.566,-8.179,10.925
1.018,-0.273,-0.43,82.642,-11.963,15.32
0.957,-0.283,-0.458,84.045,-17.212,18.25
0.895,-0.299,-0.512,86.731,-18.799,19.226
0.84,-0.325,-0.556,91.919,-16.113,16.724
0.876,-0.256,-0.547,98.511,-9.155,10.071
0.914,-0.243,-0.538,106.506,-1.282,2.014
0.94,-0.223,-0.522,114.075,5.676,-6.592
0.935,-0.201,-0.5,120.85,12.817,-12.268
0.989,-0.239,-0.501,126.892,19.287,-13.672
1.046,-0.241,-0.447,131.042,23.926,-14.404
1.007,-0.193,-0.437,134.46,22.217,-13.123
1.037,-0.25,-0.46,140.076,16.296,-6.714
1.017,-0.213,-0.489,144.897,7.812,-3.174
0.979,-0.145,-0.474,151.123,2.441,-0.977
0.993,-0.134,-0.449,159.485,0.122,1.038
1.043,-0.141,-0.447,169.067,-0.793,0.183
1.032,-0.112,-0.443,175.903,-0.244,-3.845
0.961,-0.046,-0.394,179.932,1.587,-8.301
1.401,-0.441,1.729,52.673,11.719,22.4
1.452,-0.571,1.921,6.653,-6.104,36.865
1.408,-0.699,2.025,-45.715,-27.161,49.561
1.325,-0.826,2.067,-101.563,-46.448,57.983
1.245,-0.895,2.067,-156.25,-58.96,60.974
1.189,-0.925,2.092,-204.224,-62.195,59.326
1.102,-1.036,2.052,-243.774,-58.716,53.833
1.006,-1.183,1.917,-284.973,-47.729,46.387
0.944,-1.272,1.734,-329.59,-28.809,41.077
1.0,-1.302,1.583,-371.277,-5.31,39.185
1.057,-1.385,1.398,-407.41,15.198,41.809
1.083,-1.494,1.169,-443.726,29.053,49.011
1.062,-1.573,0.902,-480.896,35.828,59.998
1.011,-1.614,0.633,-514.16,37.964,70.374
0.979,-1.604,0.398,-542.419,38.269,79.956
0.958,-1.557,0.225,-562.866,38.513,89.05
0.94,-1.567,0.082,-576.721,37.231,100.037
0.87,-1.627,-0.067,-586.853,32.166,111.389
0.737,-1.722,-0.262,-595.825,24.597,119.507
0.636,-1.842,-0.479,-605.347,20.447,122.925
0.693,-1.983,-0.666,-614.136,20.508,124.268
0.766,-2.106,-0.867,-621.948,18.921,122.681
0.848,-2.171,-1.084,-626.465,16.113,114.38
1.003,-2.1,-1.198,-627.014,6.653,104.919
1.115,-1.984,-1.191,-620.728,-13.55,95.947
1.178,-1.834,-1.169,-604.187,-41.931,83.313
1.207,-1.63,-1.155,-575.439,-74.341,65.796
1.101,-1.32,-1.126,-531.86,-97.656,45.715
0.954,-1.166,-1.075,-474.854,-101.868,28.931
0.87,-1.0,-0.997,-411.987,-93.201,20.813
0.881,-0.921,-0.884,-346.68,-77.332,16.846
0.96,-0.993,-0.756,-283.447,-58.96,18.433
1.041,-1.048,-0.68,-230.286,-46.753,23.804
1.103,-1.111,-0.618,-186.035,-45.349,30.151
1.13,-1.185,-0.574,-151.733,-50.659,38.086
1.118,-1.196,-0.564,-128.479,-60.791,44.739
1.062,-1.16,-0.57,-111.45,-71.838,48.096
0.98,-1.082,-0.594,-98.206,-80.139,48.523
0.902,-1.016,-0.606,-88.013,-80.75,46.814
0.834,-0.916,-0.64,-80.872,-73.303,42.48
0.795,-0.784,-0.68,-73.181,-61.89,34.424
0.788,-0.681,-0.699,-62.5,-48.096,24.719
0.798,-0.601,-0.694,-49.683,-35.217,14.343
0.802,-0.551,-0.674,-36.926,-24.414,4.7
0.795,-0.522,-0.657,-24.658,-15.869,-2.991
0.802,-0.501,-0.632,-12.695,-10.498,-8.789
0.835,-0.505,-0.584,-2.808,-7.874,-12.085
0.883,-0.505,-0.541,4.272,-7.202,-12.207
0.934,-0.491,-0.507,8.545,-8.789,-10.315
0.962,-0.464,-0.487,10.498,-12.39,-6.958
0.977,-0.424,-0.473,11.23,-17.09,-3.54
0.979,-0.348,-0.453,11.414,-21.362,-1.526
0.96,-0.294,-0.453,11.536,-24.109,-0.244
0.945,-0.258,-0.453,12.634,-25.146,-0.305
0.932,-0.241,-0.434,13.55,-23.56,-0.854
0.904,-0.259,-0.44,13.55,-19.348,-1.953
0.901,-0.248,-0.444,12.512,-12.39,-3.54
0.931,-0.232,-0.422,11.78,-4.883,-5.676
0.966,-0.221,-0.414,11.169,0.671,-8.362
0.952,-0.204,-0.396,10.864,3.052,-11.292
0.976,-0.203,-0.406,10.986,2.197,-12.878
0.995,-0.181,-0.417,11.475,0.183,-14.404
1.045,-0.162,-0.419,12.39,-0.427,-15.747
0.994,-0.135,-0.376,13.855,-1.77,-15.564
1.088,-0.143,-0.399,16.052,-6.287,-14.221
1.009,-0.097,-0.358,17.578,-8.85,-13.367
1.023,-0.113,-0.394,19.592,-11.353,-11.841
1.026,-0.068,-0.349,21.423,-9.644,-10.376
1.04,-0.099,-0.336,23.987,-8.362,-7.751
1.047,-0.095,-0.326,25.94,-7.935,-5.798
1.046,-0.098,-0.314,26.428,-7.446,-3.723
1.055,-0.109,-0.306,27.344,-9.399,-2.014
1.034,-0.085,-0.302,28.015,-10.925,-1.16
1.023,-0.077,-0.294,29.358,-11.902,-0.305
1.01,-0.09,-0.293,30.823,-11.475,0.671
1.006,-0.095,-0.283,31.677,-9.888,0.427
1.012,-0.078,-0.274,31.555,-7.935,-1.038
1.014,-0.076,-0.264,31.86,-5.554,-2.319
1.011,-0.067,-0.256,32.776,-3.54,-2.686
1.015,-0.077,-0.248,33.936,-2.441,-2.258
1.017,-0.088,-0.24,35.278,-3.113,-1.587
1.027,-0.102,-0.229,36.316,-4.578,-0.732
1.026,-0.128,-0.234,37.17,-6.226,1.282
1.025,-0.148,-0.243,37.781,-8.301,4.272
1.025,-0.151,-0.238,37.476,-9.827,7.507
1.029,-0.123,-0.234,36.865,-11.719,10.376
1.009,-0.1,-0.235,37.476,-14.16,11.902
0.993,-0.096,-0.241,39.185,-15.808,12.512
0.972,-0.114,-0.241,41.443,-16.907,12.39
0.96,-0.144,-0.246,43.64,-16.663,12.756
0.961,-0.154,-0.236,44.556,-16.479,13.306
0.964,-0.154,-0.224,43.701,-16.357,13.55
0.953,-0.151,-0.22,42.786,-16.968,12.878
0.946,-0.139,-0.217,42.358,-16.663,11.597
0.942,-0.132,-0.215,42.236,-15.442,10.01
0.941,-0.126,-0.21,42.664,-14.282,8.362
0.951,-0.127,-0.199,42.542,-12.817,7.08
0.955,-0.117,-0.191,41.809,-10.986,6.165
0.954,-0.111,-0.192,40.833,-9.46,5.249
0.955,-0.111,-0.184,39.368,-7.141,5.249
0.947,-0.104,-0.187,38.025,-5.005,5.493
0.945,-0.1,-0.189,36.865,-2.747,5.554
0.952,-0.099,-0.192,36.377,-1.099,5.432
0.958,-0.101,-0.19,36.377,-0.366,5.005
0.954,-0.103,-0.194,36.255,-0.061,4.028
0.941,-0.1,-0.199,35.767,1.038,2.136
0.925,-0.108,-0.203,35.461,3.113,0.0
0.904,-0.11,-0.208,34.668,7.141,-2.625
0.874,-0.121,-0.224,33.997,12.268,-5.615
0.845,-0.113,-0.246,33.508,19.287,-10.559
0.739,-0.265,-0.239,32.043,28.931,-18.188
1.075,0.013,-0.166,27.344,36.56,-30.029
0.827,-0.206,-0.215,31.921,38.94,-26.489
1.026,-0.092,-0.154,29.785,37.964,-28.931
0.996,-0.114,-0.189,29.846,34.729,-27.588
1.138,-0.044,-0.133,28.992,31.189,-23.682
1.015,-0.105,-0.158,30.762,22.034,-15.808
1.197,-0.06,-0.179,30.09,10.803,-10.986
1.093,-0.029,-0.151,30.701,3.662,-5.92
1.427,-0.201,1.448,-68.604,-8.24,23.254
1.462,-0.366,1.644,-89.05,-17.578,31.555
1.43,-0.57,1.785,-121.216,-26.978,41.87
1.329,-0.763,1.851,-165.771,-33.569,52.185
1.276,-0.879,1.909,-218.14,-35.095,61.035
1.221,-0.997,1.895,-270.142,-31.86,68.359
1.129,-1.171,1.767,-322.632,-25.024,72.693
1.086,-1.294,1.576,-375.0,-14.343,73.181
1.089,-1.332,1.395,-421.326,-0.671,72.144
1.095,-1.404,1.202,-459.778,13.428,71.533
1.124,-1.482,1.012,-491.272,24.902,72.693
1.113,-1.566,0.78,-516.846,31.982,77.209
1.131,-1.543,0.596,-538.33,37.17,85.083
1.089,-1.567,0.432,-552.307,39.429,95.825
1.023,-1.642,0.249,-562.805,40.833,107.3
1.011,-1.677,0.096,-572.266,43.823,118.591
0.959,-1.698,-0.04,-581.177,44.922,129.089
0.841,-1.667,-0.186,-587.585,45.044,134.705
0.781,-1.698,-0.331,-590.027,46.997,135.559
0.729,-1.713,-0.468,-591.248,49.072,134.827
0.685,-1.668,-0.594,-591.064,46.387,129.822
0.704,-1.567,-0.685,-587.036,36.804,120.117
0.773,-1.485,-0.768,-575.745,18.494,106.262
0.711,-1.469,-0.872,-555.542,-8.667,88.501
0.838,-1.226,-0.948,-530.273,-41.077,64.514
0.592,-1.047,-1.04,-490.356,-66.956,50.659
0.594,-0.965,-0.96,-435.303,-78.979,44.861
0.654,-0.771,-0.918,-375.183,-90.088,33.02
0.648,-0.75,-0.69,-307.434,-93.384,28.015
0.849,-0.754,-0.562,-244.141,-106.262,21.851
0.971,-0.839,-0.443,-184.509,-120.605,20.386
1.053,-0.829,-0.417,-134.766,-139.038,18.616
1.132,-0.906,-0.345,-90.637,-156.128,16.418
1.191,-1.037,-0.258,-58.35,-167.175,13.55
1.215,-1.159,-0.227,-41.565,-172.729,8.972
1.283,-1.361,-0.131,-41.565,-167.053,4.517
1.325,-1.397,-0.149,-59.204,-148.987,4.272
1.267,-1.297,-0.25,-82.336,-132.629,2.136
1.188,-1.111,-0.343,-101.685,-113.403,-3.723
1.083,-0.954,-0.457,-113.525,-88.562,-10.986
0.968,-0.834,-0.532,-115.723,-61.523,-21.179
0.853,-0.766,-0.554,-111.694,-33.936,-31.677
0.759,-0.717,-0.578,-102.844,-9.338,-40.1
0.725,-0.697,-0.553,-89.905,8.606,-46.509
0.746,-0.718,-0.497,-76.111,19.348,-48.95
0.81,-0.774,-0.437,-64.209,22.949,-46.57
0.89,-0.797,-0.428,-57.007,17.273,-38.452
0.93,-0.753,-0.424,-53.65,3.601,-27.222
0.957,-0.71,-0.427,-52.002,-11.902,-14.893
0.964,-0.6,-0.435,-50.415,-27.466,-6.348
0.925,-0.499,-0.45,-45.959,-39.246,-2.502
0.854,-0.465,-0.473,-38.269,-44.739,-2.075
0.822,-0.448,-0.475,-28.87,-41.626,-5.432
0.849,-0.462,-0.441,-20.935,-31.799,-10.742
0.853,-0.512,-0.406,-15.686,-20.325,-15.625
0.874,-0.515,-0.387,-15.198,-9.644,-19.592
0.908,-0.489,-0.36,-16.724,-1.77,-22.4
0.913,-0.454,-0.352,-18.372,2.686,-24.658
0.891,-0.412,-0.348,-18.738,5.737,-27.283
0.896,-0.375,-0.336,-17.639,8.789,-28.931
0.912,-0.378,-0.309,-14.465,9.888,-29.785
0.936,-0.365,-0.291,-12.329,8.484,-29.968
0.953,-0.348,-0.295,-9.216,4.333,-29.297
0.982,-0.317,-0.287,-5.005,-1.038,-28.809
1.001,-0.284,-0.27,-0.244,-5.859,-28.931
0.99,-0.29,-0.269,5.188,-9.094,-28.931
0.989,-0.282,-0.275,9.949,-8.789,-28.564
1.024,-0.246,-0.249,14.343,-4.578,-27.893
1.054,-0.278,-0.217,19.165,-0.183,-26.489
1.095,-0.291,-0.205,21.912,0.366,-26.672
1.099,-0.262,-0.177,22.583,1.404,-26.001
1.151,-0.232,-0.173,24.353,0.183,-23.01
1.23,-0.236,-0.145,26.978,-2.991,-18.738
1.143,-0.316,-0.176,27.527,-9.888,-17.212
1.105,-0.251,-0.191,25.33,-14.404,-16.724
1.067,-0.297,-0.204,27.649,-10.437,-14.099
1.162,-0.141,-0.068,27.71,-6.165,-13.55
1.15,-0.265,-0.133,32.043,-13.062,-7.08
1.055,-0.253,-0.162,32.104,-18.25,-6.348
1.059,-0.216,-0.16,33.02,-18.738,-5.615
1.098,-0.217,-0.137,36.804,-16.541,-2.014
1.063,-0.27,-0.133,41.199,-16.174,-1.282
1.164,-0.214,-0.059,41.748,-17.029,-2.258
1.122,-0.261,-0.086,43.335,-22.766,1.587
1.042,-0.283,-0.099,42.969,-26.306,5.554
1.019,-0.283,-0.114,41.382,-23.865,7.629
1.033,-0.292,-0.091,38.757,-16.602,8.606
1.026,-0.285,-0.09,35.461,-9.827,7.812
1.035,-0.271,-0.094,31.372,-4.15,6.226
1.031,-0.255,-0.096,28.625,-0.122,3.662
1.027,-0.253,-0.094,27.283,3.296,1.16
1.033,-0.256,-0.083,26.062,5.798,-0.671
1.043,-0.254,-0.068,24.902,7.568,-1.404
1.051,-0.257,-0.068,24.109,7.385,-0.977
1.03,-0.259,-0.079,23.621,6.836,0.122
1.019,-0.253,-0.079,23.254,7.08,1.404
1.012,-0.251,-0.077,23.01,7.385,2.869
1.001,-0.25,-0.075,23.315,7.141,4.089
0.989,-0.248,-0.077,23.56,7.324,5.005
0.989,-0.256,-0.073,23.987,7.751,5.371
0.982,-0.265,-0.068,24.17,8.362,5.798
0.969,-0.275,-0.071,24.109,8.362,5.615
0.951,-0.289,-0.071,23.376,8.423,5.127
0.941,-0.294,-0.068,22.156,8.789,4.272
0.932,-0.299,-0.072,21.301,8.728,3.54
0.921,-0.306,-0.079,20.63,7.751,2.991
0.91,-0.315,-0.086,20.142,7.141,2.502
0.904,-0.322,-0.089,20.081,7.141,1.709
0.893,-0.326,-0.095,19.653,7.507,1.16
0.893,-0.326,-0.095,19.714,8.423,0.366
0.88,-0.33,-0.102,20.569,8.85,-0.916
0.857,-0.338,-0.113,21.545,10.498,-2.441
0.827,-0.352,-0.129,22.217,13.367,-3.723
0.777,-0.374,-0.155,22.583,18.433,-6.165
0.75,-0.396,-0.182,21.851,27.222,-10.559
0.792,-0.363,-0.159,20.569,39.246,-15.381
0.88,-0.395,-0.119,19.775,48.462,-20.02
1.087,-0.37,-0.031,18.127,35.645,-20.447
1.068,-0.342,-0.056,16.907,18.311,-17.273
1.001,-0.661,1.204,-3.662,43.945,32.043
1.048,-0.786,1.404,-24.414,56.335,40.1
1.166,-0.897,1.669,-52.124,64.941,49.438
1.306,-1.042,1.982,-82.703,64.514,58.96
1.371,-1.238,2.207,-119.629,50.903,68.42
1.428,-1.439,2.375,-169.189,27.893,77.759
1.374,-1.665,2.351,-232.178,1.465,87.83
1.236,-1.828,2.167,-309.875,-21.301,96.619
1.088,-1.91,1.891,-393.188,-34.363,102.356
0.937,-1.921,1.676,-470.215,-30.579,106.628
0.82,-1.901,1.445,-534.241,-11.169,110.229
0.786,-1.913,1.182,-587.646,18.799,114.197
0.737,-1.927,0.893,-631.531,53.955,119.568
0.689,-1.903,0.61,-666.687,89.905,126.709
0.741,-1.862,0.36,-691.956,123.84,134.521
0.862,-1.841,0.2,-707.581,148.621,144.836
0.927,-1.869,0.082,-716.37,159.607,159.302
0.878,-1.95,-0.058,-723.145,157.654,177.063
0.753,-2.083,-0.239,-731.018,146.79,194.397
0.619,-2.114,-0.396,-741.638,134.216,205.933
0.531,-2.04,-0.522,-749.573,120.483,209.351
0.476,-1.954,-0.65,-747.559,106.201,206.665
0.437,-1.906,-0.766,-729.797,92.163,198.059
0.459,-1.877,-0.868,-699.768,72.998,183.167
0.476,-1.839,-0.896,-663.94,44.8,161.072
0.742,-1.69,-0.866,-624.207,6.226,134.827
0.625,-1.309,-0.939,-572.754,-35.583,108.582
0.493,-1.301,-1.01,-504.272,-67.993,93.14
0.237,-1.169,-1.146,-430.359,-93.445,69.275
0.23,-0.936,-0.95,-358.093,-93.262,42.786
0.4,-1.051,-0.745,-282.471,-85.693,22.766
0.517,-1.166,-0.632,-216.187,-80.078,3.723
0.632,-1.229,-0.589,-164.734,-76.599,-17.273
0.789,-1.341,-0.58,-126.038,-68.42,-38.94
0.902,-1.431,-0.574,-100.098,-56.335,-61.096
0.948,-1.478,-0.584,-85.754,-41.077,-84.412
0.955,-1.467,-0.627,-79.285,-20.264,-106.14
0.954,-1.412,-0.663,-76.843,6.653,-124.39
0.937,-1.33,-0.702,-75.256,37.476,-137.207
0.968,-1.253,-0.727,-71.899,68.115,-144.104
0.954,-1.117,-0.737,-66.833,92.773,-144.409
0.898,-0.969,-0.761,-56.519,107.117,-133.972
0.884,-0.899,-0.726,-38.818,109.619,-112.61
0.863,-0.849,-0.651,-20.447,103.577,-81.909
0.866,-0.752,-0.622,-1.648,83.984,-49.561
0.882,-0.693,-0.609,20.142,49.438,-19.592
0.836,-0.685,-0.635,42.603,9.46,6.165
0.783,-0.695,-0.679,62.012,-26.611,24.719
0.743,-0.698,-0.686,76.355,-54.932,34.729
0.679,-0.708,-0.699,86.609,-74.219,38.513
0.64,-0.702,-0.726,93.689,-83.557,37.842
0.617,-0.689,-0.741,96.924,-83.374,34.607
0.609,-0.67,-0.724,96.069,-75.623,29.297
0.632,-0.646,-0.691,92.896,-64.148,21.729
0.659,-0.614,-0.658,87.28,-50.659,13.794
0.663,-0.546,-0.628,80.078,-38.208,6.653
0.676,-0.477,-0.591,74.097,-27.1,0.061
0.693,-0.417,-0.551,70.007,-17.151,-4.761
0.721,-0.379,-0.521,67.81,-9.888,-8.667
0.772,-0.359,-0.495,66.833,-6.165,-10.925
0.828,-0.344,-0.465,66.406,-6.714,-11.169
0.857,-0.329,-0.448,66.04,-11.597,-9.827
0.871,-0.314,-0.442,65.857,-18.677,-7.568
0.866,-0.304,-0.439,66.406,-25.513,-5.432
0.863,-0.312,-0.43,66.101,-29.907,-3.662
0.859,-0.332,-0.418,64.27,-31.86,-2.625
0.86,-0.322,-0.423,60.913,-33.142,-2.441
0.882,-0.313,-0.423,57.983,-33.752,-2.747
0.903,-0.309,-0.424,55.42,-34.729,-2.869
0.919,-0.287,-0.437,52.979,-35.889,-3.479
0.93,-0.266,-0.433,50.964,-35.767,-5.188
0.931,-0.255,-0.432,50.171,-35.4,-8.362
0.937,-0.242,-0.433,49.683,-34.119,-12.024
0.937,-0.217,-0.414,49.194,-31.311,-16.052
0.963,-0.209,-0.414,49.683,-27.466,-20.081
0.999,-0.224,-0.388,50.049,-21.179,-23.01
1.013,-0.241,-0.362,48.584,-14.526,-23.254
1.016,-0.263,-0.358,45.898,-9.583,-20.447
1.039,-0.249,-0.359,43.152,-6.653,-16.174
1.064,-0.229,-0.364,41.382,-6.653,-12.146
1.068,-0.21,-0.368,40.588,-7.935,-9.155
1.062,-0.193,-0.383,41.443,-10.925,-7.446
1.065,-0.176,-0.388,43.64,-14.648,-6.714
1.045,-0.169,-0.385,47.668,-18.066,-6.287
1.026,-0.177,-0.373,52.856,-20.874,-5.859
1.015,-0.211,-0.365,57.678,-23.376,-5.188
1.032,-0.246,-0.349,60.913,-25.085,-5.005
1.017,-0.245,-0.338,61.279,-26.062,-4.639
1.009,-0.258,-0.34,60.364,-26.245,-3.113
1.023,-0.235,-0.351,59.265,-24.536,-0.488
1.031,-0.264,-0.347,58.96,-21.912,3.357
1.02,-0.272,-0.33,56.58,-20.752,5.432
1.014,-0.251,-0.322,53.406,-20.264,6.531
1.013,-0.241,-0.312,50.842,-19.043,7.812
1.006,-0.239,-0.298,48.157,-18.25,9.216
0.983,-0.233,-0.29,45.593,-17.456,10.437
0.965,-0.227,-0.29,43.03,-16.602,11.292
0.953,-0.231,-0.292,40.71,-15.686,12.085
0.936,-0.23,-0.297,39.124,-14.648,12.39
0.933,-0.221,-0.304,37.964,-13.428,12.39
0.924,-0.212,-0.307,37.354,-12.024,12.39
0.909,-0.215,-0.315,37.72,-10.193,12.512
0.915,-0.224,-0.316,38.086,-7.629,12.939
0.931,-0.214,-0.312,37.964,-5.127,13.672
0.947,-0.201,-0.305,38.574,-3.723,13.611
0.962,-0.204,-0.303,39.368,-3.113,12.878
0.959,-0.218,-0.303,39.795,-3.906,11.902
0.93,-0.234,-0.311,38.147,-4.578,10.62
0.912,-0.225,-0.3,35.706,-2.93,8.85
0.932,-0.197,-0.285,32.288,-0.488,7.568
0.896,-0.21,-0.299,30.09,1.038,7.874
0.85,-0.186,-0.317,27.344,4.15,9.033
0.895,-0.138,-0.304,26.001,10.132,11.169
0.898,-0.172,-0.317,27.039,15.259,13.916
0.866,-0.154,-0.309,27.71,18.433,10.925
0.932,-0.146,-0.282,28.687,20.447,5.31
1.025,-0.131,-0.295,29.846,18.372,1.343
0.917,-0.151,-0.282,31.006,15.625,2.258
0.908,-0.175,-0.323,31.25,11.169,4.7
1.505,-0.138,1.524,57.19,50.537,-13.0
1.574,-0.299,1.817,46.387,27.832,-8.301
1.53,-0.501,2.043,23.01,1.709,-3.662
1.482,-0.703,2.162,-14.404,-22.034,1.099
1.366,-0.903,2.143,-66.589,-41.626,5.371
1.18,-1.052,2.026,-129.944,-47.607,9.277
0.994,-1.136,1.862,-199.036,-35.095,18.066
0.831,-1.237,1.675,-267.639,-9.155,31.25
0.759,-1.302,1.499,-330.75,24.109,43.091
0.776,-1.325,1.336,-385.193,57.556,51.453
0.775,-1.338,1.144,-429.993,83.069,59.509
0.799,-1.383,0.995,-464.294,100.342,67.505
0.886,-1.424,0.907,-486.145,108.154,72.998
0.927,-1.471,0.781,-499.939,105.347,76.965
0.911,-1.566,0.648,-509.216,96.924,82.092
0.92,-1.669,0.514,-518.311,84.656,88.562
0.919,-1.772,0.397,-528.137,70.374,98.022
0.86,-1.835,0.289,-537.72,56.396,108.887
0.804,-1.929,0.148,-546.509,43.091,120.544
0.828,-1.97,0.067,-554.687,34.424,130.615
0.843,-1.95,0.015,-563.293,27.161,139.221
0.762,-1.962,-0.087,-570.435,17.761,145.752
0.694,-1.984,-0.244,-576.233,9.46,147.766
0.71,-1.835,-0.437,-576.538,5.432,143.616
0.792,-1.654,-0.561,-561.951,4.578,133.789
0.88,-1.631,-0.679,-537.17,5.737,120.422
0.965,-1.613,-0.81,-509.583,5.493,102.112
1.024,-1.558,-0.913,-482.91,4.883,82.092
1.028,-1.634,-1.039,-455.444,4.395,61.462
0.96,-1.661,-1.223,-427.429,7.019,40.649
0.945,-1.544,-1.292,-399.597,14.038,20.996
1.011,-1.383,-1.275,-368.408,24.597,8.301
1.092,-1.248,-1.259,-329.163,29.114,2.38
1.198,-1.132,-1.19,-284.607,22.644,0.977
1.321,-1.081,-1.13,-237.549,5.371,5.432
1.36,-1.042,-1.106,-191.101,-24.231,14.954
1.319,-0.996,-1.111,-146.79,-61.646,25.818
1.243,-0.984,-1.131,-103.394,-99.365,36.133
1.177,-0.981,-1.159,-64.27,-129.822,42.786
1.089,-0.944,-1.19,-32.227,-148.315,43.945
0.997,-0.928,-1.198,-7.141,-151.55,38.452
0.933,-0.938,-1.163,9.827,-139.587,30.334
0.87,-0.93,-1.105,18.555,-117.432,22.583
0.796,-0.882,-1.047,21.729,-90.881,15.747
0.769,-0.805,-0.994,21.79,-62.866,10.193
0.772,-0.725,-0.938,21.057,-35.828,7.812
0.802,-0.642,-0.873,20.691,-13.611,8.484
0.831,-0.55,-0.783,20.813,0.916,10.193
0.838,-0.48,-0.707,22.4,7.69,10.986
0.806,-0.415,-0.654,26.306,8.484,10.132
0.776,-0.349,-0.618,31.189,6.104,8.301
0.751,-0.316,-0.575,37.781,2.441,5.981
0.726,-0.315,-0.536,44.373,-0.61,3.784
0.706,-0.322,-0.509,49.438,-2.014,1.404
0.715,-0.307,-0.477,52.734,-1.526,-1.282
0.722,-0.317,-0.438,54.199,0.549,-3.418
0.74,-0.323,-0.401,52.612,5.798,-4.822
0.786,-0.306,-0.359,48.157,12.085,-6.226
0.827,-0.286,-0.319,42.664,17.395,-7.324
0.86,-0.264,-0.277,36.682,21.545,-8.118
0.863,-0.234,-0.251,30.579,24.658,-8.972
0.863,-0.208,-0.234,25.146,28.076,-10.498
0.869,-0.187,-0.214,19.775,32.654,-11.902
0.882,-0.174,-0.203,15.198,36.377,-13.55
0.894,-0.165,-0.199,10.681,38.452,-14.526
0.887,-0.155,-0.221,6.836,38.757,-14.526
0.885,-0.141,-0.232,4.456,37.415,-15.076
0.887,-0.109,-0.24,3.845,35.156,-16.663
0.892,-0.106,-0.243,4.089,32.837,-18.982
0.91,-0.098,-0.255,5.188,30.09,-22.034
0.896,-0.111,-0.261,7.324,28.32,-24.475
0.88,-0.103,-0.273,9.644,27.344,-27.466
0.919,-0.085,-0.273,13.245,27.832,-31.006
0.968,-0.06,-0.269,17.639,29.907,-33.386
1.005,-0.146,-0.242,21.973,32.41,-34.058
1.085,-0.159,-0.239,21.667,31.677,-34.058
1.123,-0.193,-0.221,18.25,30.518,-29.236
1.118,-0.135,-0.24,13.428,26.001,-23.437
1.115,-0.139,-0.241,11.719,19.409,-15.686
1.116,-0.121,-0.281,10.742,11.719,-8.789
1.086,-0.128,-0.294,11.414,4.761,-3.967
1.024,-0.114,-0.333,14.099,-1.709,-2.808
1.019,-0.126,-0.339,18.433,-5.005,-2.869
1.0,-0.162,-0.366,23.682,-6.897,-4.028
0.95,-0.184,-0.36,28.259,-5.493,-5.859
0.947,-0.216,-0.362,31.433,-2.869,-7.874
0.952,-0.208,-0.352,33.386,0.732,-8.85
0.962,-0.202,-0.344,34.363,4.15,-9.155
0.973,-0.193,-0.331,34.851,5.859,-9.705
0.97,-0.179,-0.333,35.4,4.7,-10.315
0.965,-0.163,-0.334,36.682,2.441,-10.498
0.96,-0.181,-0.327,38.208,0.366,-10.193
0.95,-0.19,-0.322,39.063,-1.038,-9.583
0.946,-0.18,-0.318,39.368,-1.526,-8.789
0.945,-0.185,-0.315,39.978,-1.526,-8.484
0.935,-0.195,-0.315,40.833,-1.282,-8.545
0.922,-0.207,-0.32,40.894,-1.16,-8.606
0.918,-0.21,-0.324,40.771,-1.038,-8.24
0.909,-0.224,-0.325,40.71,-1.16,-8.423
0.901,-0.224,-0.341,39.978,-1.709,-9.033
0.899,-0.214,-0.345,39.917,-2.014,-10.559
0.9,-0.222,-0.344,39.978,-1.404,-12.329
0.898,-0.223,-0.346,39.856,-0.061,-13.428
0.908,-0.237,-0.343,39.001,1.648,-13.123
0.927,-0.237,-0.355,37.72,2.075,-12.39
0.94,-0.221,-0.356,37.415,1.221,-11.841
0.948,-0.222,-0.357,37.964,-0.366,-11.841
0.961,-0.202,-0.367,39.49,-2.686,-12.573
0.968,-0.206,-0.368,41.443,-3.784,-13.306
0.966,-0.231,-0.372,42.542,-2.991,-13.123
0.964,-0.235,-0.388,43.274,-0.488,-12.573
0.967,-0.219,-0.392,43.518,3.54,-12.207
0.974,-0.212,-0.393,43.884,8.179,-11.902
0.963,-0.199,-0.399,44.556,12.939,-11.108
0.954,-0.209,-0.408,44.983,16.968,-9.338
0.965,-0.224,-0.423,44.678,20.447,-7.935
0.969,-0.209,-0.438,44.128,22.4,-8.118
0.986,-0.221,-0.445,44.983,23.315,-8.789
0.971,-0.223,-0.461,45.715,23.682,-10.376
1.525,0.025,1.284,134.583,-22.278,-10.01
1.705,-0.054,1.49,143.677,-30.701,-8.728
1.877,-0.136,1.722,146.484,-47.974,-6.348
1.996,-0.254,1.944,143.616,-76.355,-3.784
2.102,-0.442,2.204,134.094,-112.732,-0.427
2.125,-0.679,2.467,110.657,-154.663,5.92
2.076,-0.974,2.74,67.627,-196.289,11.169
1.873,-1.274,2.87,-0.549,-229.553,16.907
1.469,-1.491,2.842,-95.032,-244.202,25.146
1.076,-1.6,2.64,-201.721,-229.492,32.349
0.847,-1.592,2.359,-308.472,-184.021,37.598
0.729,-1.553,2.063,-403.931,-114.441,41.809
0.632,-1.537,1.681,-482.483,-31.86,47.546
0.654,-1.55,1.207,-546.692,53.101,53.406
0.714,-1.561,0.668,-595.276,134.399,59.448
0.754,-1.499,0.178,-629.211,209.778,66.711
0.695,-1.43,-0.254,-648.682,275.146,77.026
0.566,-1.357,-0.571,-654.968,332.336,90.637
0.39,-1.189,-0.801,-648.804,381.348,106.873
0.121,-1.105,-1.028,-622.437,424.744,121.948
0.054,-0.73,-1.111,-580.444,467.712,130.066
0.249,-0.599,-0.995,-527.1,503.54,146.851
0.33,-0.657,-0.873,-474.06,516.235,161.743
0.38,-0.761,-0.768,-428.406,502.808,173.34
0.412,-0.755,-0.693,-389.038,462.952,187.256
0.404,-0.684,-0.636,-348.816,394.287,197.388
0.418,-0.736,-0.612,-304.382,306.335,201.294
0.377,-0.854,-0.661,-260.925,210.205,201.294
0.26,-0.92,-0.745,-224.304,113.77,199.341
0.099,-0.957,-0.898,-192.444,23.132,196.899
-0.055,-0.97,-1.112,-163.391,-55.115,192.322
-0.209,-0.931,-1.328,-137.573,-114.014,180.603
-0.354,-0.876,-1.499,-114.136,-145.508,160.278
-0.458,-0.824,-1.599,-92.468,-147.095,132.751
-0.479,-0.763,-1.619,-73.853,-125.977,100.159
-0.432,-0.77,-1.584,-57.495,-92.346,65.979
-0.342,-0.823,-1.527,-46.143,-51.453,35.217
-0.226,-0.801,-1.45,-43.03,-10.925,10.437
-0.089,-0.725,-1.373,-44.8,23.193,-7.935
0.072,-0.633,-1.288,-47.607,47.302,-21.057
0.216,-0.529,-1.176,-50.903,60.913,-28.015
0.297,-0.416,-1.092,-53.345,63.599,-28.809
0.331,-0.286,-1.046,-53.04,55.725,-25.696
0.35,-0.159,-1.013,-48.035,41.748,-21.057
0.37,-0.053,-0.988,-37.354,26.062,-15.747
0.384,0.026,-0.967,-23.499,10.498,-11.108
0.377,0.07,-0.949,-8.85,-2.258,-7.385
0.353,0.077,-0.927,4.15,-11.047,-5.005
0.349,0.083,-0.889,13.672,-16.479,-3.723
0.355,0.081,-0.849,19.592,-18.372,-3.235
0.348,0.074,-0.83,22.156,-16.602,-2.808
0.34,0.078,-0.816,20.569,-12.268,-2.136
0.351,0.095,-0.801,16.663,-6.714,-1.343
0.367,0.121,-0.786,11.658,-0.488,-1.343
0.383,0.168,-0.778,6.47,5.798,-2.319
0.414,0.206,-0.769,2.502,10.864,-3.357
0.441,0.238,-0.768,0.061,13.733,-3.967
0.453,0.262,-0.779,-1.77,13.794,-4.761
0.469,0.283,-0.779,-2.136,12.695,-5.981
0.473,0.287,-0.776,-0.732,10.803,-7.446
0.451,0.258,-0.797,0.793,8.545,-9.766
0.439,0.229,-0.817,1.77,7.812,-12.634
0.437,0.195,-0.833,1.892,8.85,-15.32
0.459,0.173,-0.861,0.671,11.475,-17.212
0.495,0.18,-0.884,-0.366,13.794,-19.409
0.519,0.187,-0.9,-0.61,15.015,-21.423
0.548,0.193,-0.91,0.183,14.771,-23.315
0.581,0.189,-0.928,2.197,12.878,-25.024
0.587,0.178,-0.943,4.883,9.338,-26.367
0.58,0.163,-0.943,6.653,5.432,-26.428
0.571,0.142,-0.92,8.423,0.732,-25.879
0.588,0.127,-0.907,9.644,-6.409,-25.696
0.626,0.109,-0.956,10.864,-13.794,-25.696
0.59,0.123,-0.948,11.78,-16.602,-26.55
0.618,0.216,-0.923,15.198,-18.86,-26.794
0.627,0.167,-0.906,23.682,-21.667,-23.315
0.605,0.219,-1.031,30.273,-25.452,-20.63
0.524,0.011,-1.143,38.025,-13.367,-17.029
0.463,0.103,-0.859,34.424,5.554,-23.987
0.605,0.185,-0.955,34.18,4.028,-29.297
0.679,0.167,-0.942,39.001,4.639,-28.32
0.612,0.211,-0.941,41.87,6.775,-26.123
0.645,0.218,-0.921,47.913,4.883,-22.888
0.703,0.133,-0.823,53.223,-0.122,-19.531
0.724,0.209,-0.925,51.208,-14.465,-20.569
0.695,0.269,-0.971,52.979,-15.137,-15.198
0.511,0.155,-0.818,61.768,-2.869,-6.836
0.592,0.161,-0.822,62.317,-15.259,-10.925
0.711,0.211,-0.871,61.401,-20.264,-11.902
0.622,0.2,-0.845,60.852,-17.334,-9.644
0.537,0.212,-0.793,60.791,-17.944,-9.949
0.637,0.247,-0.89,61.707,-23.376,-11.963
0.585,0.251,-0.81,63.843,-17.517,-11.719
0.587,0.262,-0.778,65.43,-14.954,-12.146
0.64,0.229,-0.798,67.627,-17.212,-12.451
0.648,0.199,-0.831,67.688,-16.663,-11.414
0.622,0.231,-0.807,65.857,-13.611,-10.681
0.599,0.228,-0.764,66.162,-11.292,-8.179
0.659,0.244,-0.811,66.589,-14.526,-6.042
0.667,0.229,-0.777,66.711,-14.648,-3.906
0.622,0.266,-0.788,66.284,-17.09,-2.93
0.63,0.28,-0.78,67.749,-19.287,-2.258
0.633,0.318,-0.75,70.435,-21.24,-1.77
0.628,0.333,-0.734,74.524,-26.245,-1.709
0.648,0.334,-0.75,78.43,-31.311,-2.014
0.627,0.322,-0.727,82.031,-33.447,-3.357
0.618,0.352,-0.704,84.167,-35.767,-5.737
0.616,0.361,-0.684,86.914,-37.964,-7.019
0.608,0.339,-0.634,88.928,-39.795,-7.446
0.617,0.374,-0.594,90.149,-44.189,-8.057
0.699,0.314,-0.593,90.149,-49.377,-6.592
0.68,0.383,-0.518,86.609,-54.81,-7.202
0.665,0.438,-0.544,85.876,-64.331,-4.395
0.686,0.43,-0.52,87.769,-70.74,-0.549
0.67,0.437,-0.483,89.172,-76.477,1.831
0.648,0.413,-0.478,90.21,-81.665,3.113
0.619,0.397,-0.455,89.417,-82.947,3.784
0.607,0.408,-0.427,87.036,-82.703,3.784
0.604,0.398,-0.406,84.595,-81.604,4.211
1.459,-0.474,1.049,69.397,-9.827,21.973
1.455,-0.581,1.263,50.232,-5.493,42.358
1.454,-0.677,1.485,22.827,-1.343,60.73
1.498,-0.728,1.708,-10.132,0.427,74.951
1.537,-0.765,1.92,-46.875,-0.977,84.045
1.496,-0.878,2.022,-88.501,-5.188,88.806
1.419,-0.955,2.024,-137.817,-8.179,87.891
1.105,-0.993,1.743,-252.197,4.639,82.703
1.042,-0.959,1.544,-305.603,25.452,80.566
1.042,-0.984,1.222,-381.897,83.191,79.956
1.069,-1.011,1.038,-409.058,109.863,83.618
1.08,-1.027,0.844,-432.129,130.127,90.088
1.056,-1.046,0.645,-449.707,143.616,99.182
0.992,-1.063,0.442,-462.585,150.452,110.596
0.922,-1.067,0.262,-470.032,153.503,122.925
0.851,-1.036,0.123,-472.656,154.053,135.803
0.789,-0.998,0.026,-469.482,151.672,147.949
0.676,-1.003,-0.07,-461.731,147.705,156.677
0.496,-1.046,-0.19,-454.834,147.034,160.828
0.312,-1.086,-0.316,-451.233,153.992,162.231
0.174,-1.105,-0.458,-451.111,167.786,159.79
-0.028,-1.127,-0.587,-450.073,187.439,151.611
-0.099,-1.131,-0.721,-447.571,209.412,135.193
0.047,-0.968,-0.916,-438.232,229.37,117.615
-0.037,-0.96,-0.967,-412.109,252.502,109.863
0.095,-0.875,-0.976,-385.742,265.137,98.083
0.292,-0.837,-0.917,-358.215,261.963,84.839
0.393,-0.983,-0.976,-328.247,242.737,73.608
0.444,-1.077,-1.081,-304.199,214.661,61.157
0.495,-1.004,-1.143,-284.119,181.519,51.086
0.546,-0.873,-1.128,-258.972,143.433,45.837
0.608,-0.797,-1.075,-225.037,99.121,46.326
0.667,-0.772,-1.015,-186.157,47.485,50.842
0.696,-0.841,-0.97,-147.705,-6.348,57.617
0.677,-0.935,-0.991,-115.662,-58.899,64.88
0.621,-0.942,-1.054,-90.454,-105.774,68.542
0.573,-0.93,-1.129,-69.763,-139.832,67.932
0.529,-0.96,-1.181,-52.795,-156.616,64.453
0.472,-0.939,-1.212,-41.26,-157.776,58.289
0.411,-0.89,-1.228,-33.63,-147.705,49.072
0.355,-0.831,-1.241,-27.588,-128.662,38.025
0.309,-0.772,-1.234,-21.484,-102.295,26.184
0.279,-0.707,-1.21,-15.686,-71.35,14.771
0.291,-0.645,-1.166,-9.705,-40.588,4.028
0.339,-0.593,-1.104,-0.244,7.019,-12.512
0.514,-0.528,-0.968,0.366,20.874,-16.357
0.57,-0.456,-0.931,0.427,25.696,-18.005
0.608,-0.384,-0.887,2.197,24.17,-17.517
0.617,-0.349,-0.849,5.676,17.761,-14.282
0.618,-0.333,-0.821,10.925,8.484,-10.132
