aX,aY,aZ,gX,gY,gZ
1.003,-0.796,0.855,-38.269,-25.574,-24.475
0.965,-0.885,0.836,-45.959,-35.095,-27.222
0.909,-0.982,0.807,-55.908,-40.894,-30.884
0.837,-1.075,0.759,-67.932,-42.847,-34.851
0.763,-1.171,0.703,-81.787,-40.466,-39.978
0.698,-1.287,0.635,-97.595,-33.997,-47.241
0.669,-1.439,0.552,-116.577,-24.17,-56.458
0.669,-1.585,0.449,-138.855,-12.085,-67.261
0.696,-1.72,0.348,-164.062,1.282,-79.407
0.762,-1.838,0.252,-192.139,15.564,-92.224
0.874,-1.98,0.154,-221.741,28.931,-105.347
0.997,-2.089,0.009,-252.625,38.94,-118.713
1.094,-2.144,-0.164,-286.438,47.974,-133.24
1.179,-2.156,-0.342,-322.876,57.617,-145.264
1.257,-2.122,-0.5,-357.666,67.871,-153.687
1.357,-2.031,-0.622,-386.23,78.857,-161.194
1.499,-1.834,-0.676,-407.715,90.027,-168.518
1.653,-1.677,-0.713,-421.143,94.971,-178.162
1.75,-1.57,-0.843,-432.312,90.393,-187.866
1.826,-1.456,-1.037,-445.068,77.881,-195.984
1.878,-1.263,-1.293,-456.909,62.561,-203.796
1.899,-0.947,-1.465,-463.196,48.889,-211.731
1.922,-0.592,-1.52,-459.351,39.917,-216.248
1.945,-0.306,-1.509,-443.848,33.691,-214.783
1.94,-0.089,-1.448,-418.823,27.771,-209.839
1.943,0.04,-1.408,-388.611,18.982,-204.041
1.922,0.143,-1.411,-357.91,4.822,-199.585
1.901,0.271,-1.376,-329.773,-11.597,-196.35
1.845,0.412,-1.306,-303.467,-30.212,-192.444
1.743,0.564,-1.228,-279.48,-48.645,-186.89
1.639,0.703,-1.157,-257.08,-63.293,-180.481
1.541,0.823,-1.095,-236.938,-72.51,-173.584
1.435,0.923,-1.027,-217.712,-75.073,-166.809
1.317,1.019,-0.947,-202.454,-70.313,-160.889
1.199,1.092,-0.873,-190.491,-58.838,-155.701
1.072,1.143,-0.807,-181.396,-42.236,-150.33
0.966,1.171,-0.755,-174.438,-21.423,-144.043
0.904,1.179,-0.702,-168.762,1.038,-136.597
0.856,1.183,-0.65,-163.696,22.766,-129.456
0.864,1.192,-0.581,-158.325,41.382,-122.803
0.932,1.198,-0.488,-150.635,54.016,-115.356
1.016,1.199,-0.379,-140.686,57.617,-105.652
1.108,1.206,-0.262,-127.686,50.781,-92.529
1.137,1.197,-0.168,-112.183,35.156,-76.294
1.104,1.156,-0.11,-95.215,15.381,-58.838
1.026,1.104,-0.08,-79.651,-1.404,-41.382
0.968,1.069,-0.038,-66.223,-10.132,-25.513
0.927,1.042,0.011,-55.115,-10.986,-12.695
0.907,1.009,0.041,-44.495,-6.775,-3.784
0.895,0.981,0.073,-34.363,1.099,2.258
0.923,0.949,0.105,-23.682,10.315,6.897
0.987,0.916,0.154,-11.902,18.677,9.155
1.064,0.873,0.182,0.977,24.17,12.268
1.161,0.827,0.233,14.038,26.917,17.944
1.244,0.771,0.277,27.405,25.635,26.672
1.307,0.719,0.312,40.161,19.348,38.574
1.341,0.672,0.338,51.758,8.972,51.331
1.303,0.599,0.33,61.768,-3.357,63.416
1.237,0.542,0.314,69.397,-14.893,74.158
1.157,0.491,0.281,75.073,-24.048,83.557
1.078,0.443,0.253,79.529,-29.053,90.698
1.075,0.389,0.25,83.313,-29.419,95.703
1.078,0.335,0.228,87.524,-28.076,98.633
1.092,0.303,0.226,91.614,-24.597,100.586
1.148,0.293,0.24,95.581,-20.935,104.675
1.216,0.279,0.258,100.586,-20.63,110.596
1.261,0.263,0.257,106.995,-24.536,116.211
1.258,0.245,0.238,114.929,-30.823,120.544
1.231,0.229,0.229,123.535,-35.889,123.84
1.199,0.199,0.212,132.446,-38.879,127.686
1.138,0.153,0.186,140.137,-38.635,131.226
1.073,0.106,0.155,145.447,-34.851,134.521
1.01,0.063,0.122,148.56,-27.649,137.085
0.98,0.027,0.102,149.536,-17.456,138.184
1.014,0.03,0.122,149.841,-5.493,138.306
1.042,-0.065,0.07,151.184,3.845,138.855
1.089,-0.004,0.196,151.306,12.146,136.23
1.175,0.001,0.171,153.687,10.071,137.268
1.22,-0.019,0.156,159.424,1.648,141.968
1.203,-0.014,0.167,165.222,-7.263,145.569
1.148,-0.027,0.147,172.913,-16.968,148.01
1.06,-0.06,0.113,181.335,-22.827,149.353
0.987,-0.075,0.11,188.599,-20.935,148.926
0.965,-0.104,0.118,194.397,-14.099,147.522
0.952,-0.147,0.119,197.632,-7.019,145.813
0.954,-0.174,0.141,197.815,-0.732,143.066
0.96,-0.191,0.165,196.35,4.517,139.404
0.968,-0.208,0.178,193.909,8.545,135.254
0.98,-0.216,0.207,190.308,12.939,131.47
1.004,-0.224,0.237,187.317,16.541,128.601
1.02,-0.228,0.257,184.875,18.921,127.136
1.03,-0.224,0.283,183.777,20.325,125.916
1.024,-0.232,0.298,183.838,20.874,124.268
1.007,-0.259,0.309,184.692,21.423,121.582
0.965,-0.31,0.312,184.509,22.644,117.676
0.959,-0.305,0.37,183.411,24.414,112.488
0.971,-0.348,0.38,181.641,24.048,109.009
0.961,-0.359,0.406,178.162,22.034,106.079
0.913,-0.395,0.387,173.035,19.043,103.821
0.866,-0.39,0.391,166.321,19.043,100.22
0.871,-0.373,0.424,158.813,22.644,96.008
0.858,-0.382,0.415,151.062,25.269,93.018
0.861,-0.36,0.422,141.907,28.992,90.149
0.868,-0.332,0.422,133.179,32.471,86.914
0.924,-0.348,0.416,125.488,34.851,84.29
0.975,-0.293,0.46,118.103,35.706,78.735
0.929,-0.274,0.439,111.938,30.151,74.707
0.933,-0.222,0.455,106.995,25.085,72.083
0.901,-0.219,0.429,103.821,20.447,70.19
0.897,-0.18,0.467,100.891,19.409,68.115
0.879,-0.172,0.447,98.755,17.212,67.322
0.847,-0.164,0.439,95.581,16.846,66.589
0.843,-0.129,0.472,92.529,18.372,64.941
0.829,-0.153,0.438,89.478,18.066,63.416
0.804,-0.12,0.461,85.083,19.592,59.387
0.773,-0.141,0.423,80.872,20.996,56.702
0.734,-0.129,0.426,75.684,25.94,54.382
0.748,-0.13,0.433,70.313,33.264,52.307
0.752,-0.148,0.402,65.002,40.771,50.11
1.168,-0.751,0.875,-87.28,-28.809,-45.776
1.191,-0.847,0.865,-97.168,-41.931,-49.377
1.19,-0.95,0.842,-107.605,-54.749,-52.612
1.175,-1.07,0.8,-118.225,-64.941,-56.885
1.167,-1.204,0.745,-131.165,-71.594,-62.561
1.15,-1.365,0.698,-145.996,-75.134,-68.176
1.144,-1.543,0.667,-163.208,-76.965,-72.388
1.13,-1.747,0.606,-183.594,-79.407,-77.148
1.063,-1.997,0.46,-207.703,-81.97,-87.341
1.017,-2.197,0.243,-236.816,-77.759,-104.553
1.088,-2.339,0.057,-271.301,-62.927,-123.901
1.251,-2.474,-0.144,-307.068,-44.617,-142.7
1.47,-2.55,-0.392,-344.299,-27.832,-161.377
1.694,-2.558,-0.615,-380.676,-12.756,-179.382
1.886,-2.433,-0.757,-411.499,2.869,-194.702
2.122,-2.273,-0.851,-432.556,21.606,-205.139
2.336,-2.071,-0.989,-444.458,41.504,-213.928
2.373,-1.871,-1.229,-454.834,61.279,-219.971
2.291,-1.642,-1.497,-470.52,78.552,-214.6
2.201,-1.385,-1.803,-489.441,87.28,-197.083
2.139,-1.105,-2.059,-504.456,82.397,-179.321
2.045,-0.794,-2.164,-512.817,64.209,-168.762
1.92,-0.501,-2.186,-509.827,31.921,-163.33
1.787,-0.259,-2.197,-494.263,-8.423,-163.33
1.6,-0.01,-2.179,-469.36,-46.204,-166.626
1.465,0.257,-2.118,-436.401,-77.576,-169.556
1.392,0.47,-2.025,-393.677,-101.44,-171.631
1.329,0.64,-1.893,-346.191,-117.554,-173.645
1.295,0.785,-1.718,-300.598,-126.038,-174.927
1.258,0.881,-1.527,-259.216,-127.808,-175.537
1.206,0.943,-1.357,-224.426,-123.657,-174.316
1.141,0.984,-1.205,-199.036,-113.77,-170.715
1.068,1.015,-1.078,-182.068,-98.389,-165.222
1.022,1.036,-0.969,-172.607,-79.468,-157.41
0.969,1.069,-0.886,-170.593,-60.852,-148.01
0.928,1.131,-0.839,-173.34,-44.006,-138.0
0.93,1.225,-0.788,-176.88,-28.503,-128.723
0.964,1.342,-0.727,-176.636,-15.991,-118.652
0.998,1.439,-0.69,-168.64,-8.362,-107.91
1.037,1.498,-0.663,-152.283,-4.456,-96.68
1.035,1.516,-0.636,-130.615,-2.625,-84.656
1.018,1.502,-0.599,-105.774,-0.488,-72.571
1.01,1.436,-0.551,-80.505,5.066,-61.89
1.03,1.361,-0.485,-57.678,13.916,-51.514
1.077,1.279,-0.413,-38.452,23.743,-39.978
1.162,1.187,-0.328,-23.315,30.884,-26.489
1.22,1.117,-0.254,-12.634,31.189,-10.742
1.23,1.041,-0.212,-3.845,25.391,4.456
1.206,0.985,-0.187,2.502,17.395,18.86
1.162,0.947,-0.171,8.057,9.827,30.823
1.119,0.911,-0.166,15.259,5.249,38.94
1.104,0.888,-0.152,25.085,6.409,42.542
1.119,0.877,-0.117,37.537,13.306,43.579
1.146,0.784,-0.115,52.551,23.437,44.8
1.211,0.781,-0.044,66.589,33.569,43.945
1.304,0.709,-0.035,82.886,37.964,45.227
1.347,0.623,-0.004,98.389,36.987,48.34
1.416,0.579,0.03,110.229,32.41,54.443
1.456,0.511,0.043,121.277,23.56,64.758
1.442,0.442,0.022,130.432,12.268,75.623
1.373,0.391,-0.01,136.23,1.831,86.548
1.33,0.369,-0.009,140.32,-5.737,95.825
1.301,0.317,-0.027,145.081,-11.414,102.6
1.247,0.264,-0.08,149.902,-16.113,106.384
1.194,0.24,-0.107,154.541,-17.456,108.215
1.177,0.222,-0.13,160.461,-16.479,109.924
1.159,0.207,-0.143,167.542,-13.977,112.427
1.154,0.177,-0.157,175.11,-11.353,115.479
1.171,0.172,-0.142,182.983,-10.193,118.164
1.196,0.129,-0.145,191.65,-10.864,121.948
1.137,0.048,-0.183,200.012,-13.123,124.451
1.133,0.04,-0.152,205.505,-12.817,124.329
1.125,-0.009,-0.148,211.914,-11.658,124.695
1.139,0.051,-0.094,213.684,-9.155,123.962
1.134,-0.051,-0.112,216.064,-9.216,130.249
1.149,-0.107,-0.13,215.942,-9.094,137.024
1.204,-0.074,-0.062,215.027,-6.348,137.939
1.12,-0.115,-0.152,216.248,-8.85,136.047
1.105,-0.126,-0.131,216.614,-4.333,133.606
1.124,-0.082,-0.094,219.91,1.892,129.456
1.124,-0.227,-0.214,225.647,6.653,130.066
1.023,-0.201,-0.137,229.675,16.663,125.0
1.22,-0.067,-0.006,230.225,25.146,120.422
1.226,-0.228,-0.114,235.718,21.545,125.183
1.244,-0.185,-0.045,235.107,19.958,125.732
1.278,-0.207,-0.04,236.084,14.709,126.892
1.262,-0.22,-0.039,237.549,7.996,126.587
1.263,-0.214,-0.016,239.197,2.38,125.549
1.234,-0.245,-0.021,241.577,-2.075,125.61
1.218,-0.254,0.006,242.554,-3.906,126.343
1.214,-0.265,0.032,243.164,-4.7,127.136
1.18,-0.297,0.036,242.493,-5.066,127.869
1.132,-0.319,0.058,240.173,-3.601,128.052
1.108,-0.332,0.092,236.938,-0.427,127.197
1.087,-0.365,0.111,232.849,2.991,125.916
1.046,-0.379,0.134,226.746,7.751,123.779
1.031,-0.385,0.169,219.788,12.756,121.826
1.026,-0.389,0.2,211.975,16.602,119.446
1.005,-0.404,0.213,203.552,18.921,116.211
0.97,-0.399,0.226,195.068,21.423,112.549
0.937,-0.399,0.237,186.646,24.353,109.009
0.918,-0.406,0.252,179.077,28.076,105.774
0.908,-0.409,0.27,172.302,31.25,102.112
0.919,-0.406,0.3,166.138,33.142,97.534
0.946,-0.404,0.326,160.828,32.837,92.834
0.967,-0.41,0.351,156.25,30.212,88.196
1.006,-0.413,0.382,151.917,26.55,84.351
1.024,-0.408,0.406,147.705,22.217,81.726
1.027,-0.419,0.433,143.555,17.395,79.956
1.0,-0.424,0.445,139.038,12.207,78.369
0.953,-0.413,0.448,133.545,8.606,76.294
0.924,-0.417,0.463,127.686,7.935,73.975
0.897,-0.422,0.474,121.338,9.46,71.045
0.865,-0.411,0.482,113.525,13.306,68.054
0.822,-0.425,0.474,104.492,18.982,64.575
0.758,-0.418,0.447,94.177,26.978,59.509
0.754,-0.385,0.442,83.313,39.063,52.856
0.786,-0.359,0.458,72.876,51.27,47.302
0.813,-0.339,0.457,63.232,59.143,42.419
1.135,-0.554,1.142,-30.151,-38.33,-3.662
1.109,-0.748,1.218,-42.725,-40.161,-7.385
1.1,-0.953,1.279,-58.838,-37.598,-14.221
1.101,-1.219,1.316,-77.759,-32.166,-22.766
1.075,-1.503,1.312,-100.708,-25.269,-31.921
1.006,-1.802,1.264,-128.357,-16.296,-41.016
0.941,-2.092,1.128,-158.63,-3.235,-51.88
0.904,-2.347,0.918,-192.566,15.991,-65.796
0.928,-2.521,0.659,-230.347,39.551,-81.177
0.997,-2.656,0.349,-268.188,64.453,-96.313
1.145,-2.688,0.024,-306.213,85.815,-108.215
1.404,-2.625,-0.314,-343.567,97.717,-117.004
1.723,-2.508,-0.714,-374.146,95.642,-126.16
2.036,-2.267,-1.077,-400.635,77.515,-132.019
2.263,-1.868,-1.32,-419.983,47.058,-132.202
2.167,-1.558,-1.616,-426.758,6.714,-126.099
1.971,-1.301,-1.949,-425.903,-30.701,-116.821
1.695,-1.049,-2.295,-423.645,-53.833,-115.479
1.438,-0.715,-2.493,-421.875,-56.458,-123.413
1.335,-0.401,-2.546,-417.114,-47.363,-129.822
1.284,-0.093,-2.507,-407.776,-39.429,-131.775
1.228,0.153,-2.442,-392.395,-40.71,-131.836
1.194,0.339,-2.319,-373.596,-51.27,-131.653
1.16,0.509,-2.226,-357.056,-69.153,-128.662
1.105,0.795,-2.059,-340.881,-89.966,-125.854
1.005,1.051,-1.868,-315.43,-107.056,-126.404
0.995,1.241,-1.686,-281.067,-116.272,-128.967
1.082,1.367,-1.447,-243.896,-116.638,-131.653
1.151,1.419,-1.261,-207.458,-110.474,-132.568
1.202,1.47,-1.141,-176.086,-98.45,-127.441
1.222,1.473,-1.023,-150.024,-80.627,-118.225
1.21,1.395,-0.901,-127.38,-59.57,-106.018
1.22,1.269,-0.777,-111.572,-39.368,-87.891
1.22,1.156,-0.669,-105.408,-23.743,-64.88
1.129,1.045,-0.617,-106.384,-14.587,-43.884
0.973,0.986,-0.594,-110.229,-7.874,-29.114
0.86,0.95,-0.562,-111.877,1.16,-20.142
0.824,0.922,-0.515,-108.826,12.024,-15.32
0.854,0.893,-0.463,-100.159,21.362,-13.672
0.925,0.872,-0.372,-87.097,27.161,-12.817
0.993,0.832,-0.258,-70.984,27.344,-8.789
1.029,0.768,-0.149,-53.528,21.667,-1.16
1.035,0.695,-0.057,-37.231,12.512,8.301
1.019,0.6,0.047,-23.865,2.747,15.93
0.964,0.491,0.095,-14.343,-4.517,20.996
0.905,0.418,0.134,-9.399,-6.531,24.231
0.877,0.4,0.149,-7.935,-2.747,24.597
0.871,0.418,0.179,-6.226,4.578,20.081
0.899,0.442,0.221,-1.465,14.282,13.062
0.991,0.452,0.277,6.042,24.414,8.606
1.09,0.457,0.334,15.564,30.334,8.301
1.162,0.449,0.38,27.283,28.992,9.705
1.2,0.417,0.424,39.307,21.851,11.597
1.191,0.374,0.426,50.964,10.803,15.259
1.134,0.32,0.365,60.059,-0.916,19.226
1.081,0.294,0.304,65.735,-9.155,20.63
1.051,0.279,0.273,69.214,-13.184,20.569
1.06,0.254,0.248,72.083,-14.954,22.217
1.077,0.264,0.227,73.792,-15.869,26.245
1.081,0.28,0.204,75.928,-17.883,29.907
1.062,0.311,0.175,79.163,-21.179,33.569
1.005,0.333,0.129,83.252,-24.78,36.987
1.001,0.428,0.134,89.417,-26.489,38.879
0.952,0.448,0.079,99.426,-28.137,40.955
0.879,0.413,0.003,109.619,-27.466,41.321
0.898,0.493,0.054,117.981,-20.996,38.452
0.915,0.459,0.036,127.136,-16.602,38.269
1.015,0.441,0.041,135.254,-16.113,39.734
0.954,0.41,-0.009,140.076,-19.47,40.527
1.032,0.398,0.033,143.066,-22.461,43.884
1.063,0.376,0.022,145.386,-27.222,47.607
1.064,0.342,-0.014,145.752,-33.63,51.514
1.044,0.367,-0.041,143.921,-36.56,53.772
1.027,0.37,-0.064,143.982,-36.194,55.237
1.036,0.376,-0.079,146.79,-32.349,56.03
1.041,0.371,-0.102,151.489,-28.992,57.8
1.056,0.374,-0.09,156.616,-24.963,59.509
1.083,0.323,-0.101,162.598,-22.339,62.134
1.093,0.283,-0.115,167.725,-21.362,64.758
1.093,0.251,-0.112,171.021,-20.264,66.833
1.113,0.22,-0.114,173.767,-19.043,69.336
1.121,0.177,-0.127,175.964,-17.761,71.777
1.097,0.132,-0.149,177.612,-16.052,73.975
1.113,0.124,-0.125,178.467,-12.878,75.256
1.12,0.113,-0.117,180.054,-11.414,76.538
1.125,0.111,-0.12,182.861,-12.817,78.369
1.097,0.077,-0.135,186.89,-14.16,81.055
1.093,0.056,-0.122,190.063,-12.573,83.374
1.072,0.024,-0.119,193.054,-9.949,84.656
1.075,0.004,-0.104,194.763,-6.836,84.839
1.133,-0.02,-0.079,195.007,-4.517,85.388
1.166,-0.068,-0.073,194.458,-4.456,85.205
1.104,-0.126,-0.116,192.322,-5.554,83.191
1.112,-0.068,-0.052,187.683,-1.831,79.285
1.198,-0.06,-0.006,185.974,0.0,78.186
1.241,-0.105,-0.016,186.462,-3.418,80.078
1.233,-0.106,0.006,185.303,-8.057,81.665
1.191,-0.122,-0.003,184.509,-13.611,82.458
1.122,-0.146,-0.01,183.533,-16.785,83.374
1.108,-0.144,0.012,181.335,-15.625,84.045
1.095,-0.168,0.01,179.565,-13.977,84.9
1.092,-0.185,0.028,176.758,-11.23,84.778
1.084,-0.183,0.042,173.462,-9.094,84.106
1.063,-0.173,0.055,170.593,-7.08,84.167
1.053,-0.172,0.07,167.969,-4.395,84.961
1.041,-0.182,0.082,165.833,-0.916,86.792
1.044,-0.179,0.112,163.818,2.747,87.28
1.024,-0.198,0.121,161.438,5.31,87.708
0.991,-0.208,0.126,157.776,8.606,88.257
0.968,-0.2,0.146,153.259,12.573,87.83
0.958,-0.208,0.152,148.682,16.052,87.036
0.941,-0.211,0.16,142.7,18.738,86.243
0.948,-0.204,0.185,136.841,20.508,85.571
0.95,-0.204,0.186,132.568,19.653,84.778
0.947,-0.209,0.202,129.333,18.188,82.703
0.94,-0.217,0.215,127.197,16.479,79.346
0.927,-0.226,0.223,125.061,14.954,75.684
0.92,-0.228,0.235,122.864,14.771,72.205
0.931,-0.25,0.246,120.3,15.259,68.481
1.469,-0.734,-0.432,-257.69,-71.777,-110.779
1.461,-0.775,-0.502,-259.949,-74.951,-113.342
1.422,-0.808,-0.568,-263.611,-73.853,-114.807
1.384,-0.862,-0.637,-269.409,-68.665,-116.577
1.365,-0.942,-0.704,-276.978,-59.57,-121.277
1.378,-1.018,-0.77,-287.048,-48.34,-128.113
1.391,-1.095,-0.843,-299.194,-38.025,-135.62
1.41,-1.179,-0.957,-312.805,-30.396,-143.86
1.425,-1.195,-1.106,-329.102,-24.536,-152.527
1.443,-1.135,-1.233,-346.741,-17.883,-159.973
1.462,-1.019,-1.325,-359.985,-10.01,-164.124
1.488,-0.857,-1.378,-365.112,-2.136,-166.016
1.524,-0.703,-1.41,-362.122,3.296,-166.626
1.554,-0.566,-1.426,-352.661,4.272,-166.992
1.582,-0.435,-1.418,-339.355,1.526,-166.87
1.599,-0.326,-1.395,-325.256,-4.456,-166.26
1.59,-0.232,-1.368,-311.829,-12.207,-164.917
1.582,-0.132,-1.335,-302.246,-19.653,-162.292
1.568,-0.016,-1.301,-295.898,-25.696,-159.363
1.526,0.112,-1.271,-291.26,-29.541,-157.776
1.491,0.233,-1.235,-286.499,-29.541,-157.166
1.447,0.348,-1.195,-281.433,-25.635,-155.945
1.413,0.439,-1.16,-275.085,-18.86,-153.503
1.374,0.529,-1.132,-268.311,-10.559,-150.757
1.349,0.627,-1.091,-261.597,-1.648,-147.522
1.35,0.701,-1.041,-252.93,7.08,-144.287
1.359,0.788,-0.988,-243.591,13.611,-140.625
1.361,0.873,-0.93,-232.605,17.212,-135.437
1.36,0.958,-0.867,-220.398,18.066,-128.052
1.376,1.034,-0.801,-207.642,16.113,-119.263
1.39,1.115,-0.729,-194.641,12.085,-110.168
1.383,1.198,-0.657,-180.847,6.226,-99.426
1.357,1.272,-0.591,-167.114,0.061,-87.036
1.305,1.321,-0.537,-152.71,-5.127,-74.646
1.251,1.355,-0.484,-138.123,-8.301,-63.538
1.202,1.375,-0.435,-122.62,-9.277,-54.443
1.147,1.376,-0.392,-106.995,-7.385,-46.936
1.1,1.373,-0.354,-90.698,-3.174,-39.246
1.073,1.36,-0.319,-75.073,1.953,-30.823
1.06,1.339,-0.284,-59.082,5.92,-22.217
1.058,1.302,-0.254,-43.152,7.507,-13.428
1.07,1.254,-0.233,-28.198,6.836,-4.333
1.068,1.19,-0.228,-14.465,4.578,5.676
1.054,1.126,-0.239,-2.93,1.343,16.113
1.053,1.078,-0.248,6.897,-1.16,25.94
1.023,1.035,-0.268,16.968,-3.174,34.363
1.018,1.001,-0.284,27.954,-3.723,41.87
1.001,0.951,-0.31,39.612,-2.319,48.218
1.003,0.891,-0.32,52.49,1.282,51.941
1.038,0.847,-0.308,66.223,7.568,54.077
1.104,0.78,-0.295,80.139,12.939,56.946
1.194,0.711,-0.268,93.628,15.198,61.707
1.25,0.643,-0.256,106.201,13.428,66.895
1.279,0.588,-0.242,117.371,8.423,72.51
1.278,0.535,-0.237,128.052,2.563,78.064
1.257,0.477,-0.249,137.634,-1.77,83.313
1.281,0.444,-0.235,146.179,-4.944,87.83
1.24,0.38,-0.252,154.48,-7.385,91.003
1.239,0.344,-0.238,161.621,-8.911,93.201
1.226,0.286,-0.262,169.312,-10.986,96.741
1.193,0.245,-0.266,175.903,-10.071,97.595
1.189,0.24,-0.243,183.044,-8.484,97.595
1.221,0.182,-0.254,190.918,-6.958,99.609
1.178,0.136,-0.277,197.754,-5.859,100.22
1.131,0.125,-0.262,202.698,-3.235,100.22
1.169,0.127,-0.212,207.458,-0.366,101.746
1.21,0.075,-0.225,213.196,-1.282,104.431
1.206,0.033,-0.23,215.942,-4.639,106.873
1.173,0.034,-0.228,216.736,-8.24,107.483
1.128,0.027,-0.248,218.323,-10.559,107.971
1.115,0.016,-0.253,220.52,-9.644,107.788
1.125,0.001,-0.252,223.572,-6.775,106.384
1.127,-0.017,-0.257,227.051,-3.845,104.37
1.154,-0.024,-0.228,229.431,-0.61,102.905
1.174,-0.053,-0.216,231.567,0.916,102.661
1.19,-0.074,-0.203,232.849,0.366,102.6
1.198,-0.102,-0.196,232.544,-0.916,102.478
1.165,-0.119,-0.195,231.445,-1.587,101.44
1.157,-0.116,-0.17,229.919,-0.366,99.976
1.155,-0.136,-0.161,228.76,1.648,99.121
1.156,-0.149,-0.148,226.99,3.601,98.45
1.107,-0.17,-0.154,224.609,5.798,97.351
0.99,-0.188,-0.187,221.436,10.62,95.215
0.958,-0.219,-0.165,217.712,22.766,91.492
0.934,-0.041,-0.027,211.975,40.222,81.055
1.29,-0.138,0.042,209.839,48.523,80.994
1.093,-0.389,-0.204,212.28,35.217,85.632
1.126,-0.119,0.034,198.364,35.461,76.721
1.124,-0.144,0.005,195.801,29.114,76.66
1.126,-0.218,-0.057,195.007,19.775,79.895
1.122,-0.148,0.023,189.697,16.174,80.75
1.032,-0.192,-0.021,186.096,13.306,82.458
1.065,-0.185,-0.001,183.105,12.878,83.862
1.049,-0.189,0.057,179.138,14.587,82.947
1.065,-0.244,0.025,175.171,11.169,82.031
0.946,-0.218,0.042,167.786,9.216,80.017
1.054,-0.15,0.138,160.217,9.766,78.979
0.864,-0.312,-0.047,154.297,7.874,78.979
0.875,-0.141,0.125,143.494,17.517,75.073
0.897,-0.271,0.002,139.465,23.254,74.219
0.932,-0.213,0.11,132.019,33.508,68.848
0.866,-0.196,0.073,125.793,38.696,64.758
0.898,-0.226,0.074,119.629,44.128,65.674
0.896,-0.166,0.121,113.831,53.04,61.584
0.931,-0.192,0.11,110.596,58.228,58.716
0.944,-0.145,0.168,105.713,61.584,58.044
0.963,-0.136,0.176,102.234,60.913,59.57
0.953,-0.11,0.201,99.976,58.167,59.265
0.948,-0.088,0.223,98.145,54.321,58.289
0.948,-0.082,0.24,96.497,48.95,57.922
0.934,-0.058,0.27,94.299,42.847,57.312
0.923,-0.061,0.269,90.759,35.156,57.861
0.887,-0.054,0.258,85.327,28.687,58.167
0.855,-0.057,0.242,79.529,25.757,57.617
0.846,-0.049,0.233,72.632,27.283,55.969
0.836,-0.036,0.218,66.711,31.555,52.551
0.852,-0.015,0.22,61.89,37.964,48.828
0.861,0.002,0.215,59.448,45.105,45.166
0.877,0.005,0.213,57.739,52.368,42.053
1.474,-0.903,-0.387,-222.595,-65.43,-70.435
1.43,-0.925,-0.508,-238.342,-69.641,-71.655
1.366,-0.933,-0.631,-251.831,-67.749,-73.303
1.303,-0.948,-0.751,-263.977,-58.289,-76.782
1.272,-0.986,-0.877,-274.902,-42.664,-82.397
1.261,-0.991,-0.987,-287.109,-24.231,-88.379
1.294,-0.975,-1.069,-302.063,-6.714,-92.041
1.375,-0.94,-1.138,-317.749,5.676,-92.834
1.411,-0.862,-1.206,-331.848,10.437,-94.055
1.41,-0.782,-1.289,-341.614,7.874,-97.046
1.353,-0.684,-1.403,-348.511,1.099,-101.624
1.265,-0.573,-1.531,-354.126,-4.822,-106.14
1.189,-0.46,-1.675,-360.291,-7.935,-109.497
1.121,-0.305,-1.786,-366.76,-6.348,-112.305
1.112,-0.127,-1.833,-370.544,-1.099,-115.601
1.11,0.05,-1.823,-369.08,5.249,-121.582
1.097,0.192,-1.761,-360.84,10.559,-128.296
1.131,0.29,-1.664,-348.389,12.695,-132.629
1.178,0.376,-1.559,-334.595,10.132,-135.071
1.219,0.461,-1.431,-320.862,2.014,-137.329
1.232,0.537,-1.335,-308.777,-9.949,-140.32
1.222,0.567,-1.317,-299.255,-22.522,-145.142
1.217,0.622,-1.3,-295.227,-29.968,-149.78
1.238,0.677,-1.274,-294.067,-29.907,-152.405
1.26,0.728,-1.248,-294.434,-23.987,-151.611
1.306,0.784,-1.217,-295.105,-14.099,-145.935
1.326,0.868,-1.182,-294.067,-2.869,-136.536
1.342,0.97,-1.145,-289.001,7.507,-124.695
1.364,1.07,-1.076,-278.076,14.526,-112.732
1.37,1.159,-1.014,-262.39,16.418,-103.088
1.37,1.224,-0.957,-242.676,13.672,-96.558
1.365,1.273,-0.894,-221.558,7.751,-91.125
1.344,1.312,-0.833,-200.439,0.122,-84.717
1.293,1.339,-0.786,-180.481,-7.69,-75.623
1.219,1.358,-0.747,-161.682,-14.221,-64.88
1.048,1.365,-0.735,-144.226,-17.395,-53.284
1.063,1.365,-0.676,-127.747,-14.221,-42.236
1.009,1.361,-0.633,-110.657,-7.751,-34.18
0.988,1.346,-0.584,-93.872,-1.404,-28.015
0.982,1.326,-0.557,-76.66,3.601,-22.034
0.982,1.293,-0.519,-57.251,8.179,-15.93
0.98,1.289,-0.496,-38.94,12.512,-10.559
1.034,1.226,-0.433,-19.287,15.503,-3.784
1.095,1.133,-0.411,-0.793,13.855,3.357
1.109,1.081,-0.379,15.93,9.46,8.484
1.106,1.004,-0.359,31.799,3.418,14.954
1.114,0.931,-0.336,47.791,-1.343,20.813
1.099,0.832,-0.336,62.927,-3.967,25.94
1.084,0.754,-0.323,76.721,-4.211,30.701
1.07,0.675,-0.321,89.233,-2.625,34.424
1.065,0.586,-0.33,101.318,0.366,36.377
1.056,0.507,-0.332,112.366,4.395,36.194
1.083,0.433,-0.325,122.253,8.179,35.828
1.06,0.337,-0.359,131.836,10.315,35.889
1.097,0.315,-0.347,141.113,12.512,35.217
1.11,0.233,-0.358,151.245,13.489,36.438
1.186,0.186,-0.356,161.621,11.658,37.415
1.221,0.11,-0.389,172.485,5.798,39.185
1.231,0.1,-0.384,182.068,-0.977,41.199
1.241,0.1,-0.38,192.322,-9.46,45.288
1.216,0.048,-0.418,203.796,-19.043,50.354
1.184,0.022,-0.423,213.928,-26.855,53.162
1.143,-0.016,-0.432,222.9,-32.227,53.528
1.106,-0.048,-0.428,231.384,-34.546,52.185
1.089,-0.067,-0.413,237.61,-33.508,52.551
1.089,-0.098,-0.403,242.859,-30.945,53.833
1.094,-0.123,-0.392,247.375,-28.015,54.443
1.103,-0.136,-0.373,250.61,-25.696,53.528
1.118,-0.144,-0.346,252.747,-25.452,51.819
1.137,-0.149,-0.306,255.127,-27.283,50.293
1.135,-0.163,-0.272,257.263,-31.067,48.34
1.119,-0.17,-0.239,259.216,-35.278,45.776
1.1,-0.189,-0.224,260.132,-38.086,43.457
1.091,-0.217,-0.215,257.935,-38.452,42.114
1.075,-0.233,-0.209,251.404,-36.743,41.199
1.066,-0.22,-0.198,241.455,-32.959,40.161
1.104,-0.191,-0.192,229.614,-27.344,39.734
1.155,-0.166,-0.198,219.421,-21.79,41.504
1.116,-0.151,-0.22,211.365,-17.212,44.25
1.114,-0.093,-0.22,205.444,-12.329,46.082
1.133,-0.062,-0.197,203.491,-7.385,47.18
1.171,-0.056,-0.185,203.735,-5.676,48.035
1.165,-0.065,-0.182,202.759,-7.324,49.5
1.175,-0.066,-0.156,202.148,-12.573,51.941
1.155,-0.064,-0.135,200.928,-19.592,54.81
1.129,-0.073,-0.121,198.669,-26.611,58.716
1.101,-0.074,-0.102,195.74,-32.227,63.232
1.046,-0.066,-0.093,191.956,-35.522,66.406
1.007,-0.069,-0.082,187.683,-35.583,68.726
0.97,-0.073,-0.072,183.289,-32.227,69.946
0.947,-0.077,-0.057,178.284,-26.489,70.435
0.958,-0.079,-0.033,172.363,-18.738,70.679
0.966,-0.079,-0.014,166.138,-11.597,70.496
0.987,-0.081,0.001,159.424,-5.981,70.496
1.007,-0.09,0.018,152.466,-1.953,70.068
1.036,-0.094,0.04,146.179,-0.122,68.054
1.068,-0.088,0.064,140.503,-0.427,65.796
1.105,-0.085,0.089,135.681,-2.625,64.392
1.116,-0.098,0.094,131.897,-6.653,63.965
1.1,-0.094,0.099,128.113,-10.986,64.941
1.054,-0.103,0.087,124.451,-14.648,66.772
0.996,-0.125,0.06,120.117,-15.686,68.848
0.93,-0.138,0.038,114.441,-13.367,70.435
0.866,-0.139,0.019,107.849,-8.667,70.679
0.812,-0.141,0.003,101.563,-2.502,69.031
0.775,-0.127,-0.002,96.436,5.554,65.369
0.764,-0.116,0.0,93.201,14.648,59.57
0.788,-0.128,0.011,91.858,23.254,53.223
0.848,-0.138,0.046,90.881,29.785,47.546
0.915,-0.14,0.092,90.21,32.41,42.969
0.976,-0.145,0.132,89.783,30.334,39.551
1.028,-0.149,0.163,88.196,25.085,37.476
1.051,-0.151,0.188,85.815,17.639,36.377
1.063,-0.151,0.206,82.886,9.705,36.438
1.073,-0.152,0.215,79.224,2.625,37.415
1.061,-0.15,0.211,75.378,-2.625,37.964
1.037,-0.147,0.201,71.594,-5.432,38.147
1.023,-0.147,0.192,67.261,-4.944,38.635
1.006,-0.139,0.179,63.293,-1.892,38.513
1.274,-0.596,-0.705,-275.024,-4.517,-85.938
1.264,-0.502,-0.777,-295.166,-2.441,-90.576
1.236,-0.408,-0.859,-311.462,-4.883,-93.323
1.196,-0.296,-0.952,-322.632,-9.033,-94.543
1.156,-0.181,-1.033,-328.613,-12.024,-96.008
1.093,-0.043,-1.095,-329.895,-12.939,-96.985
1.016,0.076,-1.141,-327.209,-11.658,-97.9
0.95,0.169,-1.18,-321.228,-8.728,-99.792
0.905,0.258,-1.19,-313.171,-4.089,-103.088
0.89,0.332,-1.159,-303.955,0.0,-106.995
0.911,0.373,-1.13,-294.312,0.427,-111.572
0.929,0.414,-1.116,-285.461,-3.662,-117.188
0.948,0.479,-1.081,-278.137,-9.766,-123.352
0.948,0.546,-1.047,-270.203,-15.259,-129.333
0.926,0.604,-1.025,-262.268,-16.724,-133.911
0.904,0.661,-0.992,-254.883,-11.353,-136.353
0.9,0.715,-0.946,-248.535,-0.427,-136.292
0.939,0.756,-0.901,-243.286,14.465,-134.399
1.002,0.803,-0.866,-239.38,29.602,-131.348
1.107,0.865,-0.846,-236.755,40.344,-126.16
1.269,0.944,-0.825,-233.276,42.48,-118.713
1.412,1.047,-0.815,-227.783,32.41,-111.633
1.464,1.159,-0.827,-217.224,12.39,-106.079
1.45,1.261,-0.844,-201.233,-8.728,-100.159
1.398,1.327,-0.847,-179.199,-24.353,-93.201
1.341,1.35,-0.826,-154.663,-30.64,-85.754
1.284,1.351,-0.775,-130.371,-28.137,-78.064
1.236,1.332,-0.718,-108.337,-19.714,-69.031
1.186,1.284,-0.685,-89.111,-9.033,-59.204
1.145,1.251,-0.647,-75.073,2.808,-49.133
0.989,1.204,-0.67,-64.087,14.465,-38.696
1.217,1.257,-0.515,-54.443,28.748,-30.64
1.128,1.177,-0.514,-40.71,33.386,-22.583
1.151,1.113,-0.507,-26.123,26.184,-11.475
1.199,1.137,-0.401,-12.939,17.944,-5.188
1.133,1.073,-0.403,7.141,5.188,-1.282
1.207,1.005,-0.342,25.391,-5.92,4.944
1.16,0.954,-0.332,45.044,-17.822,9.277
1.132,0.863,-0.34,64.209,-27.039,15.442
1.116,0.785,-0.312,81.421,-30.945,21.484
1.119,0.682,-0.307,97.229,-31.311,26.611
1.111,0.588,-0.291,110.352,-29.297,30.151
1.138,0.509,-0.267,121.094,-25.574,32.898
1.136,0.421,-0.272,130.615,-22.949,35.583
1.114,0.36,-0.287,138.489,-19.897,38.818
1.098,0.3,-0.305,145.691,-15.808,42.969
1.076,0.258,-0.324,152.222,-11.353,47.363
1.041,0.223,-0.344,158.936,-7.141,51.331
1.014,0.204,-0.358,166.26,-3.479,53.711
0.986,0.172,-0.379,174.255,-0.854,53.772
1.036,0.17,-0.336,182.922,0.854,52.795
1.009,0.076,-0.403,192.505,-1.892,52.979
1.038,0.098,-0.354,200.012,-5.798,51.147
1.023,0.055,-0.398,208.618,-11.414,49.927
1.012,0.035,-0.393,217.224,-15.015,48.523
1.013,0.023,-0.386,224.915,-17.029,48.706
1.016,-0.012,-0.388,231.812,-18.188,49.744
1.025,-0.033,-0.374,236.511,-19.226,49.744
1.04,-0.052,-0.361,239.136,-20.325,48.035
1.066,-0.063,-0.348,240.54,-22.339,46.204
1.086,-0.076,-0.338,241.455,-24.109,45.105
1.129,-0.087,-0.318,241.821,-24.902,44.861
1.144,-0.108,-0.316,241.516,-26.001,45.41
1.134,-0.115,-0.31,240.173,-26.611,46.143
1.128,-0.107,-0.299,237.0,-25.146,46.509
1.129,-0.097,-0.289,234.192,-22.827,46.875
1.146,-0.084,-0.271,231.079,-19.897,48.34
1.136,-0.102,-0.289,227.783,-17.883,50.354
1.121,-0.07,-0.27,223.755,-15.503,50.903
1.103,-0.065,-0.277,220.154,-13.0,51.208
1.088,-0.048,-0.279,216.248,-10.01,51.575
1.089,-0.04,-0.282,213.318,-7.385,52.734
1.09,-0.032,-0.279,210.693,-5.615,54.077
1.101,-0.027,-0.27,208.374,-5.371,55.237
1.093,-0.024,-0.271,206.726,-6.836,56.335
1.073,-0.017,-0.275,205.627,-8.789,57.983
1.036,-0.027,-0.292,204.163,-9.827,60.181
1.014,-0.033,-0.295,202.332,-8.972,61.584
0.996,-0.036,-0.298,199.646,-6.592,62.378
0.979,-0.034,-0.301,196.289,-2.991,63.049
0.963,-0.029,-0.308,192.627,0.793,63.293
0.959,-0.026,-0.309,188.843,5.493,62.866
0.978,-0.036,-0.309,184.937,10.498,62.622
1.02,-0.044,-0.297,180.298,14.771,62.439
1.072,-0.039,-0.283,175.842,16.724,62.622
1.1,-0.03,-0.275,171.875,15.381,63.171
1.103,-0.016,-0.259,169.8,11.902,63.599
1.12,-0.014,-0.242,168.762,7.996,64.697
1.13,-0.024,-0.214,168.03,4.211,65.918
1.121,-0.038,-0.191,167.358,0.977,67.383
1.103,-0.07,-0.17,166.016,-0.549,69.946
1.067,-0.065,-0.121,162.598,0.122,72.51
1.029,-0.08,-0.104,158.569,1.343,75.195
0.952,-0.084,-0.089,153.564,4.028,76.538
0.909,-0.106,-0.074,147.766,10.559,75.867
0.891,-0.142,-0.044,141.418,21.545,73.242
0.887,-0.161,-0.004,134.155,33.569,70.068
0.908,-0.194,0.042,127.075,44.128,66.711
0.947,-0.232,0.092,119.69,51.331,62.561
0.999,-0.256,0.143,112.61,54.138,57.983
1.072,-0.268,0.192,106.384,51.697,54.138
1.162,-0.282,0.236,101.44,43.091,51.086
1.199,-0.294,0.271,98.572,28.442,47.913
1.198,-0.315,0.285,97.107,10.376,44.495
1.181,-0.349,0.289,95.947,-6.104,42.114
1.142,-0.379,0.279,93.201,-18.433,40.955
1.099,-0.396,0.273,88.928,-25.024,39.795
1.063,-0.404,0.268,83.069,-25.391,37.72
1.029,-0.403,0.255,76.355,-20.752,35.4
1.01,-0.381,0.251,69.275,-12.329,32.654
0.988,-0.364,0.236,63.293,-2.869,29.358
0.986,-0.342,0.234,56.641,7.263,25.513
1.006,-0.313,0.245,50.842,16.357,22.034
1.051,-0.288,0.26,45.776,21.484,19.592
1.078,-0.255,0.269,41.26,21.606,18.066
1.071,-0.211,0.273,37.048,17.029,17.151
1.044,-0.177,0.26,34.424,10.132,16.479
1.005,-0.151,0.243,32.043,3.845,15.564
0.966,-0.119,0.234,29.785,-0.488,14.893
1.383,-1.15,-0.187,-195.496,-20.996,-33.752
1.413,-1.209,-0.274,-210.022,-31.067,-35.217
1.399,-1.253,-0.387,-222.107,-39.429,-36.987
1.345,-1.313,-0.504,-233.337,-39.612,-39.307
1.325,-1.366,-0.643,-247.314,-29.419,-41.016
1.356,-1.377,-0.811,-265.137,-12.451,-41.809
1.419,-1.296,-0.94,-286.072,7.385,-42.236
1.468,-1.171,-1.024,-306.213,25.635,-40.955
1.477,-1.036,-1.099,-320.374,37.964,-36.316
1.473,-0.938,-1.151,-328.918,43.152,-27.893
1.437,-0.8,-1.189,-334.534,41.199,-19.47
1.38,-0.657,-1.206,-337.036,32.349,-15.381
1.299,-0.563,-1.207,-338.684,16.479,-13.672
1.215,-0.518,-1.213,-341.248,-5.676,-15.381
1.136,-0.493,-1.248,-347.29,-31.189,-21.118
1.057,-0.456,-1.341,-355.591,-57.312,-31.799
0.962,-0.385,-1.448,-365.112,-77.942,-46.753
0.902,-0.278,-1.549,-373.352,-90.271,-61.646
0.876,-0.153,-1.616,-378.113,-94.849,-74.402
0.873,-0.02,-1.67,-376.77,-94.666,-84.29
0.89,0.097,-1.716,-369.324,-92.468,-91.98
0.93,0.218,-1.72,-359.192,-90.759,-97.107
1.012,0.313,-1.713,-347.595,-92.407,-101.074
1.098,0.409,-1.695,-334.29,-98.694,-106.812
1.13,0.509,-1.666,-320.862,-107.971,-113.892
1.106,0.587,-1.655,-306.885,-116.76,-119.324
1.053,0.659,-1.645,-293.274,-119.751,-121.46
1.014,0.737,-1.612,-282.104,-114.258,-120.544
1.001,0.813,-1.579,-270.752,-103.149,-118.103
0.981,0.901,-1.527,-259.827,-89.294,-115.601
0.976,0.993,-1.467,-246.948,-74.219,-114.075
0.982,1.066,-1.414,-231.384,-58.899,-113.098
0.998,1.128,-1.346,-214.478,-43.64,-112.183
0.998,1.177,-1.283,-197.754,-28.87,-109.68
0.972,1.21,-1.224,-182.617,-13.977,-106.079
0.97,1.23,-1.162,-169.312,1.648,-100.281
0.962,1.25,-1.093,-158.569,17.334,-91.736
0.92,1.273,-1.032,-150.024,31.738,-80.627
0.891,1.273,-0.957,-142.395,44.006,-67.81
0.852,1.259,-0.903,-135.376,52.49,-56.458
0.806,1.251,-0.847,-128.54,57.678,-47.913
0.764,1.227,-0.807,-120.483,61.157,-41.687
0.753,1.192,-0.776,-111.45,65.857,-38.025
0.778,1.17,-0.732,-101.379,73.303,-35.767
0.841,1.187,-0.67,-90.088,81.482,-33.081
0.904,1.218,-0.587,-75.073,88.928,-29.297
1.02,1.228,-0.493,-53.833,92.529,-23.376
1.12,1.184,-0.427,-29.053,89.905,-16.113
1.185,1.128,-0.352,-6.47,81.055,-9.583
1.242,1.056,-0.312,14.16,66.162,-3.357
1.26,0.978,-0.309,32.471,48.035,1.404
1.25,0.909,-0.313,49.133,30.884,4.089
1.226,0.826,-0.342,66.345,16.663,5.005
1.228,0.738,-0.37,83.984,8.057,5.127
1.244,0.648,-0.405,102.6,5.432,5.005
1.261,0.568,-0.425,121.704,8.301,5.676
1.271,0.473,-0.45,141.174,13.672,7.69
1.271,0.392,-0.462,159.79,20.447,9.888
1.29,0.306,-0.455,176.575,25.94,11.963
1.291,0.229,-0.442,191.895,26.794,12.939
1.373,0.141,-0.411,204.773,21.179,13.672
1.404,0.09,-0.41,213.806,6.287,14.587
1.377,0.044,-0.429,220.764,-14.16,18.982
1.337,0.072,-0.454,225.708,-35.706,24.17
1.235,0.033,-0.491,233.032,-53.955,29.724
1.178,-0.027,-0.549,243.042,-68.848,33.813
1.11,-0.051,-0.576,252.258,-75.5,35.889
1.085,-0.052,-0.56,260.376,-76.172,37.72
1.027,-0.108,-0.613,267.212,-73.364,42.603
0.943,-0.198,-0.661,270.264,-64.575,46.997
0.88,-0.164,-0.63,268.616,-49.133,45.41
0.844,-0.198,-0.638,266.846,-30.823,42.725
0.883,-0.187,-0.609,263.0,-12.451,38.574
0.931,-0.196,-0.604,258.423,0.366,34.058
0.996,-0.18,-0.581,253.113,7.996,29.541
1.057,-0.166,-0.568,248.169,9.399,25.757
1.109,-0.163,-0.567,244.263,5.127,22.827
1.143,-0.149,-0.566,240.845,-2.075,20.142
1.152,-0.126,-0.569,238.403,-10.193,18.799
1.134,-0.107,-0.568,237.976,-17.578,19.226
1.09,-0.104,-0.568,238.037,-21.362,21.667
1.026,-0.11,-0.556,237.854,-20.752,24.902
0.916,-0.169,-0.556,236.877,-15.625,26.978
1.097,-0.043,-0.419,232.422,-6.348,25.94
1.151,-0.089,-0.383,229.858,-3.296,31.067
1.061,-0.23,-0.502,224.304,-9.399,38.513
1.099,-0.156,-0.309,208.374,-11.353,39.978
1.08,-0.08,-0.318,200.439,-19.775,38.818
1.136,-0.116,-0.314,193.542,-29.358,40.466
1.14,-0.065,-0.282,186.584,-42.114,45.776
1.115,-0.036,-0.32,186.523,-56.458,53.223
1.071,0.018,-0.264,186.035,-64.88,60.974
1.025,0.013,-0.274,191.101,-69.519,67.139
0.98,0.027,-0.222,197.205,-68.604,69.458
0.924,0.0,-0.2,203.186,-65.491,70.007
0.922,-0.022,-0.135,206.543,-59.937,68.115
0.883,-0.083,-0.117,207.153,-54.199,64.453
0.837,-0.116,-0.072,201.66,-45.776,59.631
0.906,-0.172,-0.017,190.613,-34.973,57.129
0.958,-0.2,0.033,174.683,-24.902,54.688
0.977,-0.233,0.019,155.396,-18.005,52.368
1.017,-0.219,0.033,134.216,-11.169,50.171
1.029,-0.199,0.018,115.112,-3.174,47.668
1.042,-0.179,-0.013,100.281,6.47,45.959
1.061,-0.151,-0.036,88.989,18.066,43.762
1.092,-0.124,-0.047,83.374,30.212,41.504
1.13,-0.105,-0.054,82.703,41.138,40.039
1.166,-0.107,-0.037,85.938,49.622,38.879
1.204,-0.121,-0.003,91.064,53.528,38.879
1.227,-0.149,0.024,96.252,52.002,40.039
1.241,-0.19,0.045,99.426,44.983,41.016
1.216,-0.212,0.058,99.854,34.119,40.527
1.15,-0.224,0.052,97.717,22.095,39.978
1.066,-0.215,0.04,93.75,12.085,40.222
0.995,-0.202,0.028,88.928,6.47,41.199
0.937,-0.188,0.023,83.984,5.676,42.175
0.914,-0.164,0.036,78.491,7.446,42.725
0.906,-0.157,0.054,73.669,9.216,41.931
0.906,-0.144,0.07,69.214,9.766,39.673
1.381,-0.582,-0.628,-235.413,-27.405,-46.387
1.367,-0.55,-0.694,-242.554,-31.494,-48.462
1.347,-0.534,-0.745,-248.413,-33.386,-49.5
1.326,-0.524,-0.801,-253.113,-32.898,-50.415
1.312,-0.518,-0.87,-258.911,-31.433,-51.636
1.289,-0.496,-0.94,-266.052,-29.907,-53.284
1.268,-0.447,-0.994,-274.963,-28.564,-55.237
1.256,-0.394,-1.042,-284.729,-28.442,-58.594
1.272,-0.331,-1.083,-293.518,-29.724,-63.477
1.288,-0.265,-1.125,-301.025,-32.227,-69.214
1.261,-0.2,-1.188,-306.885,-34.912,-74.707
1.218,-0.145,-1.262,-311.829,-37.476,-78.674
1.18,-0.096,-1.333,-317.078,-38.086,-80.994
1.152,-0.043,-1.391,-322.937,-36.743,-83.618
1.131,0.018,-1.435,-327.026,-33.997,-87.158
1.124,0.091,-1.471,-330.017,-31.738,-90.698
1.116,0.176,-1.478,-331.665,-30.945,-93.994
1.12,0.251,-1.486,-331.604,-32.043,-96.802
1.096,0.342,-1.494,-330.017,-34.485,-99.06
1.058,0.446,-1.475,-325.928,-36.865,-100.952
1.029,0.556,-1.422,-317.81,-38.086,-103.271
1.028,0.657,-1.353,-305.603,-38.208,-105.042
1.043,0.747,-1.27,-289.856,-38.574,-107.788
1.077,0.831,-1.164,-271.79,-38.391,-111.206
1.102,0.904,-1.054,-253.845,-38.33,-113.953
1.123,0.973,-0.947,-237.61,-38.818,-115.173
1.136,1.022,-0.878,-223.816,-39.795,-114.197
1.122,1.071,-0.86,-213.989,-39.429,-112.244
1.089,1.146,-0.85,-207.825,-34.729,-107.727
0.983,1.21,-0.879,-202.637,-25.391,-99.121
0.975,1.284,-0.854,-196.716,-11.536,-89.355
0.972,1.359,-0.838,-186.829,2.441,-80.933
1.015,1.375,-0.802,-173.462,14.709,-72.571
0.986,1.381,-0.788,-158.447,23.01,-64.941
1.046,1.392,-0.723,-140.991,25.879,-57.739
1.01,1.368,-0.668,-123.23,25.452,-49.316
1.04,1.365,-0.604,-104.309,22.827,-42.847
0.944,1.343,-0.573,-85.083,19.592,-37.781
1.011,1.319,-0.487,-65.613,19.043,-30.518
1.004,1.265,-0.445,-46.814,19.348,-23.987
1.014,1.213,-0.405,-29.785,18.494,-17.883
1.028,1.182,-0.349,-15.808,17.517,-11.536
1.003,1.14,-0.344,-3.296,15.381,-4.639
0.994,1.106,-0.337,8.24,14.709,3.845
0.955,1.038,-0.387,20.325,16.357,12.634
0.941,0.993,-0.413,31.616,23.193,18.616
0.97,0.949,-0.422,43.701,33.02,23.804
1.037,0.878,-0.436,58.044,40.222,28.015
1.119,0.813,-0.442,73.242,42.236,30.518
1.184,0.75,-0.44,89.6,37.537,31.738
1.226,0.683,-0.442,106.384,26.978,32.959
1.251,0.612,-0.449,123.047,13.123,35.156
1.217,0.537,-0.48,137.939,-1.343,38.147
1.152,0.477,-0.517,151.001,-12.878,40.894
1.108,0.416,-0.53,163.513,-19.775,44.312
1.068,0.373,-0.542,174.622,-22.949,46.387
0.995,0.294,-0.585,185.486,-22.583,48.34
0.96,0.234,-0.585,193.909,-17.639,48.828
0.96,0.182,-0.583,200.928,-11.597,48.279
0.976,0.135,-0.596,206.665,-7.141,48.584
1.006,0.093,-0.603,211.365,-4.456,50.354
1.03,0.073,-0.604,216.98,-4.089,51.697
1.032,0.039,-0.623,223.267,-5.31,52.002
1.031,0.018,-0.624,230.103,-6.958,49.805
1.004,-0.015,-0.625,237.244,-7.874,46.082
0.993,-0.049,-0.607,243.225,-7.874,42.664
0.987,-0.093,-0.59,245.728,-7.263,40.466
0.986,-0.152,-0.579,244.629,-6.104,39.063
1.003,-0.18,-0.559,239.563,-3.845,37.964
1.039,-0.18,-0.538,232.239,-1.77,38.635
1.084,-0.183,-0.522,225.525,-1.16,40.894
1.115,-0.189,-0.518,219.971,-1.77,44.373
1.115,-0.164,-0.502,214.417,-2.686,48.828
1.114,-0.13,-0.492,211.182,-2.747,54.688
1.101,-0.109,-0.476,210.327,-0.793,60.486
1.048,-0.112,-0.481,210.449,2.38,64.026
0.987,-0.111,-0.48,208.984,8.423,65.125
0.951,-0.101,-0.458,206.97,17.029,62.927
0.953,-0.103,-0.447,204.651,25.818,57.8
1.003,-0.102,-0.42,200.867,32.166,51.086
1.046,-0.101,-0.41,195.557,34.18,44.861
1.09,-0.092,-0.401,189.88,31.738,40.527
1.124,-0.089,-0.403,183.716,27.893,38.33
1.137,-0.078,-0.417,177.795,24.414,37.964
1.125,-0.059,-0.44,171.875,23.01,37.72
1.102,-0.04,-0.466,167.847,25.757,36.133
1.106,-0.023,-0.477,165.1,32.654,34.241
1.121,-0.016,-0.49,164.49,41.565,31.616
1.154,-0.027,-0.478,165.527,51.025,27.893
1.212,-0.059,-0.452,166.87,58.472,24.841
1.295,-0.086,-0.407,166.87,60.669,24.17
1.382,-0.109,-0.362,166.077,54.993,25.024
1.415,-0.105,-0.31,164.673,41.565,26.123
1.401,-0.105,-0.273,163.574,23.132,28.87
1.335,-0.122,-0.256,162.903,3.662,32.593
1.27,-0.146,-0.227,161.682,-10.62,35.522
1.2,-0.171,-0.197,160.217,-18.86,37.537
1.152,-0.192,-0.146,157.532,-21.301,39.612
1.134,-0.225,-0.093,153.381,-20.264,40.833
1.135,-0.247,-0.03,148.865,-18.066,40.283
1.139,-0.243,0.049,143.738,-16.724,38.452
1.13,-0.25,0.12,139.893,-18.066,36.438
1.126,-0.271,0.171,135.559,-21.912,35.461
1.089,-0.306,0.179,127.869,-27.344,37.109
1.004,-0.324,0.151,115.54,-30.518,38.879
0.923,-0.294,0.145,100.22,-27.405,38.391
0.861,-0.256,0.124,85.388,-17.944,36.56
0.815,-0.231,0.093,72.754,-3.845,33.63
0.802,-0.19,0.082,62.439,14.343,29.419
0.807,-0.156,0.079,55.664,34.18,23.499
0.86,-0.134,0.102,52.185,53.04,16.907
0.968,-0.111,0.155,51.025,66.833,11.23
1.09,-0.124,0.2,51.331,71.045,7.874
1.255,-0.123,0.274,50.598,64.453,8.911
1.304,-0.138,0.292,49.011,45.715,14.526
1.258,-0.121,0.285,45.532,21.301,21.362
1.155,-0.105,0.252,42.48,0.244,26.123
1.043,-0.101,0.211,40.894,-11.78,27.405
0.96,-0.107,0.181,39.063,-14.221,26.428
1.164,-0.659,-0.715,-249.817,22.034,-40.222
1.146,-0.608,-0.787,-259.521,23.193,-37.292
1.13,-0.546,-0.873,-268.188,22.827,-35.95
1.117,-0.491,-0.955,-274.963,22.217,-37.415
1.125,-0.434,-1.017,-279.541,21.912,-40.466
1.148,-0.379,-1.059,-283.508,20.142,-42.908
1.212,-0.344,-1.088,-286.438,15.869,-44.983
1.263,-0.29,-1.125,-289.185,7.874,-46.692
1.286,-0.238,-1.152,-289.795,-2.441,-49.011
1.307,-0.19,-1.169,-288.818,-12.146,-51.575
1.311,-0.144,-1.19,-286.682,-21.667,-52.979
1.294,-0.102,-1.215,-282.41,-29.358,-53.223
1.254,-0.056,-1.236,-278.137,-34.119,-52.49
1.198,-0.022,-1.261,-274.414,-36.255,-51.453
1.134,0.016,-1.3,-272.034,-35.889,-51.453
1.07,0.073,-1.316,-270.691,-32.043,-53.04
1.034,0.13,-1.317,-268.86,-25.391,-54.688
1.026,0.187,-1.305,-266.602,-18.005,-55.725
1.034,0.245,-1.28,-263.306,-11.597,-56.396
1.052,0.309,-1.236,-259.033,-8.789,-56.03
1.077,0.377,-1.203,-253.296,-10.193,-54.138
1.065,0.468,-1.157,-245.728,-14.832,-52.917
1.016,0.55,-1.097,-234.68,-20.447,-52.917
0.957,0.603,-1.038,-220.093,-25.269,-53.589
0.897,0.639,-0.965,-205.688,-27.344,-54.443
0.849,0.648,-0.89,-192.627,-26.428,-55.359
0.814,0.657,-0.823,-182.678,-22.339,-56.396
0.801,0.676,-0.754,-176.331,-14.832,-56.824
0.805,0.694,-0.701,-172.302,-5.249,-56.519
0.825,0.728,-0.662,-169.312,4.883,-56.396
0.869,0.77,-0.624,-166.382,15.625,-56.03
0.936,0.808,-0.595,-161.255,26.184,-54.016
1.008,0.86,-0.558,-155.579,34.851,-50.354
1.069,0.896,-0.529,-147.766,39.917,-44.8
1.194,0.964,-0.465,-138.489,41.443,-38.757
1.164,0.95,-0.491,-127.197,38.086,-32.898
1.193,0.989,-0.434,-115.601,32.776,-27.527
1.245,0.989,-0.412,-101.807,25.94,-21.179
1.209,0.949,-0.419,-89.05,18.25,-14.526
1.172,0.957,-0.413,-78.125,12.024,-8.85
1.147,0.95,-0.418,-67.688,11.23,-3.906
1.123,0.936,-0.417,-55.969,14.709,0.061
1.11,0.902,-0.432,-44.373,20.874,5.188
1.115,0.863,-0.435,-32.776,28.809,10.559
1.125,0.857,-0.422,-21.79,36.438,15.015
1.143,0.79,-0.453,-9.094,41.382,18.616
1.166,0.754,-0.446,3.601,43.884,20.081
1.186,0.73,-0.441,16.785,42.48,20.691
1.179,0.674,-0.453,32.166,37.231,22.278
1.143,0.611,-0.472,47.913,31.067,22.583
1.074,0.543,-0.496,62.683,27.71,20.813
1.019,0.485,-0.505,76.111,28.992,17.7
0.985,0.42,-0.522,89.05,35.095,14.771
0.953,0.35,-0.533,101.685,45.593,12.39
0.953,0.279,-0.533,113.403,58.472,10.132
0.97,0.207,-0.524,123.535,72.205,8.911
1.006,0.16,-0.504,131.592,82.947,8.118
1.019,0.134,-0.498,140.137,87.28,6.47
1.021,0.109,-0.484,149.414,85.938,3.479
1.023,0.068,-0.49,159.729,79.041,-1.404
1.053,0.041,-0.474,169.678,67.444,-6.531
1.085,0.009,-0.475,178.284,50.598,-11.047
1.102,-0.011,-0.484,185.059,28.931,-14.709
1.093,-0.028,-0.502,190.308,4.639,-17.517
1.073,-0.023,-0.525,194.885,-19.104,-18.555
1.01,-0.023,-0.58,199.829,-40.771,-18.433
0.959,-0.037,-0.615,204.59,-56.152,-18.86
0.92,-0.047,-0.642,208.679,-65.063,-20.325
0.906,-0.067,-0.655,211.06,-68.542,-21.118
0.921,-0.083,-0.665,212.585,-68.542,-20.996
0.917,-0.111,-0.686,212.341,-66.162,-20.386
0.953,-0.072,-0.657,210.51,-62.378,-19.897
0.956,-0.093,-0.679,209.9,-59.265,-18.127
0.978,-0.063,-0.668,208.74,-56.335,-16.113
0.963,-0.085,-0.703,207.153,-53.772,-13.184
0.963,-0.066,-0.7,206.299,-50.964,-11.475
0.953,-0.057,-0.701,206.421,-48.645,-9.521
0.962,-0.053,-0.698,207.275,-46.997,-7.385
0.954,-0.052,-0.69,208.496,-45.471,-6.042
0.957,-0.061,-0.687,209.045,-44.373,-5.005
0.959,-0.051,-0.668,209.167,-43.823,-3.479
0.961,-0.06,-0.659,209.595,-43.152,-0.305
0.971,-0.072,-0.647,209.229,-43.03,4.089
0.967,-0.083,-0.638,207.764,-42.969,7.324
0.968,-0.083,-0.629,205.383,-42.542,10.925
0.96,-0.079,-0.621,202.271,-40.955,15.259
0.957,-0.078,-0.615,199.402,-37.964,19.531
0.949,-0.079,-0.61,197.021,-33.813,22.949
0.946,-0.08,-0.601,194.641,-28.625,25.269
0.947,-0.074,-0.587,192.2,-22.705,27.222
0.949,-0.076,-0.578,190.308,-16.785,29.724
0.956,-0.081,-0.564,188.232,-10.986,32.532
0.967,-0.088,-0.559,186.401,-5.859,34.607
0.978,-0.093,-0.549,184.998,-1.892,35.706
0.982,-0.1,-0.537,183.594,1.099,36.56
0.996,-0.109,-0.527,181.946,3.418,37.476
1.011,-0.111,-0.514,179.443,4.883,38.147
1.029,-0.122,-0.502,176.086,5.127,38.757
1.03,-0.126,-0.497,172.729,4.15,39.734
1.027,-0.136,-0.484,169.556,3.235,41.26
1.035,-0.157,-0.472,166.626,2.93,42.908
1.041,-0.162,-0.45,163.269,2.869,44.25
1.042,-0.155,-0.425,160.156,2.502,44.861
1.052,-0.165,-0.404,157.532,1.831,44.617
1.055,-0.176,-0.393,155.64,0.977,43.152
1.076,-0.173,-0.365,155.212,0.366,40.344
1.067,-0.186,-0.341,155.151,0.61,37.231
1.055,-0.226,-0.333,155.518,1.282,34.302
1.027,-0.255,-0.299,154.236,3.967,30.518
0.998,-0.294,-0.266,151.917,8.545,26.672
0.987,-0.346,-0.239,147.644,15.198,22.766
1.002,-0.396,-0.206,140.564,23.682,19.592
1.021,-0.44,-0.168,130.554,31.921,17.7
1.059,-0.463,-0.121,118.225,38.94,17.944
1.112,-0.473,-0.079,104.309,43.518,20.264
1.143,-0.455,-0.043,90.576,44.128,22.522
1.148,-0.416,-0.02,79.346,41.565,24.17
1.144,-0.369,0.001,71.35,36.743,25.391
1.128,-0.329,0.027,67.261,30.273,25.452
1.15,-1.221,-0.411,-144.104,-53.345,-13.245
1.146,-1.284,-0.515,-163.879,-33.02,-12.817
1.182,-1.305,-0.606,-186.035,-10.315,-9.094
1.147,-1.293,-0.714,-207.397,8.484,-5.31
1.079,-1.306,-0.848,-225.281,23.315,-1.77
1.017,-1.266,-0.968,-243.408,35.278,2.197
0.966,-1.161,-1.031,-261.169,44.556,3.418
0.933,-1.078,-1.085,-277.405,49.561,0.366
0.912,-1.024,-1.16,-291.809,48.828,-6.409
0.907,-0.955,-1.222,-307.068,44.617,-16.479
0.895,-0.871,-1.316,-323.914,37.537,-25.635
0.875,-0.747,-1.456,-341.187,28.564,-32.593
0.862,-0.576,-1.586,-357.483,20.813,-39.307
0.871,-0.395,-1.69,-369.873,15.137,-47.546
0.918,-0.23,-1.777,-375.854,11.353,-55.786
0.981,-0.079,-1.865,-377.686,8.362,-63.11
1.036,0.06,-1.917,-376.465,6.714,-68.97
1.11,0.186,-1.934,-373.657,5.493,-71.228
1.195,0.29,-1.94,-369.995,2.014,-70.618
1.251,0.404,-1.93,-365.356,-4.333,-67.871
1.269,0.531,-1.894,-357.727,-13.184,-64.819
1.246,0.656,-1.836,-345.276,-22.705,-63.232
1.188,0.744,-1.76,-328.369,-30.151,-62.683
1.117,0.801,-1.665,-309.998,-34.241,-62.927
1.04,0.843,-1.552,-293.579,-35.034,-62.927
0.979,0.867,-1.451,-280.457,-32.898,-62.134
0.911,0.878,-1.397,-271.667,-28.625,-60.669
0.837,0.915,-1.338,-266.785,-21.545,-58.594
0.784,0.97,-1.268,-263.489,-11.536,-55.664
0.761,1.012,-1.206,-258.179,-2.258,-53.406
0.782,1.069,-1.146,-249.39,5.127,-51.941
0.795,1.122,-1.083,-236.694,8.545,-51.086
0.815,1.159,-1.037,-220.581,7.385,-51.025
0.846,1.163,-0.994,-202.759,3.784,-51.27
0.9,1.154,-0.956,-184.937,0.183,-51.575
0.969,1.147,-0.917,-168.152,-1.77,-50.232
1.009,1.148,-0.87,-153.015,-2.014,-44.128
1.038,1.138,-0.828,-139.343,-0.183,-34.119
1.029,1.139,-0.789,-126.526,4.456,-23.926
1.025,1.143,-0.719,-113.831,12.207,-15.93
1.014,1.175,-0.64,-100.281,20.569,-9.888
0.968,1.147,-0.613,-84.839,27.954,-3.418
0.963,1.141,-0.535,-69.031,37.048,1.343
0.978,1.107,-0.498,-53.467,44.8,5.371
0.996,1.071,-0.442,-38.513,48.95,8.728
1.047,1.017,-0.419,-23.926,46.753,12.024
1.068,0.977,-0.405,-10.681,38.818,13.794
1.099,0.926,-0.407,1.648,27.71,15.442
1.099,0.875,-0.429,13.733,14.709,16.418
1.111,0.818,-0.46,26.428,2.869,16.907
1.1,0.766,-0.497,39.368,-5.798,16.907
1.09,0.703,-0.54,52.979,-10.132,16.479
1.092,0.641,-0.577,66.65,-9.583,16.235
1.108,0.589,-0.598,80.505,-5.249,17.761
1.12,0.543,-0.61,94.238,0.732,21.118
1.136,0.495,-0.608,108.704,6.958,24.17
1.148,0.44,-0.602,123.23,10.986,25.146
1.134,0.402,-0.59,136.353,11.414,23.987
1.097,0.374,-0.579,148.437,9.094,22.095
1.092,0.311,-0.57,159.241,4.639,20.813
1.161,0.314,-0.494,169.128,-3.174,18.982
1.112,0.186,-0.579,177.551,-17.517,19.226
1.085,0.188,-0.565,181.458,-30.151,17.517
1.023,0.188,-0.593,185.242,-40.222,16.235
0.989,0.165,-0.617,189.575,-45.715,15.747
0.969,0.129,-0.657,195.129,-47.546,15.564
0.944,0.1,-0.682,199.89,-45.349,14.587
0.942,0.082,-0.684,203.979,-39.49,13.733
0.941,0.04,-0.687,208.374,-31.25,13.123
0.965,0.017,-0.692,213.135,-21.851,13.55
0.977,-0.023,-0.692,218.384,-13.0,14.343
1.0,-0.045,-0.672,222.046,-6.409,14.282
1.013,-0.078,-0.66,225.159,-3.052,13.0
1.041,-0.098,-0.64,226.746,-2.808,11.169
1.053,-0.123,-0.636,227.478,-5.249,9.827
1.044,-0.135,-0.635,226.44,-8.728,8.911
1.028,-0.133,-0.627,224.243,-10.864,7.935
1.019,-0.139,-0.625,222.534,-10.803,7.019
1.032,-0.144,-0.626,221.13,-8.911,6.287
1.024,-0.129,-0.618,220.093,-5.432,6.287
1.001,-0.127,-0.606,220.032,-1.038,6.47
0.99,-0.121,-0.575,220.032,4.272,6.226
1.088,-0.125,-0.543,220.703,8.972,5.92
1.166,-0.095,-0.489,220.825,9.949,6.531
1.061,-0.179,-0.525,220.52,4.822,10.559
1.114,-0.123,-0.467,215.637,0.244,11.902
1.062,-0.114,-0.432,212.097,-1.709,12.695
0.997,-0.154,-0.451,208.74,-4.944,14.648
1.049,-0.073,-0.372,202.576,-6.042,16.418
0.989,-0.112,-0.397,198.486,-7.874,20.325
0.952,-0.086,-0.4,192.566,-7.263,23.56
0.89,-0.073,-0.414,186.89,-3.723,28.259
0.87,-0.065,-0.42,181.885,2.075,30.884
0.842,-0.039,-0.414,177.307,10.62,31.372
0.795,-0.022,-0.422,174.194,18.982,32.349
0.792,-0.009,-0.428,172.058,27.344,33.203
0.769,0.02,-0.425,170.898,36.377,32.043
0.733,0.051,-0.419,170.288,44.373,30.701
0.776,0.014,-0.417,170.166,50.964,30.823
0.878,-0.025,-0.38,168.701,54.688,27.954
0.875,-0.01,-0.335,164.368,52.185,21.545
0.922,-0.05,-0.312,159.241,44.373,19.043
1.012,-0.084,-0.276,151.794,34.607,18.127
1.045,-0.103,-0.259,143.799,22.705,15.625
1.08,-0.13,-0.26,136.169,11.169,13.0
1.116,-0.159,-0.259,129.272,2.93,10.803
1.133,-0.155,-0.221,124.695,-0.61,9.216
1.169,-0.174,-0.178,123.23,-0.427,9.949
1.216,-0.227,-0.141,123.657,0.366,12.085
1.26,-0.281,-0.095,122.253,-0.061,13.55
1.287,-0.323,-0.063,117.676,-2.686,14.771
1.28,-0.332,-0.038,110.84,-7.996,15.503
1.23,-0.328,-0.029,103.76,-14.038,15.076
1.164,-0.319,-0.029,98.145,-18.25,13.794
1.129,-0.328,-0.035,92.896,-19.043,12.634
1.105,-0.335,-0.038,87.769,-16.052,12.329
1.072,-0.334,-0.045,81.36,-11.23,13.794
1.026,-0.315,-0.052,75.073,-5.249,15.686
0.992,-0.288,-0.058,69.824,2.014,16.602
1.312,-1.397,-0.301,-132.69,-34.851,-22.034
1.364,-1.543,-0.435,-148.437,-31.738,-24.475
1.383,-1.629,-0.559,-165.344,-28.809,-25.269
1.3,-1.663,-0.701,-180.237,-24.231,-25.818
1.144,-1.702,-0.841,-191.895,-12.268,-24.414
0.997,-1.732,-0.986,-203.491,10.681,-18.799
0.895,-1.762,-1.092,-215.21,41.931,-11.902
0.801,-1.696,-1.139,-228.027,75.256,-7.202
0.842,-1.695,-1.176,-242.493,104.187,-4.883
0.933,-1.653,-1.206,-261.108,123.108,-7.019
1.113,-1.551,-1.217,-287.415,127.197,-9.338
1.313,-1.398,-1.281,-318.115,110.474,-11.475
1.324,-1.188,-1.439,-348.206,77.271,-18.555
1.206,-0.982,-1.714,-374.695,40.283,-29.358
1.044,-0.683,-2.007,-398.254,12.085,-38.208
0.85,-0.39,-2.23,-414.062,1.953,-44.678
0.722,-0.141,-2.403,-420.959,10.498,-48.828
0.771,0.056,-2.452,-421.692,29.419,-51.575
0.993,0.199,-2.405,-417.969,44.373,-52.49
1.183,0.302,-2.317,-412.17,38.635,-51.697
1.274,0.396,-2.239,-406.433,9.888,-50.964
1.298,0.492,-2.216,-399.963,-30.945,-53.345
1.269,0.611,-2.182,-392.273,-68.665,-58.655
1.194,0.729,-2.115,-381.409,-92.957,-62.988
1.092,0.829,-2.02,-367.31,-102.539,-62.927
1.009,0.931,-1.893,-350.769,-98.572,-57.983
0.961,1.019,-1.727,-332.214,-86.304,-51.697
0.955,1.082,-1.574,-311.89,-71.594,-45.837
0.945,1.132,-1.459,-292.969,-60.852,-41.138
0.938,1.183,-1.398,-275.391,-55.664,-38.391
0.92,1.243,-1.359,-259.583,-53.833,-37.659
0.873,1.291,-1.332,-243.713,-52.673,-37.903
0.823,1.323,-1.298,-227.6,-48.523,-37.354
0.761,1.321,-1.296,-211.243,-40.833,-35.156
0.825,1.329,-1.232,-196.35,-28.076,-31.86
0.793,1.32,-1.206,-182.068,-14.709,-27.222
0.823,1.334,-1.149,-167.786,-0.916,-21.057
0.796,1.344,-1.071,-153.015,14.099,-14.587
0.818,1.306,-0.999,-135.742,28.931,-7.751
0.825,1.297,-0.892,-118.652,42.664,-2.808
0.827,1.275,-0.796,-100.83,53.528,1.099
0.842,1.225,-0.72,-81.97,62.439,4.761
0.874,1.198,-0.63,-64.453,70.007,8.118
0.924,1.143,-0.57,-48.218,75.745,13.062
0.981,1.083,-0.514,-33.325,77.942,18.555
1.073,1.041,-0.462,-20.081,76.599,23.682
1.141,0.987,-0.433,-8.423,70.313,28.687
1.188,0.935,-0.418,4.089,58.96,32.532
1.204,0.888,-0.414,17.822,45.41,33.813
1.225,0.819,-0.438,33.875,32.715,32.532
1.207,0.759,-0.46,51.331,23.254,29.114
1.186,0.701,-0.47,68.298,18.311,26.306
1.177,0.616,-0.482,85.876,17.517,25.085
1.179,0.536,-0.484,102.051,20.081,25.024
1.193,0.453,-0.485,115.295,23.987,26.001
1.227,0.412,-0.483,125.732,26.917,26.855
1.239,0.374,-0.469,135.315,26.733,27.893
1.255,0.357,-0.454,144.836,21.423,28.809
1.249,0.319,-0.476,155.64,10.376,29.663
1.216,0.301,-0.478,165.649,-2.625,29.236
1.155,0.268,-0.489,175.72,-16.418,27.649
1.091,0.195,-0.529,185.059,-28.748,26.733
1.005,0.145,-0.58,191.956,-35.522,25.879
0.941,0.118,-0.61,195.679,-34.119,24.658
0.928,0.09,-0.636,199.402,-25.391,23.071
0.968,0.067,-0.655,202.698,-13.306,20.935
1.015,0.063,-0.656,206.36,-2.563,18.372
1.064,0.05,-0.662,211.121,4.456,15.808
1.107,0.034,-0.656,216.858,6.531,13.428
1.117,0.017,-0.649,222.473,3.296,11.475
1.098,-0.003,-0.652,227.6,-4.089,9.949
1.065,-0.03,-0.67,231.14,-12.146,7.812
1.028,-0.032,-0.677,232.788,-18.677,4.7
1.01,-0.036,-0.683,232.971,-22.339,2.502
0.996,-0.055,-0.692,232.666,-23.865,0.854
1.0,-0.071,-0.697,231.445,-22.949,-0.488
1.008,-0.08,-0.702,229.431,-20.02,-0.854
1.002,-0.072,-0.698,226.624,-15.442,-0.793
0.993,-0.07,-0.684,224.854,-10.071,-1.16
0.936,-0.084,-0.689,224.731,-4.7,-2.197
0.99,-0.089,-0.631,224.243,1.404,-4.089
1.218,0.03,-0.531,223.572,5.493,-6.226
1.026,-0.145,-0.611,227.173,1.221,-1.404
1.186,-0.059,-0.553,225.403,-7.507,0.977
1.013,-0.067,-0.538,223.633,-12.878,2.38
1.091,-0.075,-0.523,224.731,-17.334,3.54
1.0,-0.107,-0.508,223.206,-18.921,5.981
1.038,-0.067,-0.456,222.473,-21.606,8.667
0.988,-0.095,-0.438,218.811,-22.644,12.146
0.944,-0.11,-0.41,214.905,-22.644,12.939
0.958,-0.117,-0.376,209.29,-20.569,12.939
0.971,-0.141,-0.361,202.881,-18.005,13.611
0.973,-0.144,-0.355,194.885,-15.503,15.686
0.998,-0.111,-0.333,185.486,-12.085,17.883
1.021,-0.13,-0.355,177.856,-9.155,19.958
1.025,-0.141,-0.364,169.739,-5.981,21.057
1.049,-0.125,-0.363,161.56,-2.258,21.851
1.047,-0.104,-0.357,156.006,0.305,22.583
1.088,-0.135,-0.367,151.062,1.526,25.146
1.096,-0.133,-0.341,146.362,1.099,26.978
1.064,-0.142,-0.341,143.188,-0.977,28.137
1.032,-0.147,-0.318,140.686,-2.319,29.541
1.008,-0.168,-0.295,138.916,-2.747,29.785
0.99,-0.192,-0.259,137.085,-2.136,29.419
0.995,-0.209,-0.209,132.507,-1.282,31.006
0.994,-0.22,-0.16,126.831,-1.709,32.898
0.974,-0.234,-0.126,120.728,-3.174,33.752
0.953,-0.246,-0.086,114.197,-4.333,34.241
0.959,-0.248,-0.047,106.812,-5.066,34.058
0.973,-0.248,-0.019,99.854,-5.554,33.142
0.968,-0.234,0.004,91.736,-6.104,31.921
0.96,-0.224,0.011,84.167,-6.348,30.884
0.949,-0.199,0.011,76.965,-3.906,29.236
0.953,-0.172,0.016,71.106,2.136,26.306
0.983,-0.155,0.027,66.528,10.742,24.414
1.018,-0.155,0.034,63.171,19.409,24.841
1.053,-0.142,0.054,59.021,25.818,27.466
1.067,-0.128,0.07,54.993,28.503,30.09
1.05,-0.115,0.069,51.086,27.771,32.227
1.513,-1.013,0.134,-87.83,-32.532,-18.738
1.55,-1.251,0.0,-98.389,-30.09,-16.418
1.594,-1.482,-0.149,-111.694,-24.048,-15.747
1.657,-1.661,-0.305,-125.732,-15.198,-13.916
1.699,-1.819,-0.471,-139.099,-5.554,-7.812
1.635,-1.924,-0.666,-152.466,4.883,1.038
1.504,-1.977,-0.869,-167.969,18.005,11.597
1.463,-2.07,-1.11,-185.242,34.668,19.653
1.473,-2.104,-1.29,-202.576,55.908,22.705
1.424,-2.028,-1.382,-225.403,73.12,28.259
1.328,-1.869,-1.497,-252.563,73.547,41.931
1.146,-1.669,-1.654,-282.776,59.998,58.044
0.872,-1.442,-1.931,-315.674,40.833,67.993
0.5,-1.047,-2.213,-351.135,26.184,67.444
0.227,-0.568,-2.334,-380.188,24.231,58.411
0.165,-0.143,-2.361,-391.907,28.137,44.617
0.21,0.193,-2.328,-387.024,28.992,26.917
0.36,0.436,-2.221,-373.901,22.644,5.859
0.559,0.574,-2.143,-358.643,5.31,-14.709
0.699,0.7,-2.114,-347.656,-19.348,-33.63
0.807,0.864,-2.034,-343.75,-43.518,-45.166
0.864,1.003,-1.934,-341.003,-63.599,-45.898
0.816,1.072,-1.829,-336.731,-79.712,-40.588
0.744,1.13,-1.689,-330.139,-89.539,-37.354
0.707,1.177,-1.505,-320.557,-92.712,-37.598
0.69,1.174,-1.334,-307.251,-94.238,-39.124
0.665,1.161,-1.169,-294.189,-96.558,-41.443
0.622,1.154,-1.053,-283.569,-97.839,-45.166
0.598,1.144,-0.976,-274.902,-94.482,-51.025
0.607,1.141,-0.921,-267.456,-83.801,-56.824
0.657,1.136,-0.885,-261.23,-67.81,-59.082
0.738,1.134,-0.845,-255.798,-49.927,-56.335
0.8,1.14,-0.815,-250.732,-35.645,-49.927
0.845,1.144,-0.805,-244.568,-27.954,-42.786
0.853,1.143,-0.844,-236.816,-25.146,-37.598
0.835,1.141,-0.926,-228.882,-22.888,-34.363
0.789,1.174,-1.026,-220.398,-15.32,-32.227
0.76,1.209,-1.102,-209.229,2.197,-31.006
0.818,1.228,-1.141,-194.702,30.518,-27.527
0.905,1.282,-1.114,-177.612,63.232,-19.47
1.042,1.307,-1.044,-158.569,90.881,-6.348
1.067,1.279,-0.997,-136.719,105.835,5.859
1.119,1.266,-0.887,-116.455,109.314,13.977
1.13,1.246,-0.779,-95.398,99.609,17.578
1.092,1.186,-0.709,-73.364,79.59,18.005
1.01,1.164,-0.634,-52.612,56.091,13.794
0.945,1.096,-0.591,-31.86,36.804,8.789
0.916,1.018,-0.552,-14.343,23.926,3.052
0.914,0.964,-0.536,-1.587,16.846,-0.183
0.894,0.91,-0.562,8.972,13.977,0.366
0.875,0.849,-0.588,18.433,17.151,1.343
0.895,0.817,-0.597,28.992,25.818,1.16
0.962,0.763,-0.607,40.833,36.072,1.892
1.009,0.673,-0.685,54.993,44.556,1.892
1.093,0.683,-0.653,68.665,52.612,-0.549
1.186,0.635,-0.684,86.914,54.321,-0.732
1.235,0.566,-0.683,108.032,51.086,-1.465
1.253,0.536,-0.667,127.625,43.335,-3.601
1.222,0.508,-0.648,147.156,31.128,-6.165
1.174,0.426,-0.655,165.833,16.541,-8.057
1.113,0.381,-0.656,179.993,1.831,-11.414
1.085,0.33,-0.653,190.674,-10.437,-14.832
1.101,0.301,-0.643,198.181,-22.522,-18.127
1.109,0.252,-0.664,204.224,-34.546,-19.165
1.091,0.202,-0.716,208.862,-45.776,-19.165
1.059,0.18,-0.77,212.769,-52.612,-18.433
1.006,0.16,-0.804,217.773,-53.162,-16.541
0.968,0.127,-0.827,224.976,-48.462,-14.221
0.932,0.077,-0.847,232.544,-39.368,-12.146
0.93,0.031,-0.843,238.77,-27.71,-11.108
0.943,-0.016,-0.826,243.896,-16.235,-10.376
0.958,-0.072,-0.807,246.826,-8.179,-9.705
0.972,-0.087,-0.768,246.338,-4.883,-10.559
0.975,-0.101,-0.737,245.3,-5.92,-11.597
0.937,-0.112,-0.731,244.08,-11.047,-12.573
0.884,-0.115,-0.732,242.31,-17.273,-13.733
0.831,-0.119,-0.733,240.417,-21.423,-15.564
0.784,-0.118,-0.734,237.976,-22.4,-18.005
0.758,-0.112,-0.729,235.962,-20.02,-20.569
0.761,-0.113,-0.715,234.375,-14.771,-22.461
0.786,-0.113,-0.696,232.483,-8.972,-23.315
0.818,-0.108,-0.667,230.408,-4.395,-23.376
0.852,-0.087,-0.619,227.6,-2.075,-22.888
0.891,-0.056,-0.576,225.22,-2.563,-22.461
0.912,-0.028,-0.543,224.609,-6.104,-22.339
0.974,0.001,-0.504,224.915,-12.329,-23.254
0.97,0.018,-0.484,225.769,-22.034,-24.536
0.98,0.01,-0.476,225.83,-31.738,-26.245
0.979,0.011,-0.459,222.717,-39.856,-28.015
0.986,-0.027,-0.496,217.712,-45.471,-26.306
0.979,-0.024,-0.504,207.703,-45.837,-23.132
0.953,-0.019,-0.54,196.289,-41.565,-17.395
0.929,-0.0,-0.559,184.937,-31.433,-10.132
0.908,-0.013,-0.594,175.293,-16.785,-3.052
0.914,-0.014,-0.595,167.297,-0.122,2.38
0.916,-0.017,-0.586,160.522,16.602,6.653
0.939,-0.027,-0.553,156.311,31.067,10.071
0.964,-0.044,-0.511,153.381,40.527,12.451
0.993,-0.082,-0.467,150.879,42.908,14.771
1.038,-0.086,-0.398,147.217,38.269,16.907
1.061,-0.138,-0.363,143.25,26.306,18.921
1.069,-0.161,-0.308,138.306,8.728,18.799
0.996,-0.127,-0.257,133.484,-12.451,16.296
0.916,-0.156,-0.278,130.31,-33.325,17.029
0.834,-0.146,-0.247,127.869,-47.302,16.602
0.831,-0.202,-0.247,126.587,-53.284,14.038
0.826,-0.226,-0.227,123.779,-53.04,9.399
0.881,-0.268,-0.2,118.103,-48.706,8.118
0.953,-0.305,-0.166,109.802,-42.358,10.01
1.016,-0.332,-0.138,99.548,-37.415,14.954
1.046,-0.353,-0.124,87.585,-34.119,20.447
1.085,-0.353,-0.099,75.378,-32.104,24.841
1.157,-0.353,-0.079,64.575,-33.325,26.855
1.211,-0.353,-0.075,55.42,-39.063,25.635
1.216,-0.327,-0.074,49.744,-48.462,22.522
1.192,-0.299,-0.082,47.058,-58.533,21.118
1.141,-0.285,-0.101,48.523,-64.575,20.935
1.074,-0.277,-0.113,52.246,-63.049,20.569
1.014,-0.276,-0.11,56.824,-53.345,20.569
1.43,-0.884,-0.388,-138.0,-15.93,-3.906
1.45,-0.916,-0.469,-145.63,-26.917,-0.916
1.389,-0.933,-0.541,-155.029,-35.645,2.136
1.29,-0.947,-0.606,-164.429,-41.443,5.249
1.17,-0.965,-0.695,-174.133,-42.114,7.507
1.056,-0.985,-0.805,-184.814,-37.109,8.667
0.959,-1.001,-0.938,-199.463,-26.733,9.399
0.912,-0.98,-1.067,-217.59,-13.977,10.437
0.88,-0.917,-1.169,-237.244,-3.052,10.986
0.885,-0.872,-1.258,-255.676,4.456,12.207
0.897,-0.811,-1.318,-271.179,6.531,14.099
0.905,-0.743,-1.362,-283.813,3.479,15.503
0.885,-0.689,-1.432,-295.044,-3.784,16.602
0.849,-0.652,-1.512,-304.871,-12.329,14.954
0.824,-0.594,-1.612,-316.467,-19.653,10.864
0.777,-0.5,-1.701,-329.529,-24.597,5.066
0.758,-0.405,-1.795,-342.712,-26.978,-0.732
0.771,-0.316,-1.912,-353.516,-25.818,-6.47
0.803,-0.198,-1.994,-362.976,-20.264,-11.658
0.838,-0.082,-2.023,-369.263,-12.756,-13.0
0.887,0.014,-2.03,-371.643,-6.409,-10.986
0.939,0.093,-2.027,-371.582,-2.075,-7.446
0.974,0.183,-1.985,-369.141,-0.977,-5.249
0.998,0.275,-1.915,-364.502,-3.723,-3.906
1.0,0.347,-1.843,-357.788,-12.207,-3.418
0.982,0.4,-1.78,-350.22,-26.184,-4.395
0.961,0.456,-1.741,-343.506,-41.809,-7.935
0.91,0.525,-1.729,-337.036,-55.176,-12.817
0.821,0.611,-1.715,-330.444,-61.462,-17.517
0.736,0.708,-1.666,-322.693,-57.8,-21.423
0.679,0.796,-1.603,-313.293,-45.593,-23.987
0.687,0.885,-1.509,-302.307,-27.954,-25.391
0.716,0.958,-1.401,-290.039,-10.132,-26.306
0.78,1.017,-1.301,-277.832,3.418,-27.1
0.867,1.087,-1.194,-265.32,11.414,-27.832
0.973,1.162,-1.081,-251.648,12.512,-28.32
1.063,1.224,-0.98,-236.572,5.249,-27.893
1.076,1.263,-0.913,-220.398,-8.728,-27.039
1.064,1.294,-0.855,-204.285,-23.071,-25.635
1.006,1.33,-0.805,-188.782,-32.776,-23.01
0.917,1.361,-0.756,-173.218,-34.485,-20.874
0.852,1.394,-0.699,-156.921,-26.917,-19.226
0.82,1.421,-0.642,-139.709,-13.428,-18.25
0.827,1.436,-0.587,-121.643,1.709,-16.724
0.832,1.443,-0.55,-104.004,15.32,-14.893
0.848,1.443,-0.532,-86.304,26.001,-12.756
0.862,1.431,-0.527,-69.458,33.325,-8.911
0.965,1.415,-0.534,-54.199,36.682,-3.662
0.988,1.408,-0.565,-39.429,34.363,1.404
1.014,1.377,-0.632,-22.827,26.245,6.531
0.989,1.35,-0.687,-4.578,17.212,10.254
0.996,1.334,-0.701,17.517,8.423,12.817
0.941,1.199,-0.788,43.152,1.221,14.954
0.939,1.137,-0.776,66.895,-1.221,13.367
0.904,0.993,-0.839,91.614,-2.258,13.306
0.933,0.901,-0.83,111.938,0.671,13.184
0.972,0.787,-0.823,131.104,4.456,14.648
1.03,0.664,-0.841,148.987,6.958,17.517
1.04,0.597,-0.828,163.757,7.446,18.799
1.043,0.534,-0.814,178.162,6.226,20.02
1.046,0.458,-0.813,193.237,3.052,20.142
1.037,0.402,-0.809,206.543,-1.526,18.921
1.043,0.359,-0.791,218.506,-6.958,18.25
1.015,0.295,-0.798,230.042,-13.855,17.822
0.994,0.241,-0.798,239.319,-19.653,16.479
0.983,0.186,-0.796,245.911,-22.4,15.015
0.997,0.144,-0.793,250.0,-23.56,14.16
0.991,0.084,-0.804,252.136,-22.766,15.137
0.968,0.012,-0.829,252.441,-19.47,15.564
0.989,-0.016,-0.813,250.366,-12.756,14.526
1.027,-0.033,-0.808,247.62,-5.859,14.648
1.079,-0.064,-0.811,244.263,-0.671,17.883
1.099,-0.066,-0.806,239.624,2.014,22.278
1.04,-0.087,-0.861,235.291,2.136,25.024
1.015,-0.068,-0.869,230.896,4.456,24.17
1.031,-0.07,-0.867,227.905,7.202,21.484
1.062,-0.086,-0.878,226.196,7.69,19.714
1.044,-0.09,-0.884,224.731,5.676,18.677
1.005,-0.088,-0.886,224.182,3.601,17.273
0.95,-0.084,-0.888,223.938,3.479,15.625
0.895,-0.082,-0.885,225.403,7.141,14.16
0.842,-0.097,-0.872,227.478,14.832,12.573
0.812,-0.106,-0.834,228.333,25.208,10.559
0.766,-0.134,-0.808,227.295,35.034,8.789
0.852,-0.062,-0.727,222.29,44.006,4.15
0.996,-0.058,-0.626,218.262,49.316,2.625
0.919,-0.172,-0.65,216.187,41.748,6.165
1.055,-0.067,-0.629,205.75,30.396,9.46
1.125,-0.091,-0.545,193.726,24.048,15.381
0.971,-0.111,-0.553,183.289,16.052,21.79
1.049,-0.088,-0.569,167.053,11.169,28.809
0.995,-0.028,-0.551,154.236,13.611,32.471
0.943,-0.068,-0.581,146.545,20.264,31.616
0.958,0.045,-0.558,140.198,34.546,27.527
0.927,0.022,-0.626,138.672,50.964,24.292
0.912,0.023,-0.609,138.733,69.092,20.081
0.926,-0.004,-0.596,139.648,86.426,17.334
0.944,-0.072,-0.584,141.602,101.013,14.526
0.977,-0.148,-0.569,141.113,111.694,11.841
1.051,-0.208,-0.514,137.878,117.371,9.644
1.126,-0.232,-0.446,132.385,114.441,8.606
1.199,-0.251,-0.388,127.747,99.792,7.874
1.233,-0.246,-0.334,125.793,75.5,5.066
1.26,-0.239,-0.301,126.77,45.593,2.808
1.213,-0.247,-0.304,130.92,15.747,2.808
1.141,-0.238,-0.293,137.024,-7.385,3.357
1.043,-0.269,-0.297,144.653,-21.545,3.54
1.023,-0.32,-0.258,150.818,-26.672,2.502
0.988,-0.357,-0.208,152.649,-26.245,0.671
0.953,-0.404,-0.176,150.146,-23.315,-0.366
0.961,-0.411,-0.125,143.677,-17.7,-2.38
0.913,-0.407,-0.095,134.888,-11.169,-4.7
0.939,-0.406,-0.076,123.169,-4.7,-5.798
0.962,-0.376,-0.057,110.657,1.465,-7.751
1.012,-0.342,-0.044,99.121,6.714,-9.338
1.053,-0.298,-0.05,89.294,9.277,-10.254
1.055,-0.246,-0.051,81.97,10.62,-11.597
1.06,-0.211,-0.06,78.003,11.78,-12.451
1.075,-0.197,-0.072,76.538,13.672,-12.451
1.259,-1.217,-0.316,-95.52,-29.846,-11.536
1.225,-1.274,-0.417,-104.187,-24.719,-13.245
1.175,-1.361,-0.536,-114.258,-14.526,-12.939
1.097,-1.452,-0.651,-125.916,0.549,-10.62
1.06,-1.523,-0.736,-141.724,20.264,-4.761
1.046,-1.54,-0.838,-161.621,38.147,3.906
1.112,-1.483,-0.926,-182.312,51.27,11.414
1.109,-1.375,-0.915,-203.735,55.603,13.245
1.123,-1.352,-1.024,-221.619,46.692,14.404
1.158,-1.292,-1.168,-242.676,30.151,13.489
1.093,-1.186,-1.325,-268.311,9.399,8.728
0.972,-1.026,-1.523,-294.739,-9.094,4.15
0.816,-0.837,-1.76,-321.411,-20.264,1.099
0.659,-0.579,-1.984,-345.703,-20.386,-1.221
0.502,-0.304,-2.152,-364.38,-9.644,-3.845
0.46,-0.017,-2.278,-374.023,8.789,-7.507
0.507,0.233,-2.349,-373.901,30.457,-12.268
0.589,0.435,-2.365,-365.662,48.523,-18.372
0.728,0.576,-2.328,-353.027,57.678,-22.705
0.869,0.687,-2.265,-340.271,54.138,-22.766
0.942,0.784,-2.162,-329.59,38.208,-18.372
0.942,0.865,-2.048,-318.42,12.756,-12.878
0.916,0.93,-1.932,-305.969,-14.954,-10.62
0.863,0.975,-1.814,-293.213,-41.443,-12.024
0.782,1.001,-1.742,-281.555,-62.439,-15.93
0.685,1.052,-1.676,-271.851,-73.547,-19.592
0.6,1.106,-1.586,-263.55,-72.998,-21.301
0.533,1.16,-1.503,-255.066,-63.782,-20.508
0.463,1.203,-1.426,-245.728,-48.95,-17.273
0.422,1.251,-1.333,-236.023,-31.25,-13.123
0.452,1.268,-1.237,-224.915,-12.39,-9.644
0.545,1.251,-1.166,-213.989,3.906,-6.775
0.702,1.239,-1.092,-205.261,15.32,-3.967
0.843,1.25,-1.027,-198.181,17.273,-0.61
0.921,1.252,-1.007,-191.345,8.362,3.723
0.948,1.259,-1.019,-184.021,-5.493,8.789
0.905,1.262,-1.046,-174.683,-19.592,13.794
0.851,1.263,-1.071,-163.33,-28.381,17.944
0.77,1.248,-1.081,-148.987,-28.564,20.569
0.707,1.225,-1.069,-132.08,-19.287,21.912
0.667,1.186,-1.049,-113.586,-2.136,22.583
0.653,1.168,-0.992,-95.032,20.691,22.583
0.624,1.152,-0.903,-75.867,44.556,22.888
0.699,1.077,-0.832,-56.763,65.979,24.841
0.782,1.024,-0.685,-40.833,80.688,25.574
0.945,0.979,-0.576,-28.198,80.994,25.452
1.013,0.94,-0.479,-18.005,65.491,26.367
1.076,0.941,-0.431,-8.484,38.818,25.33
0.975,0.901,-0.448,2.197,8.85,23.499
0.915,0.871,-0.484,13.855,-16.907,20.569
0.817,0.851,-0.513,26.489,-33.02,16.235
0.788,0.78,-0.55,40.894,-38.208,11.108
0.794,0.712,-0.587,54.077,-36.194,5.432
0.813,0.655,-0.617,65.613,-29.236,-0.183
0.88,0.609,-0.637,77.271,-19.714,-3.845
0.942,0.585,-0.635,88.196,-11.536,-6.531
1.019,0.553,-0.619,100.83,-8.24,-7.324
1.061,0.508,-0.654,116.028,-9.399,-6.531
1.049,0.454,-0.667,130.981,-11.353,-7.202
1.042,0.417,-0.654,144.653,-14.526,-9.216
0.97,0.326,-0.7,156.86,-19.47,-10.864
0.993,0.343,-0.677,165.894,-20.996,-13.55
1.005,0.335,-0.664,175.171,-20.691,-13.062
1.074,0.249,-0.655,187.073,-26.245,-9.521
1.098,0.205,-0.676,194.153,-34.485,-5.798
0.962,0.062,-0.77,199.585,-42.236,-4.211
0.901,0.167,-0.708,201.111,-40.466,-7.446
0.864,0.124,-0.727,206.848,-35.95,-8.545
0.879,0.088,-0.741,215.332,-30.64,-9.46
0.873,0.036,-0.733,223.267,-25.146,-10.559
0.87,0.001,-0.723,230.103,-21.301,-13.428
0.863,-0.052,-0.728,236.572,-17.578,-16.296
0.871,-0.083,-0.697,239.99,-12.573,-18.86
0.901,-0.124,-0.685,241.211,-8.667,-19.226
0.92,-0.161,-0.664,240.601,-7.08,-18.127
0.929,-0.197,-0.645,237.915,-7.446,-17.334
0.944,-0.214,-0.617,233.459,-9.216,-17.944
0.885,-0.246,-0.611,227.783,-11.78,-19.043
0.838,-0.263,-0.608,219.238,-12.085,-19.775
0.803,-0.266,-0.594,210.388,-7.629,-20.02
0.784,-0.244,-0.574,202.148,0.916,-19.531
0.768,-0.228,-0.599,196.899,12.146,-17.761
0.789,-0.205,-0.587,195.312,25.818,-15.93
0.803,-0.205,-0.583,198.242,38.818,-16.479
0.864,-0.165,-0.515,202.942,50.171,-18.921
0.934,-0.16,-0.451,208.801,54.443,-18.982
1.002,-0.173,-0.409,214.417,48.157,-16.418
1.02,-0.279,-0.374,214.966,35.767,-13.367
0.99,-0.25,-0.351,208.435,18.127,-15.991
0.999,-0.205,-0.267,197.571,0.549,-15.93
0.941,-0.289,-0.335,188.11,-15.991,-10.254
0.863,-0.244,-0.313,174.316,-26.184,-9.827
0.762,-0.187,-0.288,161.133,-27.832,-10.254
0.684,-0.139,-0.289,152.771,-21.79,-10.254
0.636,-0.119,-0.259,148.56,-9.216,-10.132
0.579,-0.135,-0.258,146.79,7.385,-11.597
0.586,-0.17,-0.24,145.264,27.893,-14.038
0.659,-0.208,-0.201,142.944,49.622,-17.212
0.772,-0.228,-0.154,138.794,68.237,-21.606
0.899,-0.272,-0.107,132.629,78.186,-25.269
1.023,-0.32,-0.079,122.986,78.491,-29.541
1.149,-0.342,-0.055,110.107,70.74,-34.546
1.239,-0.359,-0.064,95.459,56.274,-37.781
1.267,-0.33,-0.067,79.285,38.086,-38.147
1.25,-0.285,-0.08,65.186,19.226,-33.691
1.222,-0.232,-0.1,55.847,4.456,-25.452
1.182,-0.197,-0.131,51.88,-4.211,-18.188
1.147,-0.188,-0.178,52.612,-7.019,-13.428
1.104,-0.175,-0.169,55.298,-5.371,-11.108
1.107,-0.208,-0.172,58.899,-2.869,-9.827
1.135,-0.241,-0.181,60.669,-0.793,-10.498
1.136,-0.252,-0.171,59.814,0.061,-13.855
1.147,-0.259,-0.158,57.495,0.061,-15.259
1.185,-0.266,-0.155,53.162,-0.244,-14.465
1.212,-0.258,-0.162,48.279,-1.343,-13.123
1.239,-0.219,-0.136,42.908,-3.235,-10.498
1.255,-0.213,-0.135,38.635,-7.202,-5.798
1.256,-0.203,-0.141,35.339,-11.841,-0.671
1.237,-0.185,-0.142,32.288,-15.686,5.371
0.802,-1.31,-0.412,-221.375,22.034,-1.099
0.812,-1.238,-0.488,-238.953,30.518,-0.854
0.823,-1.166,-0.545,-253.601,37.17,-0.183
0.826,-1.071,-0.625,-265.808,42.053,0.671
0.798,-0.985,-0.692,-272.705,46.204,-0.427
0.765,-0.894,-0.759,-276.794,51.392,-3.418
0.743,-0.821,-0.829,-278.503,58.167,-7.507
0.752,-0.756,-0.893,-280.457,66.101,-11.047
0.789,-0.7,-0.964,-284.607,74.097,-12.878
0.894,-0.655,-1.026,-290.588,79.651,-13.367
1.007,-0.595,-1.1,-298.218,79.834,-13.184
1.116,-0.543,-1.206,-307.251,73.486,-12.634
1.183,-0.485,-1.332,-315.674,62.561,-12.817
1.241,-0.4,-1.449,-322.266,50.964,-13.0
1.307,-0.333,-1.561,-326.477,39.551,-11.658
1.32,-0.256,-1.679,-328.186,28.625,-8.85
1.277,-0.166,-1.764,-327.332,20.386,-4.822
1.201,-0.097,-1.826,-322.876,17.334,-0.366
1.101,-0.031,-1.855,-316.65,19.47,4.761
1.027,0.022,-1.864,-310.12,25.33,8.972
0.988,0.076,-1.862,-303.589,32.227,11.902
0.962,0.14,-1.838,-297.729,36.743,13.855
0.951,0.22,-1.798,-291.077,36.865,15.93
0.906,0.305,-1.753,-283.02,31.372,17.944
0.828,0.383,-1.701,-272.644,21.179,19.531
0.732,0.455,-1.638,-260.925,9.094,19.653
0.626,0.524,-1.565,-248.535,-1.465,17.151
0.545,0.581,-1.488,-236.511,-9.033,12.817
0.514,0.633,-1.412,-225.525,-13.0,7.874
0.497,0.691,-1.34,-216.919,-14.465,3.845
0.483,0.755,-1.271,-209.534,-14.343,0.977
0.495,0.829,-1.205,-202.454,-12.207,-1.282
0.511,0.897,-1.151,-194.519,-8.85,-3.479
0.538,0.969,-1.094,-185.425,-4.7,-5.737
0.564,1.042,-1.034,-174.927,-0.061,-7.751
0.585,1.105,-0.973,-162.781,4.761,-8.85
0.617,1.147,-0.903,-148.865,9.888,-8.911
0.662,1.172,-0.835,-135.132,14.038,-7.751
0.701,1.192,-0.778,-122.314,16.724,-5.249
0.731,1.208,-0.73,-110.291,17.761,-2.38
0.767,1.212,-0.695,-99.121,17.822,1.465
0.792,1.213,-0.679,-88.44,17.09,5.31
0.811,1.211,-0.681,-78.064,16.479,9.216
0.825,1.209,-0.701,-67.322,16.479,13.0
0.84,1.202,-0.727,-55.42,17.944,16.113
0.844,1.182,-0.758,-41.87,20.752,17.944
0.862,1.149,-0.786,-27.039,24.902,18.066
0.887,1.099,-0.808,-10.498,29.48,16.846
0.925,1.033,-0.826,6.775,33.264,14.343
0.981,0.964,-0.833,24.658,35.339,11.353
1.027,0.899,-0.838,42.419,34.729,9.155
1.057,0.825,-0.83,60.852,31.189,7.568
1.081,0.754,-0.817,79.102,25.574,6.348
1.106,0.659,-0.798,96.802,17.883,4.822
1.136,0.565,-0.78,112.732,8.24,2.625
1.159,0.483,-0.766,125.61,-3.418,-0.671
1.174,0.418,-0.75,137.024,-16.296,-3.784
1.176,0.347,-0.736,148.132,-29.846,-6.226
1.177,0.309,-0.717,157.471,-42.358,-6.592
1.17,0.258,-0.708,166.443,-53.589,-5.066
1.155,0.198,-0.715,174.866,-63.354,-2.502
1.126,0.142,-0.731,182.007,-70.801,1.099
1.127,0.146,-0.713,188.293,-74.89,3.662
1.084,0.062,-0.744,195.496,-76.294,7.08
1.016,0.008,-0.752,201.843,-73.425,8.179
1.071,0.062,-0.667,206.726,-67.2,8.057
1.05,-0.017,-0.706,215.271,-64.819,10.803
1.082,-0.058,-0.645,219.849,-61.951,13.123
1.02,-0.065,-0.646,222.961,-62.317,14.465
0.994,-0.08,-0.624,225.952,-60.73,16.113
0.967,-0.1,-0.604,228.516,-58.228,18.372
0.93,-0.117,-0.586,229.797,-55.847,20.02
0.894,-0.14,-0.585,229.919,-53.162,21.484
0.88,-0.155,-0.566,228.882,-48.523,21.729
0.873,-0.174,-0.554,226.99,-43.152,20.996
0.852,-0.185,-0.548,224.365,-37.659,20.02
0.856,-0.174,-0.536,221.313,-31.006,18.494
0.849,-0.171,-0.536,220.093,-24.719,17.151
0.858,-0.16,-0.536,219.604,-17.761,15.991
0.852,-0.168,-0.543,220.032,-11.414,15.625
0.819,-0.182,-0.554,220.52,-5.31,14.832
0.765,-0.173,-0.524,220.337,2.686,12.329
0.769,-0.186,-0.588,220.703,12.512,10.01
0.585,-0.286,-0.427,222.168,25.085,2.747
1.233,0.027,-0.301,216.736,23.621,-1.404
0.782,-0.421,-0.526,229.492,15.015,17.212
1.023,-0.055,-0.345,215.454,6.714,8.118
0.675,-0.252,-0.422,212.341,4.944,9.521
0.809,-0.153,-0.37,208.801,5.676,4.089
0.839,-0.169,-0.355,205.994,12.329,1.099
0.841,-0.174,-0.348,202.82,16.663,-1.831
0.845,-0.194,-0.323,197.449,18.555,-3.601
0.847,-0.21,-0.323,192.383,18.555,-4.7
0.818,-0.203,-0.316,186.768,21.301,-5.31
0.795,-0.206,-0.278,181.58,26.184,-5.31
0.845,-0.239,-0.323,177.124,31.433,-5.31
0.909,-0.231,-0.271,170.898,38.574,-7.507
0.932,-0.232,-0.26,165.405,42.725,-9.583
0.96,-0.238,-0.259,160.095,43.64,-10.132
0.982,-0.212,-0.215,152.222,44.739,-9.277
0.954,-0.21,-0.231,146.545,43.762,-6.531
0.962,-0.229,-0.228,140.198,44.067,-3.601
0.917,-0.218,-0.224,133.911,46.509,-3.052
0.924,-0.255,-0.226,130.432,51.086,-2.991
0.975,-0.204,-0.159,127.197,56.03,-6.287
0.982,-0.212,-0.158,124.939,56.458,-8.972
0.978,-0.208,-0.149,122.07,54.382,-9.033
0.984,-0.2,-0.137,117.31,52.124,-8.057
1.008,-0.224,-0.157,112.366,50.293,-7.568
1.052,-0.221,-0.148,105.469,49.194,-9.46
1.094,-0.228,-0.15,98.083,46.997,-11.475
1.132,-0.195,-0.152,90.576,44.25,-13.489
1.147,-0.169,-0.153,84.656,41.016,-14.954
1.136,-0.162,-0.152,80.017,38.33,-15.564
1.13,-0.165,-0.149,76.721,37.231,-15.015
1.163,-0.175,-0.136,73.242,37.537,-13.367
1.207,-0.182,-0.122,68.726,37.231,-10.681
1.223,-0.166,-0.1,63.66,34.668,-7.751
1.214,-0.143,-0.083,59.204,29.846,-4.578
1.106,-1.141,-0.547,-170.654,-16.052,16.602
1.142,-1.122,-0.626,-182.617,-19.592,17.578
1.152,-1.087,-0.719,-193.298,-25.635,19.409
1.147,-1.063,-0.804,-203.43,-30.396,22.156
1.13,-1.019,-0.886,-213.196,-30.945,23.926
1.073,-0.962,-0.972,-223.022,-26.123,25.208
1.022,-0.913,-1.07,-235.291,-15.381,26.367
0.978,-0.852,-1.157,-248.962,2.258,26.123
0.936,-0.773,-1.229,-264.404,25.269,25.757
0.932,-0.676,-1.288,-282.349,49.255,27.71
0.962,-0.579,-1.323,-301.025,69.153,32.166
0.977,-0.462,-1.334,-319.519,79.468,39.795
0.96,-0.348,-1.345,-337.463,79.895,48.462
0.907,-0.249,-1.379,-353.943,72.144,55.969
0.803,-0.159,-1.473,-369.873,57.8,60.974
0.645,-0.088,-1.591,-385.376,42.48,63.171
0.481,-0.007,-1.689,-399.597,31.433,62.622
0.366,0.083,-1.775,-411.56,26.611,58.655
0.298,0.197,-1.832,-417.908,28.137,50.842
0.273,0.344,-1.821,-416.626,33.63,40.283
0.322,0.477,-1.756,-406.555,39.185,29.053
0.416,0.576,-1.651,-388.977,39.917,18.127
0.528,0.635,-1.536,-366.333,31.25,7.324
0.654,0.665,-1.445,-342.163,11.536,-2.319
0.746,0.681,-1.36,-320.557,-15.076,-12.39
0.779,0.705,-1.312,-304.199,-43.884,-22.339
0.759,0.74,-1.325,-293.091,-69.58,-29.114
0.707,0.805,-1.347,-286.804,-85.266,-31.677
0.647,0.879,-1.345,-281.189,-89.172,-30.457
0.569,1.004,-1.286,-274.17,-84.595,-26.855
0.657,0.988,-1.303,-262.756,-76.233,-21.423
0.464,1.056,-1.264,-251.16,-64.88,-18.921
0.574,1.119,-1.188,-238.403,-50.049,-15.198
0.545,1.119,-1.2,-221.619,-38.208,-13.672
0.698,1.149,-1.034,-205.2,-27.527,-14.404
0.717,1.139,-1.023,-188.11,-24.902,-15.137
0.774,1.116,-1.015,-171.082,-24.109,-13.855
0.85,1.133,-0.911,-158.569,-20.813,-12.634
0.885,1.162,-0.858,-143.799,-18.494,-10.925
0.903,1.154,-0.803,-128.052,-16.174,-5.432
0.92,1.14,-0.737,-112.061,-12.695,0.0
0.937,1.105,-0.698,-95.459,-9.216,4.517
0.976,1.085,-0.636,-79.651,-5.615,7.629
0.991,1.07,-0.58,-63.965,-3.845,9.888
1.013,1.031,-0.552,-47.363,-3.906,11.963
1.032,0.98,-0.536,-31.982,-4.883,12.756
1.037,0.945,-0.522,-18.005,-5.554,12.512
1.053,0.904,-0.515,-4.517,-5.737,12.939
1.068,0.862,-0.513,8.24,-5.371,15.808
1.062,0.811,-0.522,21.24,-4.456,19.958
1.042,0.756,-0.549,33.875,-2.319,23.315
1.002,0.709,-0.583,46.753,1.953,24.475
0.986,0.653,-0.617,59.937,9.094,23.926
1.002,0.606,-0.636,73.12,17.456,20.935
1.023,0.552,-0.664,87.097,24.719,16.052
1.046,0.477,-0.665,101.99,28.809,11.108
1.103,0.427,-0.654,115.051,29.541,6.653
1.17,0.362,-0.639,127.075,24.841,4.272
1.19,0.307,-0.63,137.939,13.55,3.601
1.174,0.257,-0.632,147.278,-1.099,3.723
1.142,0.225,-0.641,155.151,-16.235,3.784
1.074,0.202,-0.646,162.781,-30.273,3.357
1.002,0.174,-0.653,170.105,-41.26,2.869
0.942,0.146,-0.673,177.185,-48.645,2.502
0.885,0.128,-0.682,183.838,-51.575,1.648
0.839,0.109,-0.691,190.613,-50.537,0.671
0.807,0.089,-0.693,197.388,-45.959,-0.916
0.794,0.057,-0.688,204.529,-39.001,-2.747
0.792,0.032,-0.685,210.205,-31.311,-4.333
0.804,0.001,-0.677,215.149,-23.682,-6.836
0.834,-0.029,-0.672,218.262,-16.968,-9.766
0.87,-0.055,-0.673,219.727,-11.902,-13.55
0.902,-0.058,-0.666,220.093,-9.155,-16.968
0.934,-0.061,-0.66,220.276,-8.057,-19.165
0.959,-0.067,-0.664,219.727,-8.545,-20.508
0.963,-0.063,-0.661,219.36,-9.583,-21.912
0.964,-0.068,-0.662,219.482,-10.437,-22.583
0.975,-0.073,-0.678,219.91,-10.437,-22.4
0.954,-0.163,-0.709,220.398,-7.751,-22.522
0.859,-0.069,-0.597,217.712,-3.479,-26.733
0.952,-0.107,-0.632,215.576,-3.235,-25.757
1.076,-0.077,-0.613,216.064,0.427,-24.048
0.927,-0.128,-0.587,215.027,1.831,-20.63
0.994,-0.127,-0.585,212.402,-1.099,-18.066
0.969,-0.135,-0.587,209.656,0.0,-17.029
0.966,-0.121,-0.548,207.458,1.648,-17.395
1.006,-0.117,-0.551,205.505,1.343,-17.456
1.024,-0.131,-0.556,205.383,0.549,-16.663
1.022,-0.124,-0.534,204.285,-0.244,-16.724
1.031,-0.113,-0.513,203.064,-1.404,-15.991
1.046,-0.1,-0.49,202.332,-2.625,-13.245
1.051,-0.11,-0.484,201.355,-4.089,-8.789
1.058,-0.107,-0.465,199.707,-5.615,-4.517
1.052,-0.111,-0.457,197.327,-6.104,-1.221
1.029,-0.13,-0.456,194.885,-5.798,1.465
0.983,-0.135,-0.449,191.345,-3.113,2.808
1.002,-0.104,-0.404,187.5,1.648,3.54
1.175,-0.161,-0.4,184.753,6.531,5.005
1.24,-0.18,-0.353,181.091,8.789,2.747
1.183,-0.134,-0.315,176.331,3.296,0.732
1.052,-0.135,-0.354,172.18,-4.883,4.028
1.123,-0.24,-0.39,168.152,-5.92,8.85
1.198,-0.207,-0.287,162.72,-1.953,4.883
1.157,-0.193,-0.255,160.828,-4.211,-0.793
1.183,-0.208,-0.234,158.081,-10.437,0.122
1.195,-0.221,-0.219,155.64,-20.081,5.493
1.145,-0.25,-0.225,152.527,-30.518,9.827
1.067,-0.251,-0.214,149.048,-37.781,12.39
1.008,-0.267,-0.205,145.752,-41.26,14.404
0.958,-0.269,-0.187,141.968,-41.382,14.832
0.901,-0.276,-0.171,138.611,-39.246,14.16
0.861,-0.282,-0.15,134.827,-36.133,12.329
0.812,-0.281,-0.135,130.554,-32.104,9.766
0.766,-0.266,-0.125,125.977,-27.1,8.057
0.75,-0.261,-0.116,122.131,-20.63,8.179
0.748,-0.253,-0.109,118.347,-13.0,10.01
0.754,-0.238,-0.103,114.624,-4.761,12.573
0.759,-0.227,-0.091,111.511,3.845,16.418
0.769,-0.223,-0.082,107.971,11.963,19.226
1.366,-1.164,0.012,-99.426,-65.247,15.503
1.331,-1.251,-0.053,-113.892,-60.791,19.165
1.284,-1.32,-0.13,-128.784,-54.932,23.865
1.25,-1.392,-0.248,-144.226,-47.119,28.87
1.242,-1.461,-0.426,-160.278,-35.95,33.508
1.239,-1.512,-0.638,-176.575,-19.836,36.987
1.262,-1.542,-0.873,-194.824,5.188,39.063
1.344,-1.474,-1.081,-214.905,40.466,43.03
1.493,-1.291,-1.136,-236.755,77.881,52.979
1.607,-1.127,-1.138,-255.127,101.379,70.251
1.566,-0.99,-1.168,-267.029,105.164,91.309
1.366,-0.85,-1.15,-277.527,94.421,112.183
1.101,-0.695,-1.17,-286.194,77.82,127.991
0.855,-0.525,-1.145,-291.992,60.547,137.817
0.673,-0.287,-1.047,-297.424,43.152,141.479
0.601,-0.095,-0.918,-300.293,23.499,138.184
0.596,-0.031,-0.842,-299.805,0.427,126.16
0.533,-0.092,-0.917,-301.514,-25.696,105.042
0.449,-0.13,-1.075,-314.88,-50.964,80.75
0.37,-0.101,-1.282,-339.905,-71.777,59.937
0.291,-0.044,-1.5,-367.737,-86.121,46.204
0.227,0.03,-1.641,-391.785,-92.529,39.368
0.211,0.12,-1.718,-408.569,-92.957,38.879
0.177,0.197,-1.773,-414.185,-92.59,40.283
0.173,0.306,-1.801,-409.119,-90.332,36.865
0.222,0.442,-1.764,-394.592,-86.548,28.564
0.275,0.552,-1.673,-370.056,-85.938,17.395
0.333,0.611,-1.576,-339.478,-90.271,4.944
0.358,0.623,-1.509,-308.777,-99.976,-7.629
0.356,0.609,-1.475,-282.471,-111.328,-21.484
0.244,0.604,-1.474,-264.16,-118.591,-35.278
0.341,0.704,-1.381,-255.432,-116.455,-45.288
0.404,0.691,-1.405,-247.498,-109.68,-49.377
0.294,0.787,-1.403,-241.943,-100.22,-52.429
0.452,0.893,-1.285,-238.098,-84.412,-48.462
0.461,0.877,-1.368,-226.746,-72.998,-44.678
0.525,0.951,-1.288,-215.332,-58.228,-45.166
0.552,1.025,-1.275,-203.552,-45.288,-46.692
0.623,1.1,-1.187,-187.744,-31.128,-45.593
0.772,1.121,-1.108,-171.326,-19.531,-40.833
0.831,1.127,-1.056,-154.297,-12.939,-36.316
0.844,1.143,-0.988,-140.625,-9.888,-30.09
0.843,1.137,-0.94,-128.723,-8.24,-22.095
0.845,1.115,-0.909,-117.859,-4.944,-15.259
0.894,1.104,-0.863,-108.521,0.244,-11.108
0.959,1.107,-0.802,-99.121,4.211,-9.399
1.001,1.098,-0.754,-87.708,4.578,-7.812
1.035,1.089,-0.719,-75.439,2.625,-5.676
1.037,1.08,-0.696,-62.378,0.183,-3.662
1.033,1.061,-0.688,-47.485,-0.488,-2.441
1.039,1.034,-0.686,-31.677,2.38,-1.709
1.061,0.998,-0.698,-15.198,8.789,-1.587
1.1,0.957,-0.689,0.732,17.517,-1.038
1.149,0.923,-0.668,15.808,25.208,0.793
1.173,0.878,-0.658,30.09,29.114,4.883
1.161,0.83,-0.668,43.762,29.358,9.888
1.135,0.777,-0.678,57.068,29.053,14.221
1.122,0.734,-0.661,70.923,28.809,16.113
1.062,0.671,-0.68,85.999,26.489,16.602
0.994,0.646,-0.659,101.135,24.353,15.808
0.907,0.578,-0.669,115.234,23.437,16.968
0.885,0.502,-0.635,129.272,23.376,17.822
0.835,0.448,-0.632,140.442,22.644,16.357
0.707,0.361,-0.687,149.963,22.339,15.198
0.774,0.308,-0.652,158.264,25.818,11.841
0.719,0.272,-0.691,165.405,29.175,5.127
0.78,0.208,-0.671,174.438,31.067,-1.587
0.875,0.182,-0.677,183.35,29.602,-7.996
0.818,0.154,-0.701,193.542,23.804,-14.465
0.898,0.113,-0.694,203.552,16.541,-18.677
0.865,0.077,-0.715,213.806,7.324,-23.621
0.851,0.051,-0.705,223.511,-0.244,-28.137
0.832,0.018,-0.698,231.873,-6.958,-31.799
0.808,-0.008,-0.688,238.586,-12.329,-35.095
0.78,-0.042,-0.684,243.164,-16.541,-37.476
0.765,-0.067,-0.683,245.483,-18.555,-39.063
0.75,-0.086,-0.695,245.239,-17.212,-40.955
0.721,-0.089,-0.707,242.981,-12.207,-43.396
0.724,-0.079,-0.706,240.356,-3.906,-45.349
0.787,-0.077,-0.702,237.976,5.981,-46.021
0.85,-0.082,-0.696,235.84,14.709,-46.57
0.914,-0.089,-0.687,233.215,20.203,-47.424
0.984,-0.089,-0.683,229.614,22.522,-47.729
1.021,-0.076,-0.67,225.891,21.851,-48.096
1.041,-0.066,-0.661,222.961,19.043,-48.035
1.057,-0.06,-0.644,220.215,15.503,-47.241
1.054,-0.055,-0.626,217.59,11.536,-45.776
1.046,-0.055,-0.608,215.393,7.629,-43.457
1.04,-0.063,-0.597,212.341,4.395,-40.71
1.035,-0.071,-0.58,208.801,2.441,-38.391
1.052,-0.079,-0.56,204.895,1.77,-36.682
1.072,-0.086,-0.536,199.646,1.221,-35.278
1.101,-0.085,-0.515,193.787,-0.061,-33.813
1.12,-0.07,-0.49,188.293,-1.709,-31.494
1.118,-0.05,-0.466,183.289,-4.639,-27.649
1.102,-0.044,-0.448,178.955,-8.179,-22.461
1.077,-0.06,-0.437,175.598,-11.414,-16.174
1.044,-0.071,-0.428,172.668,-13.794,-9.583
1.006,-0.093,-0.416,169.678,-13.977,-3.723
0.968,-0.11,-0.402,166.504,-12.146,0.61
0.943,-0.123,-0.385,162.109,-7.69,3.845
0.912,-0.125,-0.359,158.142,-1.953,5.31
0.905,-0.133,-0.324,154.236,4.211,5.737
0.899,-0.126,-0.296,149.841,9.644,5.981
0.898,-0.122,-0.269,145.569,13.428,5.493
0.911,-0.14,-0.243,141.602,15.564,4.211
0.914,-0.127,-0.213,136.292,15.32,2.625
0.909,-0.135,-0.191,131.714,12.329,1.282
0.902,-0.155,-0.175,127.625,7.202,0.488
0.916,-0.157,-0.164,123.047,2.38,-0.488
0.938,-0.144,-0.125,119.263,-2.075,-1.221
0.942,-0.152,-0.114,115.967,-7.812,-0.488
0.943,-0.167,-0.102,113.159,-13.0,0.916
0.904,-0.178,-0.118,109.68,-17.639,0.977
0.926,-0.174,-0.105,105.591,-19.165,-0.977
0.972,-0.192,-0.095,102.844,-18.677,-4.7
0.999,-0.186,-0.081,101.013,-19.165,-10.315
1.043,-0.174,-0.05,99.182,-20.996,-14.832
1.072,-0.183,-0.04,96.985,-24.231,-15.808
0.883,-1.256,-0.626,-194.702,-34.485,-2.441
0.952,-1.271,-0.725,-209.534,-21.729,-3.174
1.01,-1.268,-0.811,-223.694,-11.414,-3.113
1.039,-1.244,-0.902,-237.61,-3.723,-1.404
1.058,-1.233,-0.991,-252.502,2.319,2.319
1.056,-1.182,-1.068,-268.433,6.897,6.348
1.042,-1.127,-1.163,-285.095,10.132,9.766
0.969,-1.076,-1.306,-301.147,13.184,12.512
0.883,-1.011,-1.462,-317.932,19.287,14.526
0.817,-0.92,-1.615,-335.571,29.968,16.418
0.808,-0.805,-1.74,-352.905,42.725,18.372
0.849,-0.659,-1.839,-367.615,52.917,18.677
0.877,-0.517,-1.914,-378.296,57.495,15.076
0.922,-0.406,-1.95,-383.911,56.519,9.521
0.978,-0.302,-2.006,-385.498,49.988,5.005
0.981,-0.222,-2.071,-384.827,38.635,0.916
0.959,-0.132,-2.099,-383.972,24.597,-2.625
0.937,-0.049,-2.099,-381.409,10.01,-5.859
0.901,0.037,-2.098,-375.977,-4.272,-8.667
0.867,0.12,-2.059,-367.249,-16.785,-11.292
0.857,0.203,-1.998,-355.957,-27.771,-15.564
0.844,0.269,-1.952,-343.079,-36.987,-20.874
0.788,0.332,-1.916,-331.116,-44.006,-26.367
0.723,0.419,-1.879,-321.838,-45.837,-31.494
0.667,0.505,-1.836,-314.697,-41.992,-34.424
0.623,0.602,-1.785,-307.983,-34.424,-34.424
0.597,0.687,-1.71,-299.988,-24.719,-33.386
0.586,0.764,-1.624,-289.49,-15.686,-32.959
0.602,0.815,-1.542,-276.489,-8.301,-34.607
0.657,0.846,-1.472,-262.329,-2.869,-37.659
0.749,0.882,-1.4,-248.779,-0.183,-40.161
0.852,0.909,-1.33,-235.779,-1.404,-40.649
0.939,0.913,-1.296,-225.098,-5.981,-37.842
0.998,0.93,-1.285,-217.957,-11.292,-33.386
1.005,0.986,-1.264,-212.524,-15.198,-28.259
0.976,1.047,-1.236,-205.139,-15.198,-22.583
0.915,1.099,-1.202,-194.641,-9.399,-17.517
0.853,1.137,-1.124,-179.932,2.441,-13.245
0.826,1.179,-1.011,-163.269,18.86,-9.521
0.924,1.181,-0.895,-144.775,35.4,-5.981
0.983,1.159,-0.782,-125.793,45.41,-2.808
1.02,1.163,-0.662,-108.459,48.035,1.892
1.085,1.089,-0.606,-91.797,44.067,8.606
1.095,1.108,-0.526,-79.346,33.691,12.451
1.052,1.11,-0.465,-68.115,19.775,16.663
1.052,1.092,-0.46,-56.03,4.15,20.142
1.001,1.086,-0.464,-44.495,-9.521,20.813
0.97,1.068,-0.5,-32.776,-20.02,21.912
0.921,1.038,-0.557,-20.386,-25.208,22.705
0.877,1.022,-0.614,-7.446,-22.888,22.156
0.87,0.977,-0.671,6.958,-13.977,21.301
0.894,0.927,-0.719,23.01,-1.526,20.386
0.916,0.87,-0.751,40.283,12.756,19.653
0.971,0.809,-0.77,58.289,26.428,19.592
1.022,0.748,-0.77,76.538,36.133,19.775
1.071,0.676,-0.764,95.276,39.063,19.47
1.117,0.582,-0.776,113.525,34.668,17.334
1.145,0.501,-0.777,130.188,24.536,12.573
1.14,0.431,-0.788,145.569,9.521,6.653
1.121,0.367,-0.797,158.936,-6.409,1.465
1.087,0.307,-0.798,171.509,-22.4,-2.197
1.026,0.246,-0.803,183.594,-37.537,-4.272
0.953,0.19,-0.825,194.336,-49.622,-5.798
0.884,0.13,-0.837,203.979,-56.702,-6.47
0.819,0.078,-0.836,213.501,-58.777,-7.08
0.782,0.03,-0.853,221.558,-55.664,-8.362
0.764,-0.03,-0.854,229.37,-49.194,-10.376
0.768,-0.057,-0.863,235.901,-39.856,-13.062
0.798,-0.103,-0.856,242.493,-29.602,-15.564
0.822,-0.125,-0.847,248.474,-20.325,-17.151
0.846,-0.146,-0.838,253.601,-12.634,-17.761
0.867,-0.163,-0.824,258.484,-7.08,-18.616
0.866,-0.18,-0.812,263.672,-3.723,-20.752
0.86,-0.188,-0.79,268.005,-2.136,-24.17
0.865,-0.208,-0.779,271.057,-1.953,-27.344
0.884,-0.235,-0.76,273.132,-3.418,-30.762
0.892,-0.231,-0.753,273.01,-6.042,-34.424
0.883,-0.243,-0.732,272.583,-9.277,-37.537
0.857,-0.265,-0.721,271.301,-12.817,-41.26
0.832,-0.264,-0.686,269.226,-15.625,-46.387
0.939,-0.208,-0.611,265.137,-19.043,-51.392
1.215,-0.281,-0.695,263.794,-26.978,-49.5
0.994,-0.266,-0.626,260.132,-36.56,-47.485
0.989,-0.256,-0.67,249.084,-50.049,-46.631
1.002,-0.253,-0.655,240.173,-52.612,-45.837
1.11,-0.163,-0.606,233.154,-50.11,-44.495
0.998,-0.214,-0.634,226.99,-52.856,-38.94
1.05,-0.214,-0.627,220.947,-52.612,-32.41
1.028,-0.215,-0.624,215.454,-49.744,-27.405
0.972,-0.195,-0.62,211.67,-45.654,-23.254
1.001,-0.182,-0.573,208.923,-39.001,-18.25
0.983,-0.197,-0.577,207.458,-33.569,-13.489
0.97,-0.194,-0.546,205.383,-27.649,-8.789
0.942,-0.17,-0.512,203.857,-22.827,-4.517
0.929,-0.207,-0.508,202.332,-18.555,-0.854
0.893,-0.211,-0.481,199.036,-13.062,1.831
0.897,-0.197,-0.439,194.946,-7.324,3.54
0.876,-0.203,-0.404,190.552,-3.174,5.249
0.898,-0.203,-0.358,184.509,-0.305,6.775
0.877,-0.184,-0.31,177.368,-0.427,7.935
0.862,-0.169,-0.274,169.739,-1.892,10.559
0.851,-0.163,-0.247,161.56,-3.296,13.245
0.822,-0.153,-0.224,153.503,-3.845,14.526
0.809,-0.137,-0.205,145.447,-3.723,14.16
0.829,-0.122,-0.176,137.695,-2.625,13.245
0.884,-0.132,-0.156,130.493,-2.197,12.878
0.922,-0.139,-0.141,122.253,-3.479,13.428
0.973,-0.142,-0.135,114.136,-6.042,14.465
1.029,-0.152,-0.135,106.14,-8.972,14.893
1.065,-0.159,-0.137,99.426,-12.573,15.015
1.101,-0.155,-0.127,93.567,-16.235,15.137
1.13,-0.147,-0.124,88.623,-20.203,14.893
1.143,-0.142,-0.119,85.693,-23.56,14.587
1.169,-0.153,-0.11,84.351,-27.222,14.587
1.2,-0.172,-0.104,83.13,-30.884,15.442
1.212,-0.189,-0.098,80.75,-35.278,16.357
1.194,-0.2,-0.098,78.43,-39.307,16.785
1.166,-0.208,-0.109,75.623,-41.077,17.273
1.115,-0.202,-0.12,72.388,-39.49,18.005
1.133,-0.711,-0.987,-260.986,18.738,2.075
1.198,-0.697,-1.132,-270.691,20.813,0.854
1.236,-0.657,-1.264,-279.48,20.569,1.099
1.21,-0.592,-1.38,-287.109,17.334,3.052
1.151,-0.533,-1.513,-294.189,12.207,6.042
1.077,-0.478,-1.659,-299.744,8.423,8.606
1.015,-0.397,-1.778,-305.115,7.141,10.315
0.961,-0.303,-1.866,-308.777,7.874,10.742
0.924,-0.216,-1.924,-310.242,10.437,11.658
0.912,-0.141,-1.948,-309.875,13.0,13.916
0.918,-0.069,-1.96,-310.059,13.916,16.846
0.907,0.0,-1.942,-309.326,10.986,18.311
0.886,0.063,-1.908,-307.007,4.517,17.883
0.863,0.121,-1.863,-304.687,-4.15,15.381
0.842,0.177,-1.803,-300.842,-12.573,11.414
0.818,0.234,-1.725,-296.082,-20.142,6.775
0.775,0.282,-1.635,-291.809,-25.574,2.747
0.731,0.332,-1.539,-287.659,-28.259,-0.549
0.69,0.381,-1.45,-285.4,-27.649,-2.625
0.664,0.453,-1.389,-284.973,-24.109,-3.723
0.64,0.545,-1.348,-285.339,-19.531,-5.005
0.629,0.651,-1.29,-284.729,-13.855,-6.714
0.645,0.746,-1.241,-282.288,-8.179,-9.155
0.702,0.844,-1.193,-277.771,-3.662,-11.658
0.766,0.956,-1.125,-270.386,-1.465,-14.16
0.836,1.05,-1.056,-260.193,-2.319,-17.029
0.899,1.133,-0.987,-247.742,-6.958,-19.47
0.936,1.204,-0.924,-233.215,-13.855,-22.644
0.967,1.251,-0.883,-217.712,-21.606,-25.879
0.984,1.294,-0.859,-202.087,-28.198,-27.649
0.972,1.32,-0.849,-187.012,-32.288,-27.71
0.954,1.356,-0.849,-172.119,-32.043,-26.306
0.928,1.391,-0.857,-156.555,-27.588,-23.621
0.896,1.416,-0.874,-139.526,-19.592,-19.165
0.871,1.428,-0.882,-121.338,-8.667,-13.794
0.844,1.434,-0.871,-101.563,3.784,-9.338
0.804,1.422,-0.86,-80.872,16.846,-6.714
0.907,1.408,-0.817,-59.448,29.541,-5.371
0.912,1.362,-0.769,-37.292,37.354,-5.188
0.984,1.307,-0.712,-17.029,37.598,-4.639
1.007,1.238,-0.679,1.404,31.067,-3.296
1.021,1.174,-0.639,18.433,19.653,-2.93
1.018,1.134,-0.622,35.034,6.042,-2.869
0.979,1.039,-0.622,52.002,-6.775,-2.563
0.941,0.985,-0.633,67.749,-18.433,-3.113
0.892,0.919,-0.641,82.581,-25.085,-3.479
0.87,0.854,-0.658,96.924,-27.466,-3.967
0.856,0.773,-0.665,110.535,-26.855,-4.15
0.824,0.697,-0.689,122.986,-24.353,-3.845
0.814,0.618,-0.698,134.033,-18.433,-3.601
0.844,0.554,-0.699,144.043,-11.597,-3.967
0.887,0.498,-0.696,152.466,-6.897,-3.54
0.907,0.438,-0.696,159.912,-5.676,-2.808
0.914,0.379,-0.701,166.87,-7.446,-2.075
0.918,0.345,-0.702,173.767,-10.925,-2.502
0.911,0.292,-0.72,181.03,-16.479,-2.93
0.889,0.252,-0.739,188.599,-22.522,-4.272
0.883,0.226,-0.742,195.557,-27.527,-6.104
0.883,0.173,-0.754,202.576,-32.593,-6.897
0.863,0.131,-0.781,208.191,-36.255,-6.714
0.841,0.089,-0.795,212.341,-36.804,-6.592
0.808,0.053,-0.811,215.21,-34.485,-6.836
0.816,0.03,-0.807,217.468,-29.541,-7.202
0.818,0.009,-0.809,218.811,-23.865,-7.507
0.862,0.034,-0.778,219.238,-18.494,-8.911
0.875,-0.015,-0.796,221.191,-16.968,-7.935
0.907,-0.009,-0.774,221.619,-17.639,-8.118
0.916,-0.045,-0.785,221.741,-20.935,-8.362
0.91,-0.059,-0.802,221.619,-24.048,-9.644
0.915,-0.059,-0.789,220.154,-25.696,-10.925
0.933,-0.083,-0.806,220.398,-26.855,-11.658
0.98,-0.056,-0.785,220.398,-25.696,-12.146
1.007,-0.082,-0.781,221.069,-25.33,-10.925
1.038,-0.108,-0.79,222.656,-26.001,-7.629
1.05,-0.117,-0.771,222.839,-25.452,-4.7
1.053,-0.127,-0.74,222.9,-23.987,-2.197
1.057,-0.166,-0.733,223.45,-23.193,1.648
1.075,-0.132,-0.676,222.839,-21.484,3.906
1.095,-0.164,-0.639,222.046,-20.691,8.057
1.084,-0.199,-0.641,222.534,-21.606,12.39
1.001,-0.211,-0.614,219.727,-19.043,14.954
0.982,-0.233,-0.587,216.736,-13.245,16.418
0.98,-0.211,-0.528,213.379,-4.761,17.09
0.976,-0.245,-0.499,210.205,2.686,20.142
0.985,-0.263,-0.475,206.116,8.667,23.193
0.974,-0.261,-0.45,200.867,13.672,24.475
0.991,-0.279,-0.416,195.19,17.517,25.208
0.99,-0.311,-0.426,189.819,17.517,25.146
1.026,-0.321,-0.401,183.594,17.09,22.522
1.091,-0.313,-0.37,177.246,14.709,18.86
1.078,-0.321,-0.382,172.058,9.216,16.357
1.062,-0.344,-0.372,167.847,5.554,14.16
1.05,-0.308,-0.33,163.696,4.822,12.39
1.048,-0.333,-0.315,161.255,4.089,13.0
1.026,-0.338,-0.306,157.776,4.7,13.367
1.024,-0.356,-0.27,153.381,6.775,13.245
1.03,-0.375,-0.238,148.01,8.301,13.672
1.021,-0.382,-0.207,140.381,7.996,14.465
1.012,-0.368,-0.187,132.324,7.446,15.198
1.001,-0.359,-0.188,124.207,5.92,15.625
0.987,-0.345,-0.187,116.516,5.005,16.235
0.962,-0.298,-0.196,110.413,6.165,16.174
0.954,-0.265,-0.187,106.567,9.583,16.602
0.969,-0.235,-0.169,104.675,14.282,17.395
0.964,-0.211,-0.156,103.76,18.677,16.541
0.949,-0.203,-0.149,104.187,22.156,14.832
0.936,-0.197,-0.138,103.821,25.208,13.306
0.93,-0.199,-0.128,102.234,27.527,11.353
0.949,-0.196,-0.109,99.731,28.809,8.179
0.974,-0.184,-0.101,95.581,27.954,5.737
0.985,-0.157,-0.093,89.966,24.78,5.188
0.997,-0.136,-0.094,84.9,20.813,5.92
1.001,-0.124,-0.106,80.994,17.09,5.92
1.016,-0.121,-0.115,77.576,13.794,5.249
1.024,-0.101,-0.123,75.378,11.23,4.456
1.014,-0.075,-0.123,74.585,9.644,4.395
1.006,-0.076,-0.128,76.233,9.033,4.211
1.012,-0.082,-0.126,78.613,9.46,2.686
1.031,-0.091,-0.113,80.688,10.376,1.099
1.181,-1.229,-0.374,-148.071,-12.695,-31.799
1.211,-1.309,-0.483,-164.612,-6.775,-31.311
1.195,-1.394,-0.603,-183.472,-0.183,-28.015
1.108,-1.475,-0.729,-203.979,9.46,-19.287
0.976,-1.506,-0.865,-227.295,23.315,-4.761
0.835,-1.525,-0.995,-252.014,41.809,13.245
0.709,-1.55,-1.107,-275.391,65.186,31.433
0.661,-1.586,-1.214,-297.791,89.905,46.326
0.74,-1.608,-1.352,-322.083,109.436,57.007
0.93,-1.549,-1.478,-349.06,117.065,62.195
1.059,-1.448,-1.595,-374.756,107.483,61.462
1.097,-1.354,-1.773,-395.752,82.031,55.725
1.075,-1.192,-2.01,-416.687,48.706,49.072
0.96,-0.975,-2.229,-437.378,16.052,43.823
0.784,-0.768,-2.444,-452.698,-7.568,37.842
0.639,-0.556,-2.652,-460.571,-16.602,30.64
0.58,-0.309,-2.76,-462.585,-8.911,21.851
0.614,-0.102,-2.792,-456.116,10.376,13.794
0.678,0.075,-2.788,-443.481,32.776,9.399
0.74,0.232,-2.729,-428.894,52.307,10.437
0.835,0.346,-2.625,-414.734,65.613,16.968
0.932,0.441,-2.505,-401.489,66.65,26.733
0.994,0.538,-2.379,-389.343,54.199,35.095
0.991,0.646,-2.239,-375.671,30.762,39.734
0.934,0.745,-2.12,-359.436,1.526,39.795
0.837,0.83,-2.018,-341.064,-27.039,36.011
0.723,0.911,-1.92,-321.594,-49.683,29.419
0.612,0.987,-1.823,-302.734,-63.599,22.156
0.515,1.044,-1.74,-284.79,-68.665,15.381
0.435,1.086,-1.669,-268.738,-65.247,9.766
0.407,1.118,-1.623,-255.127,-53.467,6.104
0.39,1.159,-1.573,-244.08,-35.278,4.639
0.406,1.203,-1.493,-234.314,-13.062,6.531
0.499,1.219,-1.413,-224.915,9.094,12.573
0.622,1.209,-1.348,-216.187,25.208,19.836
0.692,1.219,-1.29,-207.886,31.555,24.963
0.768,1.24,-1.221,-197.205,28.931,28.259
0.819,1.281,-1.149,-182.495,20.081,29.114
0.866,1.288,-1.082,-162.964,7.324,28.198
0.82,1.299,-0.999,-140.93,-6.409,25.513
0.808,1.3,-0.929,-118.347,-19.043,21.667
0.769,1.297,-0.86,-95.276,-28.198,16.663
0.701,1.256,-0.832,-73.059,-31.616,12.817
0.666,1.243,-0.779,-54.016,-27.588,8.789
0.641,1.199,-0.743,-36.682,-16.907,6.897
0.698,1.171,-0.682,-22.644,-2.502,7.202
0.736,1.155,-0.63,-11.108,11.78,10.132
0.788,1.082,-0.612,-0.732,22.766,16.235
0.804,1.038,-0.599,7.08,30.151,20.447
0.82,1.004,-0.597,14.16,34.912,22.705
0.831,0.949,-0.617,23.071,37.109,23.254
0.846,0.907,-0.648,33.325,37.598,21.057
0.877,0.873,-0.67,46.692,35.706,16.235
0.893,0.838,-0.685,63.782,30.945,9.827
0.923,0.799,-0.68,83.557,24.109,2.563
0.956,0.736,-0.681,105.042,14.832,-3.967
0.94,0.659,-0.694,125.122,3.113,-10.193
0.966,0.626,-0.687,141.541,-8.972,-15.198
0.929,0.561,-0.696,156.311,-21.79,-17.456
0.88,0.51,-0.72,167.664,-33.752,-19.104
0.832,0.451,-0.749,176.941,-42.908,-20.325
0.782,0.419,-0.773,183.228,-46.936,-20.447
0.755,0.38,-0.806,189.392,-46.021,-20.142
0.745,0.333,-0.829,194.702,-40.649,-20.203
0.757,0.305,-0.858,199.707,-32.959,-20.935
0.768,0.278,-0.88,206.543,-24.536,-21.057
0.773,0.257,-0.891,214.111,-16.357,-20.752
0.795,0.216,-0.907,222.717,-8.972,-20.569
0.823,0.174,-0.926,231.018,-2.625,-21.667
0.869,0.128,-0.93,238.22,1.709,-23.132
0.912,0.074,-0.944,244.873,2.502,-24.902
0.936,0.026,-0.96,250.488,0.183,-27.954
0.946,-0.018,-0.971,255.493,-2.991,-32.043
0.955,-0.058,-0.975,259.949,-5.798,-36.438
0.961,-0.093,-0.97,262.512,-7.263,-40.222
0.964,-0.124,-0.963,263.184,-8.179,-42.969
0.964,-0.164,-0.963,262.634,-8.118,-45.349
0.984,-0.197,-0.959,260.254,-6.409,-47.729
1.016,-0.229,-0.951,256.165,-4.761,-49.438
1.039,-0.243,-0.956,250.854,-3.601,-50.476
1.085,-0.243,-0.949,245.972,-2.441,-50.476
1.104,-0.211,-0.887,242.432,-2.625,-48.645
1.211,-0.153,-0.918,242.493,-6.348,-41.443
1.061,-0.226,-0.893,247.864,-8.911,-30.945
1.067,-0.186,-0.856,249.939,-11.963,-27.405
1.009,-0.158,-0.773,254.089,-12.085,-24.78
0.919,-0.219,-0.773,260.864,-12.39,-20.508
0.937,-0.225,-0.732,262.39,-10.315,-17.517
0.881,-0.276,-0.746,261.169,-8.179,-15.686
0.869,-0.28,-0.739,255.859,-4.211,-14.587
0.845,-0.263,-0.732,248.291,0.916,-11.169
0.833,-0.225,-0.713,241.211,6.592,-6.287
0.811,-0.201,-0.724,234.009,12.39,-1.953
0.749,-0.17,-0.718,227.844,19.226,1.099
0.772,-0.145,-0.702,222.9,26.184,3.174
0.737,-0.152,-0.692,219.299,32.593,3.845
0.738,-0.116,-0.646,215.393,38.635,2.93
0.805,-0.181,-0.625,211.914,41.687,1.099
0.862,-0.255,-0.598,206.299,41.992,-4.456
0.947,-0.255,-0.538,197.449,37.903,-13.977
1.063,-0.287,-0.509,188.049,27.222,-21.057
1.159,-0.302,-0.483,176.392,11.719,-24.109
1.183,-0.316,-0.469,164.246,-6.714,-23.804
1.205,-0.327,-0.459,152.1,-24.353,-20.935
1.219,-0.342,-0.438,140.381,-39.368,-16.602
1.179,-0.339,-0.404,131.226,-51.27,-13.672
1.133,-0.323,-0.355,124.817,-59.265,-10.62
1.109,-0.328,-0.319,121.704,-63.66,-6.47
1.052,-0.334,-0.287,120.789,-64.88,-3.174
0.997,-0.332,-0.25,120.605,-62.195,0.488
0.975,-0.344,-0.216,119.873,-55.664,5.31
0.97,-0.349,-0.178,118.347,-46.997,8.728
0.964,-0.339,-0.135,115.479,-38.025,10.01
0.949,-0.316,-0.098,112.427,-29.419,9.827
0.931,-0.297,-0.076,108.826,-21.484,10.193
0.914,-0.277,-0.064,103.638,-13.55,11.719
0.906,-0.262,-0.049,97.046,-5.859,13.062
0.904,-0.244,-0.039,89.722,1.465,13.367
0.917,-0.222,-0.023,82.397,7.935,12.878
1.153,-1.021,-0.474,-166.199,-24.963,-7.629
1.108,-1.029,-0.557,-176.086,-23.926,-5.432
1.008,-1.015,-0.622,-185.242,-21.423,-3.601
0.961,-1.023,-0.692,-192.688,-15.137,-2.808
0.968,-1.045,-0.75,-200.317,-6.409,-2.563
0.985,-1.041,-0.784,-211.182,2.258,-4.517
1.026,-1.057,-0.824,-223.877,7.812,-10.132
1.094,-1.098,-0.907,-238.098,8.545,-17.578
1.151,-1.096,-0.999,-255.554,6.104,-24.902
1.214,-1.116,-1.098,-274.231,0.61,-29.968
1.272,-1.193,-1.255,-292.297,-7.507,-32.654
1.273,-1.229,-1.429,-312.134,-15.076,-34.485
1.216,-1.228,-1.593,-335.083,-18.494,-36.011
1.135,-1.219,-1.768,-358.948,-16.296,-35.889
1.024,-1.186,-1.954,-381.897,-9.216,-34.729
0.905,-1.132,-2.158,-404.297,3.784,-32.654
0.854,-1.046,-2.328,-423.645,23.315,-29.724
0.857,-0.95,-2.456,-439.453,46.021,-24.841
0.876,-0.818,-2.583,-454.224,65.552,-17.822
0.922,-0.68,-2.675,-464.6,78.43,-12.939
0.983,-0.523,-2.693,-468.75,83.74,-10.681
1.049,-0.372,-2.66,-467.468,79.468,-10.62
1.113,-0.257,-2.645,-459.9,64.026,-11.169
1.12,-0.131,-2.634,-450.317,39.49,-11.475
1.057,0.012,-2.595,-438.232,12.878,-13.977
0.97,0.145,-2.551,-423.34,-8.972,-18.738
0.866,0.277,-2.485,-407.776,-22.4,-24.78
0.766,0.409,-2.378,-391.663,-25.269,-31.006
0.719,0.522,-2.23,-375.183,-19.531,-35.4
0.748,0.619,-2.073,-359.741,-10.01,-36.438
0.826,0.695,-1.928,-346.802,-3.54,-35.767
0.908,0.775,-1.826,-336.426,-3.418,-36.011
0.975,0.873,-1.745,-327.332,-8.667,-37.842
1.019,0.986,-1.668,-317.749,-16.724,-40.1
1.048,1.098,-1.632,-306.396,-24.841,-40.771
1.077,1.192,-1.626,-294.373,-29.358,-40.894
1.12,1.293,-1.596,-280.64,-27.283,-39.185
1.174,1.392,-1.544,-265.564,-20.874,-33.813
1.207,1.487,-1.492,-248.779,-13.306,-25.513
1.208,1.592,-1.409,-229.37,-6.165,-15.442
1.172,1.686,-1.318,-205.994,-0.061,-4.089
1.18,1.735,-1.25,-180.603,5.676,7.751
1.155,1.765,-1.178,-154.907,11.597,18.738
0.988,1.794,-1.124,-130.005,15.503,27.466
0.93,1.764,-1.078,-104.858,21.179,35.828
0.879,1.76,-1.014,-80.444,28.87,41.321
0.828,1.71,-0.983,-56.274,36.133,45.959
0.814,1.667,-0.937,-33.813,41.443,49.011
0.863,1.562,-0.887,-11.841,42.725,51.575
0.867,1.449,-0.909,8.118,36.621,50.903
0.878,1.368,-0.895,26.733,27.771,47.791
0.871,1.266,-0.91,46.936,17.151,43.518
0.875,1.198,-0.896,67.932,6.958,37.964
0.871,1.085,-0.91,90.576,-2.808,32.104
0.88,0.963,-0.925,113.892,-10.681,25.757
0.898,0.849,-0.914,136.108,-16.479,18.677
0.933,0.731,-0.902,156.494,-20.874,12.939
0.955,0.612,-0.898,174.072,-25.818,9.46
0.971,0.519,-0.898,188.11,-29.663,8.423
1.002,0.427,-0.891,200.439,-32.471,9.766
1.022,0.346,-0.908,211.426,-35.767,11.536
1.032,0.26,-0.897,220.764,-38.391,12.695
1.032,0.193,-0.894,228.882,-40.283,13.367
1.024,0.141,-0.88,236.389,-41.809,13.062
1.029,0.085,-0.893,243.103,-42.603,13.55
1.012,0.012,-0.892,249.573,-42.236,15.503
1.001,-0.037,-0.891,254.883,-40.283,17.212
1.026,-0.057,-0.857,259.705,-36.926,19.409
1.023,-0.116,-0.868,264.709,-35.095,22.034
0.99,-0.168,-0.872,268.433,-31.555,22.583
0.987,-0.168,-0.856,269.592,-25.208,22.034
1.006,-0.204,-0.84,270.996,-18.86,22.461
1.024,-0.249,-0.848,272.034,-13.733,22.949
1.007,-0.296,-0.867,271.118,-9.155,22.705
1.012,-0.301,-0.841,268.127,-3.906,21.729
1.074,-0.274,-0.82,265.381,-0.305,20.752
1.01,-0.37,-0.881,263.245,1.465,20.996
1.065,-0.273,-0.788,257.996,5.066,18.25
1.077,-0.35,-0.839,256.409,3.662,18.799
1.081,-0.363,-0.829,255.005,3.113,15.808
1.057,-0.357,-0.808,252.197,2.869,11.597
1.072,-0.38,-0.808,250.793,2.869,8.85
1.085,-0.387,-0.772,249.39,3.662,7.568
1.083,-0.41,-0.738,247.681,2.747,7.324
1.064,-0.445,-0.712,246.155,1.282,7.08
1.035,-0.502,-0.663,244.995,0.916,6.47
0.943,-0.502,-0.661,243.164,2.869,1.282
0.974,-0.428,-0.528,240.906,10.986,-5.127
1.014,-0.488,-0.515,240.906,14.587,-5.981
0.977,-0.52,-0.52,238.525,15.015,-5.432
0.965,-0.519,-0.499,230.957,18.86,-3.784
0.956,-0.505,-0.487,221.68,24.536,-1.953
0.939,-0.488,-0.46,212.402,31.372,0.061
0.929,-0.48,-0.445,203.552,37.72,2.136
0.952,-0.452,-0.418,194.824,43.884,2.686
0.979,-0.43,-0.398,187.988,48.157,2.075
1.028,-0.386,-0.346,181.458,49.255,1.465
1.065,-0.394,-0.341,176.88,44.922,3.357
1.045,-0.403,-0.347,171.814,36.682,3.845
1.061,-0.377,-0.325,165.588,28.198,1.953
1.048,-0.36,-0.313,161.316,18.982,-0.183
1.035,-0.349,-0.299,158.142,9.399,-1.648
1.022,-0.34,-0.297,154.846,0.488,-2.319
0.98,-0.335,-0.31,151.184,-6.104,-2.625
0.919,-0.338,-0.323,147.217,-8.484,-2.808
0.881,-0.348,-0.31,142.822,-5.798,-3.113
0.862,-0.356,-0.291,138.428,0.183,-2.869
0.836,-0.405,-0.29,134.094,7.874,-1.892
0.844,-0.393,-0.247,129.15,16.357,-1.709
0.869,-0.401,-0.219,125.0,23.987,-1.221
0.878,-0.422,-0.212,122.375,29.236,-1.282
0.936,-0.402,-0.158,118.835,32.776,-2.686
0.965,-0.39,-0.129,116.455,31.799,-3.113
0.982,-0.396,-0.116,114.929,26.55,-3.052
0.988,-0.385,-0.111,112.793,18.616,-3.235
0.983,-0.382,-0.103,110.779,10.01,-3.113
0.947,-0.385,-0.117,108.582,1.892,-2.991
0.948,-0.378,-0.123,105.225,-3.845,-3.296
0.949,-0.367,-0.138,101.563,-6.836,-4.211
1.184,-1.235,-0.319,-130.066,-32.166,-10.315
1.177,-1.289,-0.428,-143.127,-35.767,-10.986
1.176,-1.362,-0.553,-156.86,-36.987,-10.254
1.143,-1.426,-0.688,-169.617,-35.156,-8.057
1.118,-1.455,-0.823,-183.105,-28.809,-4.639
1.102,-1.47,-0.957,-199.036,-18.494,1.282
1.076,-1.495,-1.093,-214.478,-6.104,10.62
1.019,-1.52,-1.224,-229.004,9.033,22.461
0.897,-1.489,-1.359,-246.582,26.428,37.964
0.776,-1.462,-1.509,-267.456,44.495,54.138
0.718,-1.376,-1.63,-287.964,64.636,66.345
0.703,-1.205,-1.646,-306.641,84.167,73.547
0.703,-1.003,-1.583,-319.824,97.595,79.041
0.708,-0.854,-1.582,-328.735,100.098,86.06
0.64,-0.734,-1.667,-336.06,91.675,91.675
0.51,-0.619,-1.785,-345.947,78.43,91.98
0.364,-0.44,-1.939,-356.262,66.101,87.585
0.218,-0.232,-2.093,-367.371,58.472,79.651
0.151,-0.034,-2.227,-377.441,57.495,70.313
0.196,0.131,-2.29,-382.996,60.12,62.317
0.32,0.243,-2.29,-386.23,57.922,56.213
0.494,0.336,-2.244,-386.902,42.053,48.767
0.647,0.409,-2.213,-384.399,11.292,37.72
0.71,0.488,-2.192,-378.662,-29.236,22.156
0.72,0.587,-2.167,-368.53,-71.899,4.578
0.649,0.688,-2.13,-353.455,-107.178,-12.207
0.565,0.765,-2.066,-334.9,-126.648,-26.672
0.508,0.831,-1.989,-314.88,-129.15,-36.682
0.476,0.898,-1.895,-295.288,-118.164,-42.236
0.443,0.969,-1.796,-278.015,-96.191,-43.823
0.448,1.057,-1.648,-262.024,-65.369,-42.114
0.552,1.093,-1.462,-245.911,-29.846,-36.804
0.771,1.089,-1.268,-231.934,-0.916,-28.625
0.971,1.081,-1.118,-223.267,11.963,-18.738
1.059,1.088,-1.017,-218.628,7.507,-9.766
1.112,1.102,-0.958,-214.478,-8.423,-4.761
1.133,1.121,-0.956,-209.412,-28.931,-4.822
1.119,1.159,-0.966,-201.599,-46.204,-8.423
1.085,1.2,-0.938,-190.43,-54.81,-12.024
1.061,1.225,-0.894,-175.171,-54.016,-13.55
1.024,1.237,-0.844,-157.41,-45.227,-12.024
0.996,1.229,-0.768,-137.634,-29.724,-7.568
0.998,1.194,-0.67,-117.859,-10.559,-1.77
1.012,1.152,-0.555,-100.281,6.531,4.883
1.018,1.107,-0.47,-85.388,18.25,10.62
1.021,1.053,-0.406,-71.899,23.193,13.855
1.018,1.016,-0.36,-59.937,22.766,14.099
1.001,0.997,-0.339,-48.706,18.25,12.39
0.988,0.974,-0.337,-37.231,12.512,9.46
1.011,0.948,-0.341,-26.062,7.996,6.897
1.069,0.938,-0.34,-16.357,4.395,6.042
1.101,0.93,-0.345,-8.057,0.061,6.287
1.107,0.941,-0.376,0.061,-5.432,7.202
1.105,0.931,-0.415,10.742,-10.62,8.484
1.095,0.889,-0.487,23.804,-14.038,9.521
1.071,0.829,-0.559,39.795,-14.404,9.644
1.055,0.807,-0.599,57.312,-11.108,8.545
1.058,0.775,-0.629,75.806,-4.944,6.592
1.081,0.73,-0.653,94.666,1.953,5.005
1.064,0.63,-0.68,114.075,8.362,3.662
1.139,0.605,-0.637,129.639,12.878,1.465
1.04,0.443,-0.727,146.79,11.597,1.648
1.052,0.443,-0.653,155.64,11.78,-3.845
1.051,0.408,-0.645,163.94,6.958,-7.935
1.018,0.331,-0.654,173.279,-0.427,-9.705
0.986,0.305,-0.649,178.467,-7.874,-12.878
0.91,0.293,-0.67,183.533,-14.343,-16.968
0.906,0.261,-0.675,188.477,-17.151,-18.921
0.94,0.207,-0.693,194.153,-19.287,-19.043
0.948,0.151,-0.721,197.998,-22.156,-19.104
0.939,0.108,-0.743,199.097,-24.78,-19.104
0.932,0.067,-0.761,198.975,-25.696,-19.897
0.929,0.037,-0.775,198.975,-24.902,-21.484
0.937,0.014,-0.777,198.792,-22.888,-23.315
0.968,-0.011,-0.792,198.853,-21.24,-24.597
0.991,-0.027,-0.803,199.036,-20.447,-24.78
0.976,-0.049,-0.815,199.585,-19.958,-23.193
0.965,-0.053,-0.81,200.623,-19.409,-21.545
0.954,-0.062,-0.813,202.209,-18.066,-19.653
0.952,-0.07,-0.809,204.041,-15.625,-17.761
0.957,-0.075,-0.807,205.688,-13.245,-16.235
0.95,-0.083,-0.807,207.397,-11.108,-14.648
0.948,-0.089,-0.794,209.29,-9.644,-13.428
0.941,-0.095,-0.784,210.632,-9.155,-12.085
0.909,-0.116,-0.781,211.731,-8.972,-10.925
0.882,-0.133,-0.764,211.914,-8.301,-10.864
0.869,-0.134,-0.74,210.754,-7.568,-11.597
0.841,-0.159,-0.734,208.984,-7.08,-12.024
0.807,-0.137,-0.707,207.275,-7.202,-12.634
0.803,-0.158,-0.721,206.482,-7.874,-12.329
0.941,0.072,-0.593,204.59,-7.507,-16.785
1.107,-0.063,-0.691,206.97,-11.597,-5.493
0.616,-0.292,-0.712,211.975,-9.827,5.005
0.733,-0.162,-0.702,202.942,-9.155,-1.648
0.73,-0.177,-0.635,200.867,-1.221,-1.77
0.734,-0.216,-0.651,196.655,4.883,-1.953
0.715,-0.266,-0.621,191.711,12.268,0.061
0.715,-0.31,-0.599,184.692,16.724,1.526
0.861,-0.248,-0.578,175.842,17.151,1.038
0.772,-0.346,-0.595,170.288,18.066,4.089
0.671,-0.337,-0.504,161.804,20.02,3.296
0.783,-0.358,-0.579,153.87,21.24,3.54
0.689,-0.34,-0.517,146.484,28.503,1.587
0.639,-0.317,-0.482,140.991,34.973,0.305
0.516,-0.277,-0.492,139.465,39.673,0.793
0.844,-0.399,-0.552,140.808,49.927,1.77
0.731,-0.393,-0.523,136.108,63.049,-11.23
0.798,-0.304,-0.383,132.812,72.327,-23.682
0.964,-0.36,-0.409,133.301,69.763,-31.86
1.035,-0.376,-0.366,131.409,63.721,-38.696
1.079,-0.346,-0.308,124.329,53.467,-42.114
1.17,-0.401,-0.337,116.272,38.452,-40.71
1.2,-0.391,-0.319,104.248,23.682,-40.833
1.17,-0.33,-0.285,91.858,8.667,-40.1
1.184,-0.339,-0.302,84.106,-6.592,-34.912
1.21,-0.336,-0.319,78.552,-19.043,-29.724
1.193,-0.294,-0.312,73.608,-27.954,-26.245
1.158,-0.262,-0.314,70.313,-33.936,-22.644
1.136,-0.246,-0.332,69.336,-36.56,-19.226
1.046,-1.206,-0.364,-133.301,-27.771,-1.892
0.945,-1.308,-0.457,-144.409,-16.968,1.404
0.845,-1.391,-0.529,-158.386,-0.488,5.188
0.742,-1.422,-0.609,-174.561,21.851,10.315
0.675,-1.454,-0.683,-191.345,47.058,17.944
0.68,-1.476,-0.773,-208.862,72.998,25.635
0.734,-1.467,-0.805,-228.149,94.91,30.884
0.792,-1.473,-0.887,-249.207,107.91,34.729
0.84,-1.431,-1.024,-272.339,111.877,37.048
0.872,-1.285,-1.146,-297.668,111.389,39.001
0.855,-1.181,-1.287,-320.374,107.666,42.419
0.764,-1.102,-1.504,-341.675,103.333,45.898
0.695,-0.965,-1.694,-361.572,104.004,48.279
0.636,-0.745,-1.836,-377.869,111.023,49.377
0.585,-0.545,-1.909,-386.169,120.667,49.866
0.594,-0.413,-1.984,-386.108,130.005,50.781
0.601,-0.295,-2.048,-382.385,136.108,51.697
0.679,-0.152,-2.083,-379.028,139.16,51.575
0.795,-0.014,-2.077,-375.61,132.935,51.331
0.861,0.106,-2.072,-371.521,113.281,51.086
0.853,0.226,-2.067,-366.821,82.153,50.659
0.804,0.333,-2.065,-359.009,45.471,48.706
0.739,0.417,-2.077,-346.924,10.193,44.128
0.687,0.495,-2.097,-332.214,-17.029,36.804
0.65,0.599,-2.075,-316.528,-34.607,29.663
0.598,0.71,-2.009,-299.072,-42.48,25.146
0.564,0.794,-1.922,-280.029,-41.626,23.437
0.556,0.856,-1.803,-261.169,-34.668,24.658
0.538,0.881,-1.683,-243.042,-24.719,27.954
0.299,0.99,-1.512,-226.868,-15.32,30.945
0.537,0.92,-1.417,-210.876,-8.423,36.682
0.577,0.911,-1.399,-199.829,-3.906,38.025
0.55,0.852,-1.242,-191.406,-3.235,36.743
0.698,0.951,-1.159,-184.998,-12.756,31.738
0.557,0.942,-1.153,-175.964,-28.564,25.024
0.667,0.938,-1.18,-167.908,-40.771,20.203
0.618,1.016,-1.118,-161.072,-44.006,9.827
0.67,1.08,-1.14,-152.039,-43.701,5.615
0.65,1.103,-1.094,-139.771,-39.124,7.263
0.688,1.149,-1.066,-125.854,-30.64,11.353
0.696,1.161,-1.016,-110.779,-19.043,14.526
0.746,1.191,-0.925,-96.13,-5.798,17.09
0.803,1.202,-0.841,-81.238,3.296,20.081
0.837,1.201,-0.773,-67.2,7.202,23.01
0.875,1.201,-0.711,-53.894,6.653,23.865
0.88,1.189,-0.669,-39.917,2.136,22.156
0.874,1.175,-0.639,-25.696,-3.479,19.104
0.87,1.156,-0.618,-11.353,-8.545,15.381
0.854,1.117,-0.619,3.662,-12.329,11.658
0.853,1.074,-0.627,18.799,-13.611,9.155
0.855,1.026,-0.634,33.752,-12.268,6.958
0.868,0.958,-0.645,48.34,-9.094,5.249
0.891,0.89,-0.643,60.974,-3.967,3.967
0.909,0.822,-0.647,71.838,0.854,3.052
0.917,0.752,-0.655,81.909,4.944,2.197
0.936,0.68,-0.674,92.163,8.362,0.793
0.955,0.62,-0.683,103.638,10.376,-1.526
0.972,0.554,-0.697,116.943,10.132,-3.723
0.988,0.483,-0.706,130.798,7.446,-6.958
0.996,0.422,-0.708,145.142,2.869,-11.658
1.006,0.366,-0.704,159.058,-3.906,-15.93
0.999,0.297,-0.702,172.302,-13.245,-19.226
0.96,0.23,-0.712,183.167,-24.048,-22.4
0.929,0.171,-0.724,191.711,-33.752,-26.184
0.91,0.116,-0.733,197.51,-41.626,-30.029
0.897,0.087,-0.74,201.538,-47.424,-33.508
0.89,0.033,-0.754,204.163,-52.368,-35.706
0.875,-0.018,-0.799,205.322,-56.335,-36.987
0.861,-0.031,-0.819,205.994,-57.434,-38.269
0.851,-0.032,-0.821,208.13,-55.847,-38.269
0.85,-0.048,-0.821,211.487,-52.673,-37.476
0.84,-0.066,-0.835,214.355,-48.279,-37.048
0.8,-0.084,-0.839,218.323,-42.969,-36.682
0.807,-0.072,-0.822,223.206,-36.133,-35.95
0.905,-0.113,-0.806,228.638,-29.602,-34.424
0.871,-0.059,-0.741,231.445,-27.222,-33.691
0.841,-0.162,-0.81,232.117,-30.884,-30.579
0.825,-0.109,-0.739,229.492,-30.396,-30.09
0.828,-0.085,-0.726,226.99,-31.067,-29.602
0.807,-0.14,-0.752,222.717,-25.513,-30.029
0.873,-0.137,-0.728,220.398,-22.705,-30.579
0.894,-0.141,-0.712,217.59,-21.484,-29.663
0.938,-0.143,-0.709,214.844,-22.583,-28.87
0.99,-0.133,-0.695,212.769,-24.353,-28.015
1.001,-0.133,-0.687,210.266,-27.344,-26.611
1.021,-0.13,-0.676,207.214,-30.701,-24.536
1.031,-0.125,-0.67,204.529,-34.18,-21.912
1.031,-0.129,-0.66,200.867,-36.926,-18.555
1.002,-0.122,-0.649,197.815,-39.124,-14.587
0.962,-0.124,-0.643,195.251,-39.368,-10.193
0.928,-0.135,-0.641,192.505,-37.231,-6.348
0.876,-0.136,-0.639,189.27,-32.166,-3.845
0.828,-0.131,-0.624,185.791,-23.865,-2.808
0.807,-0.136,-0.605,181.702,-13.123,-1.77
0.844,-0.157,-0.583,177.002,-2.869,-1.16
0.906,-0.177,-0.557,170.959,4.7,-1.099
0.988,-0.187,-0.528,164.551,7.141,-0.732
1.075,-0.191,-0.507,158.02,3.174,1.526
1.152,-0.191,-0.493,152.466,-7.141,4.333
1.188,-0.182,-0.479,147.949,-21.667,5.798
1.162,-0.174,-0.469,145.996,-38.757,5.981
1.081,-0.173,-0.469,146.118,-54.199,6.409
0.963,-0.182,-0.475,146.79,-63.965,7.141
0.815,-0.191,-0.49,147.095,-64.819,7.202
0.696,-0.199,-0.504,146.057,-54.321,6.348
0.625,-0.204,-0.496,144.165,-33.752,4.883
0.644,-0.208,-0.48,141.113,-7.385,3.235
0.689,-0.208,-0.454,135.986,19.958,3.113
0.755,-0.206,-0.424,130.31,44.189,4.883
0.842,-0.193,-0.387,124.756,62.012,7.996
0.902,-0.194,-0.363,119.263,71.716,11.475
0.904,-0.213,-0.378,114.319,74.036,14.282
0.882,-0.208,-0.401,110.962,73.425,14.648
0.876,-0.195,-0.405,109.619,74.463,12.329
0.911,-0.203,-0.398,110.596,76.599,8.118
0.97,-0.224,-0.39,111.389,77.942,2.747
1.027,-0.244,-0.369,111.45,77.332,-2.319
1.094,-0.263,-0.342,110.352,73.181,-5.249
1.175,-0.294,-0.311,107.91,66.04,-7.263
1.088,-0.949,-0.629,-155.518,13.0,11.23
1.119,-0.976,-0.705,-167.114,7.019,13.55
1.151,-1.005,-0.807,-178.467,-0.732,16.968
1.136,-1.03,-0.902,-188.843,-8.789,20.691
1.078,-1.064,-0.991,-197.388,-14.343,24.658
1.001,-1.108,-1.074,-206.299,-15.381,29.846
0.878,-1.144,-1.161,-217.651,-10.864,37.964
0.742,-1.182,-1.273,-232.483,-1.953,48.401
0.639,-1.224,-1.368,-250.488,10.742,59.204
0.555,-1.232,-1.457,-270.508,24.78,68.176
0.486,-1.202,-1.521,-291.443,37.781,75.195
0.442,-1.134,-1.562,-310.242,48.706,80.139
0.419,-1.071,-1.593,-325.562,56.702,83.801
0.439,-1.021,-1.642,-339.172,60.425,87.83
0.408,-0.945,-1.722,-355.408,58.411,92.896
0.32,-0.853,-1.833,-373.596,52.551,96.863
0.237,-0.738,-1.979,-390.625,48.584,98.999
0.159,-0.579,-2.08,-406.25,48.95,99.731
0.103,-0.421,-2.151,-417.175,53.406,98.022
0.105,-0.279,-2.218,-420.837,60.059,94.543
0.15,-0.152,-2.254,-419.434,66.345,90.332
0.236,-0.048,-2.24,-414.001,69.763,87.219
0.313,0.039,-2.228,-405.762,67.688,86.426
0.374,0.113,-2.205,-394.409,60.242,87.219
0.423,0.179,-2.176,-382.935,50.354,87.097
0.456,0.25,-2.13,-370.422,39.429,83.191
0.494,0.318,-2.075,-356.934,29.602,76.111
0.554,0.394,-2.022,-344.177,20.935,69.397
0.597,0.481,-1.975,-333.069,11.475,64.636
0.617,0.558,-1.936,-320.984,2.991,61.157
0.641,0.635,-1.916,-308.472,-1.648,59.875
0.672,0.734,-1.888,-295.349,-1.709,60.059
0.74,0.819,-1.851,-281.006,1.343,60.73
0.814,0.909,-1.789,-265.32,3.723,60.608
0.844,0.997,-1.704,-248.23,3.174,59.509
0.841,1.066,-1.644,-229.858,-0.244,58.35
0.792,1.127,-1.601,-212.585,-3.357,58.777
0.73,1.181,-1.544,-195.374,-3.54,58.899
0.679,1.227,-1.463,-177.185,-0.305,57.678
0.652,1.259,-1.376,-158.936,4.028,55.115
0.658,1.267,-1.292,-139.587,7.507,51.88
0.651,1.264,-1.234,-121.216,6.836,49.255
0.76,1.271,-1.155,-103.699,3.113,45.654
0.631,1.27,-1.098,-86.487,-3.906,40.527
0.702,1.255,-1.074,-69.336,-11.841,35.95
0.616,1.276,-1.011,-53.04,-18.372,29.907
0.594,1.274,-0.976,-36.072,-23.193,24.475
0.596,1.269,-0.953,-19.165,-23.193,18.86
0.562,1.296,-0.907,-3.296,-18.982,12.085
0.569,1.256,-0.873,14.404,-13.123,9.521
0.571,1.2,-0.875,31.067,-8.362,6.836
0.599,1.141,-0.875,45.044,-2.686,2.808
0.625,1.091,-0.9,58.228,1.77,-1.038
0.676,1.053,-0.914,70.679,6.104,-3.296
0.736,1.0,-0.931,83.313,6.958,-5.31
0.78,0.942,-0.952,97.412,3.235,-9.338
0.812,0.854,-0.988,112.793,-3.967,-15.503
0.851,0.788,-1.0,128.662,-13.611,-24.475
0.867,0.709,-1.017,145.203,-25.94,-34.18
0.891,0.629,-1.028,161.499,-38.757,-42.786
0.893,0.547,-1.051,177.246,-51.27,-49.194
0.879,0.482,-1.061,192.322,-61.89,-53.162
0.865,0.415,-1.065,206.055,-69.824,-54.626
0.844,0.349,-1.066,218.811,-75.928,-54.443
0.84,0.286,-1.055,230.53,-80.322,-52.979
0.849,0.232,-1.031,239.258,-84.717,-50.598
0.84,0.171,-1.032,246.521,-91.125,-48.584
0.828,0.11,-1.043,251.221,-97.9,-47.18
0.821,0.065,-1.062,254.272,-104.187,-45.654
0.802,0.03,-1.081,256.897,-109.741,-44.128
0.775,-0.004,-1.1,259.949,-112.793,-42.48
0.76,-0.039,-1.114,263.367,-112.305,-40.344
0.747,-0.075,-1.116,267.456,-108.337,-37.964
0.748,-0.111,-1.123,270.63,-101.563,-36.133
0.766,-0.161,-1.129,272.644,-93.018,-34.485
0.811,-0.191,-1.117,272.644,-83.252,-32.898
0.852,-0.217,-1.115,271.912,-74.097,-30.396
0.907,-0.227,-1.108,269.592,-65.43,-26.428
0.966,-0.233,-1.094,268.127,-59.631,-21.545
0.998,-0.245,-1.092,267.395,-57.251,-17.029
1.009,-0.252,-1.083,268.188,-56.763,-13.733
1.032,-0.247,-1.074,270.691,-58.35,-11.658
1.046,-0.261,-1.068,274.963,-61.279,-9.644
1.037,-0.265,-1.052,279.968,-64.88,-8.484
1.016,-0.275,-1.041,285.4,-68.237,-7.019
0.97,-0.306,-1.027,290.1,-69.58,-4.883
0.968,-0.295,-1.0,292.725,-67.993,-3.296
0.892,-0.316,-0.973,293.64,-63.721,-1.343
0.932,-0.333,-0.951,291.321,-57.678,0.793
0.914,-0.355,-0.932,286.56,-49.927,2.197
0.96,-0.359,-0.884,279.785,-41.138,3.601
1.029,-0.346,-0.853,272.339,-34.485,6.714
1.088,-0.34,-0.825,265.503,-31.738,11.841
1.109,-0.352,-0.821,260.437,-32.166,18.066
1.109,-0.324,-0.808,257.019,-34.18,22.522
1.074,-0.321,-0.809,256.226,-35.4,26.489
1.028,-0.317,-0.794,256.897,-34.302,27.832
0.984,-0.341,-0.778,257.568,-30.396,28.259
0.96,-0.362,-0.748,257.507,-24.536,28.137
0.958,-0.391,-0.711,256.409,-18.005,28.442
0.996,-0.44,-0.657,253.723,-12.39,29.419
1.002,-0.472,-0.623,249.512,-9.521,30.518
0.986,-0.472,-0.574,243.835,-8.179,31.067
0.998,-0.461,-0.534,237.793,-7.385,31.311
1.001,-0.481,-0.545,232.361,-7.08,32.166
1.136,-0.542,-0.518,225.891,-6.165,31.311
1.037,-0.483,-0.455,215.149,-8.911,26.733
1.025,-0.515,-0.44,207.886,-14.221,28.381
1.044,-0.544,-0.436,201.599,-18.127,31.677
0.993,-0.535,-0.386,195.19,-20.203,33.142
0.914,-0.535,-0.345,191.528,-19.958,33.203
0.869,-0.562,-0.304,190.369,-16.663,32.898
0.852,-0.598,-0.248,187.927,-10.498,31.555
0.825,-0.627,-0.188,183.472,-5.066,28.992
0.826,-0.652,-0.148,176.514,-1.038,26.306
0.865,-0.67,-0.099,167.297,2.258,23.193
0.9,-0.669,-0.063,156.311,3.784,18.921
0.921,-0.664,-0.04,144.714,3.174,13.428
0.94,-0.636,-0.02,132.935,1.221,7.812
1.269,-1.003,0.346,-133.301,-26.306,-1.038
1.257,-1.095,0.316,-145.081,-25.146,1.648
1.234,-1.189,0.249,-157.593,-26.611,3.662
1.186,-1.26,0.177,-170.288,-29.236,3.601
1.135,-1.328,0.085,-183.655,-30.945,2.258
1.097,-1.419,-0.01,-195.801,-31.494,0.671
1.078,-1.509,-0.118,-207.458,-30.64,-1.648
1.11,-1.616,-0.271,-218.262,-29.114,-4.395
1.16,-1.718,-0.439,-227.051,-26.306,-6.958
1.181,-1.828,-0.604,-235.84,-21.179,-9.277
1.221,-1.943,-0.799,-247.253,-13.489,-7.751
1.255,-2.0,-1.003,-264.038,-4.578,-2.014
1.255,-2.001,-1.204,-288.94,6.042,4.944
1.239,-1.984,-1.426,-317.932,14.893,12.451
1.19,-1.956,-1.651,-346.558,22.095,18.677
1.119,-1.902,-1.853,-374.451,33.02,21.362
1.088,-1.815,-2.058,-399.902,47.241,22.217
1.079,-1.673,-2.286,-421.997,58.411,23.071
1.065,-1.505,-2.52,-441.101,63.232,24.536
1.099,-1.316,-2.765,-454.041,61.096,24.963
1.089,-1.033,-2.935,-461.609,54.81,19.043
0.991,-0.753,-2.983,-460.266,46.509,13.428
0.889,-0.528,-2.923,-449.402,36.377,9.949
0.902,-0.383,-2.867,-432.495,22.034,4.272
0.912,-0.214,-2.781,-416.626,0.244,-6.348
0.88,-0.075,-2.687,-404.968,-27.893,-20.264
0.844,0.037,-2.67,-396.606,-57.434,-34.363
