aX,aY,aZ,gX,gY,gZ
2.973,1.544,0.115,-122.681,743.652,-8.789
4.0,1.848,-0.235,-163.208,835.083,-9.033
4.0,2.452,-0.603,-205.017,864.319,9.094
4.0,3.095,-0.91,-220.276,827.82,45.227
4.0,3.452,-1.065,-188.416,741.882,95.093
4.0,3.345,-1.114,-119.019,635.193,152.893
4.0,2.815,-1.068,-34.729,546.509,223.877
4.0,2.012,-0.9,34.363,496.216,310.242
4.0,1.219,-0.74,79.834,490.967,388.794
4.0,0.266,-0.234,112.671,516.785,446.472
4.0,-0.235,-0.187,150.452,525.879,491.455
4.0,-0.68,0.258,199.585,513.855,536.133
3.873,-1.246,0.332,244.08,481.689,556.641
3.218,-1.906,0.359,282.043,447.144,560.791
2.503,-1.956,0.39,299.683,416.748,538.025
1.972,-1.822,0.321,313.171,410.583,519.836
1.937,-1.694,0.303,319.336,404.419,487.0
1.658,-1.615,0.234,317.688,381.165,441.528
1.437,-1.381,0.212,307.129,339.966,384.094
1.261,-1.097,0.237,289.429,286.072,326.721
0.941,-0.725,0.228,273.376,223.083,279.419
0.625,-0.463,0.221,264.587,164.551,243.713
0.331,-0.325,0.218,260.254,121.216,212.219
0.108,-0.368,0.235,250.671,98.267,177.795
-0.128,-0.569,0.183,231.689,93.384,139.099
-0.252,-0.719,0.115,198.364,109.253,97.839
-0.152,-0.732,0.011,153.442,142.09,65.674
-0.05,-0.653,-0.075,110.168,179.687,44.617
0.117,-0.641,-0.164,79.041,211.304,29.663
0.333,-0.524,-0.181,61.462,229.004,15.808
0.54,-0.317,-0.21,60.913,218.933,4.395
0.675,-0.188,-0.143,76.172,181.641,-2.136
0.714,-0.149,-0.147,101.746,122.681,-7.874
0.553,-0.151,-0.126,128.052,58.289,-11.108
0.26,-0.134,-0.105,147.949,4.822,-12.024
0.015,-0.152,-0.124,163.757,-26.794,-14.404
-0.106,-0.205,-0.14,171.936,-32.593,-21.057
-0.234,-0.235,-0.09,168.335,-16.724,-29.907
-0.037,-0.402,-0.092,153.381,9.644,-38.208
-0.052,-0.153,0.013,125.549,39.551,-49.072
0.115,-0.292,-0.005,101.99,65.002,-41.321
0.174,-0.124,0.447,76.721,82.764,-37.537
0.44,0.018,-0.218,54.016,73.608,-38.269
0.007,0.181,0.319,32.898,94.91,-30.518
0.376,0.215,0.102,34.119,74.463,-19.958
0.385,-0.021,0.094,32.898,69.458,-11.353
0.289,0.212,0.233,24.78,63.66,-20.142
0.385,0.197,0.215,23.865,48.279,-17.09
0.344,0.156,0.18,19.714,34.729,-17.944
0.233,0.283,0.279,10.193,29.724,-21.79
0.232,0.298,0.271,4.761,24.353,-20.386
0.172,0.341,0.282,-0.549,23.682,-18.616
0.159,0.344,0.278,-6.165,26.733,-16.357
0.104,0.336,0.255,-13.367,31.494,-16.785
0.085,0.426,0.244,-22.644,40.039,-19.653
0.051,0.417,0.202,-30.396,51.208,-19.714
0.244,0.517,0.337,-38.513,62.317,-23.437
0.314,0.538,0.299,-43.579,59.631,-22.705
0.364,0.499,0.267,-47.852,47.18,-17.761
0.276,0.584,0.236,-54.199,34.607,-18.127
0.278,0.617,0.218,-57.129,27.893,-16.602
0.252,0.661,0.205,-57.434,24.353,-17.212
0.247,0.666,0.207,-56.702,24.109,-17.212
0.283,0.623,0.195,-55.725,23.682,-17.029
0.279,0.712,0.213,-57.495,21.79,-20.142
0.263,0.718,0.18,-60.12,18.372,-20.935
0.288,0.718,0.135,-70.801,12.756,-21.545
0.303,0.75,0.13,-76.416,8.545,-24.109
0.334,0.779,0.141,-80.627,1.77,-26.428
0.353,0.759,0.132,-82.275,-9.033,-26.855
0.336,0.754,0.114,-82.764,-22.095,-28.625
0.301,0.826,0.097,-83.252,-32.837,-32.898
0.312,0.903,0.077,-83.862,-39.856,-37.598
0.32,1.006,0.086,-85.571,-44.556,-40.71
0.258,0.933,-0.003,-86.06,-47.729,-38.452
0.312,1.098,0.016,-90.454,-45.776,-40.527
0.326,1.029,-0.032,-92.834,-46.143,-36.743
0.359,1.065,-0.062,-96.741,-48.767,-37.292
0.365,1.139,-0.081,-103.76,-52.063,-40.161
0.46,1.146,-0.082,-104.919,-59.875,-39.001
0.403,1.135,-0.167,-102.6,-74.219,-37.964
0.288,1.238,-0.234,-99.06,-84.534,-37.537
0.342,1.282,-0.213,-94.91,-85.754,-33.997
0.279,1.126,-0.317,-82.397,-85.999,-31.921
0.317,1.235,-0.202,-76.05,-80.2,-39.368
0.299,1.173,-0.23,-65.552,-79.834,-43.579
0.398,1.207,-0.127,-57.495,-80.383,-49.561
0.459,1.179,-0.133,-50.049,-88.562,-54.993
0.493,1.146,-0.124,-45.959,-101.257,-59.937
0.524,1.167,-0.105,-47.974,-115.784,-63.721
0.503,1.131,-0.152,-50.293,-130.249,-62.683
0.475,1.089,-0.197,-54.138,-140.137,-59.631
0.413,1.1,-0.227,-56.946,-143.555,-59.265
0.358,1.079,-0.253,-55.115,-138.916,-58.899
0.354,1.067,-0.231,-51.025,-127.441,-59.631
0.375,1.044,-0.209,-45.41,-114.685,-61.523
0.465,1.052,-0.137,-39.551,-104.858,-62.561
0.509,1.017,-0.111,-33.203,-103.699,-60.608
0.495,0.964,-0.119,-27.832,-108.459,-57.8
0.438,0.96,-0.105,-23.254,-111.633,-59.082
0.433,0.967,-0.079,-18.799,-108.337,-61.768
0.431,0.957,-0.055,-15.015,-103.21,-63.11
0.453,0.933,-0.023,-13.672,-97.9,-63.477
0.487,0.902,0.002,-14.587,-93.201,-62.5
0.527,0.874,0.033,-18.311,-90.82,-61.646
0.576,0.848,0.059,-23.193,-92.957,-61.707
0.628,0.845,0.083,-29.724,-99.976,-62.012
0.599,0.889,0.081,-35.889,-112.183,-62.622
0.562,0.868,0.055,-39.063,-124.451,-61.462
0.536,0.825,0.026,-39.978,-132.263,-60.608
0.497,0.829,0.008,-39.795,-135.193,-63.232
0.454,0.831,0.004,-38.147,-133.118,-66.772
0.458,0.782,-0.007,-35.645,-127.441,-68.359
0.459,0.776,0.002,-34.973,-118.408,-71.411
0.463,0.766,0.005,-34.607,-109.253,-73.669
0.499,0.73,0.006,-34.607,-100.22,-74.158
0.532,0.726,0.019,-35.889,-92.285,-75.073
0.531,0.724,0.012,-37.17,-87.219,-76.294
0.535,0.702,-0.007,-38.33,-81.482,-76.904
1.776,0.999,-1.343,-36.926,172.607,9.033
2.325,1.551,-2.11,-56.213,263.0,33.569
3.09,2.31,-3.038,-72.388,371.521,67.688
3.938,3.186,-3.966,-71.411,487.976,113.281
4.0,3.993,-4.0,-45.227,595.581,181.763
4.0,4.0,-4.0,4.761,659.79,270.935
4.0,4.0,-4.0,83.557,653.503,348.083
4.0,3.94,-4.0,187.5,579.285,387.146
4.0,2.853,-4.0,307.129,451.416,389.709
4.0,1.469,-3.906,415.894,304.504,373.108
3.861,0.137,-3.398,491.333,188.232,357.3
3.298,-0.708,-3.083,540.771,127.686,363.22
2.815,-1.438,-2.459,582.642,122.986,389.221
2.093,-2.231,-2.193,605.042,144.958,399.231
2.073,-2.112,-1.502,597.656,197.266,373.901
1.959,-2.182,-1.03,580.261,234.558,344.055
1.867,-2.257,-0.721,546.143,234.375,307.922
1.728,-2.146,-0.459,485.168,216.553,265.869
1.39,-1.863,-0.311,411.255,187.073,218.14
1.12,-1.373,-0.199,339.111,161.194,174.255
0.955,-0.936,-0.061,281.189,146.484,141.785
0.945,-0.734,-0.094,241.882,138.977,116.638
0.933,-0.639,-0.183,214.355,133.606,93.201
0.913,-0.527,-0.186,192.383,128.174,77.576
0.824,-0.539,-0.242,175.476,122.498,67.749
0.573,-0.704,-0.291,140.564,123.535,49.744
0.523,-0.762,-0.24,120.056,127.197,41.87
0.488,-0.726,-0.159,99.243,126.099,36.987
0.451,-0.65,-0.125,81.238,115.112,33.325
0.364,-0.545,-0.07,68.726,96.924,27.649
0.293,-0.443,-0.039,64.697,75.195,20.264
0.235,-0.341,-0.072,71.228,47.119,10.559
0.194,-0.366,-0.118,79.59,20.813,0.183
0.104,-0.272,-0.094,84.106,1.892,-14.404
0.084,-0.328,-0.194,88.745,-9.766,-24.902
0.055,-0.287,-0.147,86.487,-12.207,-34.607
0.167,-0.376,-0.2,79.651,-8.179,-38.33
0.155,-0.145,0.002,65.979,-2.991,-43.152
0.193,-0.338,-0.159,55.481,-5.92,-40.161
0.039,0.115,-0.027,36.804,2.197,-41.443
0.377,0.367,0.315,34.241,7.263,-28.809
0.238,-0.45,-0.394,43.091,-10.315,-16.907
0.164,0.12,0.197,20.874,3.174,-27.527
0.333,0.255,0.137,16.418,0.732,-34.607
0.258,0.027,0.062,25.696,-11.047,-30.884
0.18,0.204,0.144,18.616,-9.583,-34.302
0.13,0.099,0.095,16.602,-7.263,-37.598
0.176,0.267,0.177,11.108,1.038,-44.617
-0.158,0.101,0.026,11.78,11.902,-44.189
0.348,0.721,0.304,8.728,32.532,-55.664
0.26,0.562,0.264,16.113,47.668,-40.527
0.199,0.522,0.281,23.437,39.49,-28.503
0.683,0.579,0.381,28.259,26.611,0.977
0.459,0.489,0.263,32.715,0.61,19.958
0.221,0.653,0.358,24.536,-16.602,19.226
0.168,0.601,0.265,21.484,-30.396,24.231
0.001,0.589,0.194,17.273,-30.762,18.127
-0.058,0.664,0.216,9.338,-17.456,7.935
0.001,0.672,0.207,3.235,-2.38,-0.549
0.027,0.707,0.199,-2.441,12.085,-8.728
0.069,0.737,0.224,-8.179,23.499,-15.137
0.096,0.778,0.222,-12.207,30.64,-18.127
0.087,0.766,0.196,-13.489,36.56,-19.043
0.306,0.867,0.302,-12.451,42.358,-20.813
0.345,0.744,0.288,-7.202,37.598,-19.409
0.437,0.797,0.323,-4.944,26.428,-20.508
0.438,0.802,0.376,-5.005,10.437,-19.531
0.415,0.752,0.337,-5.554,-7.507,-17.09
0.391,0.746,0.353,-8.118,-19.836,-18.555
0.366,0.702,0.338,-11.047,-29.236,-20.508
0.375,0.707,0.357,-14.465,-35.461,-23.437
0.326,0.759,0.345,-17.761,-39.368,-25.146
0.365,0.702,0.346,-19.043,-41.077,-21.24
0.306,0.673,0.288,-21.606,-40.588,-19.775
0.183,0.744,0.262,-24.963,-33.752,-21.179
0.258,0.806,0.36,-27.283,-21.423,-19.043
0.313,0.714,0.324,-24.902,-14.099,-11.536
0.328,0.698,0.318,-24.658,-9.888,-4.395
0.357,0.731,0.348,-27.222,-7.812,-0.854
0.332,0.788,0.374,-28.442,-9.216,-1.648
0.324,0.642,0.343,-28.564,-13.306,-0.854
0.269,0.785,0.283,-31.799,-18.86,-5.005
0.358,0.763,0.324,-34.546,-22.888,-3.723
0.342,0.739,0.309,-35.889,-32.043,-5.676
0.47,0.732,0.32,-36.987,-46.448,-7.751
0.413,0.76,0.303,-39.063,-63.293,-8.179
0.313,0.801,0.212,-40.344,-78.125,-9.827
0.182,0.818,0.115,-43.03,-81.238,-15.686
0.162,0.951,0.22,-44.861,-72.571,-25.452
0.228,0.95,0.144,-41.992,-68.42,-30.029
0.273,0.865,0.126,-41.687,-63.538,-31.433
0.311,0.964,0.131,-46.204,-62.256,-35.706
0.286,0.892,0.099,-47.974,-65.369,-34.363
0.299,0.949,0.081,-51.025,-67.444,-32.471
0.291,0.983,0.05,-52.856,-68.909,-30.334
0.251,1.007,0.025,-53.223,-68.298,-31.25
0.201,1.005,0.001,-51.392,-63.11,-33.936
0.22,1.036,0.059,-49.316,-54.81,-37.842
0.282,1.077,0.065,-46.326,-50.049,-39.612
0.296,1.042,0.045,-43.091,-48.828,-34.485
0.339,1.029,0.057,-42.297,-48.523,-28.442
0.361,1.038,0.085,-40.955,-50.72,-25.085
0.396,1.04,0.084,-39.368,-56.396,-23.499
0.343,1.06,0.072,-40.039,-63.721,-23.437
0.328,1.08,0.079,-40.955,-70.19,-22.705
0.321,1.067,0.048,-40.955,-75.745,-22.4
0.285,1.054,0.019,-41.443,-78.43,-24.292
0.248,1.048,-0.003,-42.114,-77.332,-27.832
0.224,1.044,-0.017,-42.664,-71.472,-33.142
0.236,1.015,-0.027,-42.969,-61.584,-37.415
0.281,0.998,-0.027,-44.067,-51.819,-40.588
0.342,1.016,0.001,-46.143,-44.128,-42.358
0.408,1.026,0.021,-47.241,-41.626,-41.504
0.444,1.029,0.033,-47.546,-45.105,-39.368
0.462,1.022,0.048,-47.668,-52.185,-37.048
0.468,1.007,0.058,-46.57,-61.89,-35.034
0.454,0.983,0.052,-44.434,-73.303,-34.119
0.436,0.962,0.04,-43.213,-84.595,-34.058
0.363,0.964,0.016,-42.725,-93.506,-34.607
2.057,0.611,-0.69,1.709,160.645,-11.108
2.535,0.937,-0.973,10.315,197.083,-2.441
3.111,1.344,-1.41,20.081,234.131,9.521
3.654,1.851,-1.982,31.494,282.959,24.841
4.0,2.368,-2.597,45.044,353.394,53.65
4.0,2.913,-3.118,61.707,434.692,106.567
4.0,3.378,-3.525,87.952,500.793,176.575
4.0,3.547,-3.695,127.38,540.344,248.474
4.0,3.285,-3.666,181.763,548.34,313.232
4.0,2.623,-3.643,246.399,519.47,355.408
4.0,2.018,-3.419,315.308,473.877,388.977
4.0,0.789,-3.041,396.484,428.101,433.228
4.0,-0.466,-2.616,465.454,390.564,459.717
3.864,-1.36,-2.024,522.339,354.065,472.595
3.413,-1.948,-1.494,564.575,318.481,470.215
2.797,-2.362,-1.068,598.633,282.654,454.529
2.034,-2.803,-0.737,612.305,246.582,430.603
1.36,-2.842,-0.354,591.37,230.225,396.118
0.968,-2.694,-0.054,547.241,222.29,348.633
0.815,-2.36,0.235,485.352,213.318,290.833
0.78,-1.945,0.412,416.016,189.514,234.253
0.659,-1.408,0.394,351.013,149.841,184.387
0.53,-0.891,0.331,299.438,109.802,146.484
0.516,-0.778,0.149,266.541,78.064,119.69
0.415,-0.748,0.003,239.38,59.021,97.229
0.303,-0.76,-0.086,210.876,54.749,80.75
0.157,-0.786,-0.203,184.509,60.669,68.42
0.051,-0.717,-0.215,159.485,79.712,54.565
0.075,-0.679,-0.201,140.686,105.713,42.053
0.106,-0.625,-0.187,125.488,127.747,30.701
0.184,-0.562,-0.129,110.352,139.709,21.057
0.358,-0.512,-0.069,97.107,135.925,13.611
0.418,-0.419,-0.074,82.031,112.061,5.371
0.365,-0.252,-0.098,66.406,76.416,-4.211
0.273,-0.103,-0.164,56.335,40.833,-14.343
0.184,0.015,-0.214,51.392,16.113,-25.208
0.083,0.097,-0.295,47.791,5.92,-32.959
0.01,0.157,-0.365,41.382,10.01,-35.828
-0.048,0.23,-0.411,34.485,25.879,-34.119
-0.019,0.32,-0.394,30.457,50.537,-28.992
0.054,0.391,-0.289,31.25,74.28,-24.719
0.164,0.419,-0.263,36.743,85.205,-20.874
0.301,0.251,-0.039,41.931,86.914,-19.653
0.525,0.642,0.137,46.631,65.43,-30.396
0.447,0.265,0.091,53.894,28.87,-24.292
0.309,0.484,0.178,46.143,0.854,-28.137
0.242,0.406,0.126,51.086,-21.24,-24.353
0.249,0.45,0.148,52.307,-27.771,-26.367
0.429,0.472,0.392,52.002,-28.564,-25.818
0.463,0.46,0.164,53.101,-44.495,-20.996
0.221,0.52,0.298,43.64,-48.34,-12.817
0.09,0.591,0.274,34.912,-40.1,-8.545
-0.036,0.488,0.171,31.616,-21.851,-3.357
-0.072,0.725,0.287,19.897,14.343,-5.493
0.014,0.602,0.294,14.404,48.645,-2.197
0.16,0.7,0.331,11.597,65.613,4.028
0.293,0.645,0.365,9.277,70.129,14.343
0.324,0.708,0.429,9.521,42.664,13.367
0.327,0.762,0.468,11.719,19.592,9.888
0.297,0.729,0.424,13.489,-5.859,9.766
0.221,0.71,0.37,13.55,-26.855,10.01
0.06,0.769,0.364,11.292,-37.415,7.141
0.017,0.736,0.311,8.728,-34.729,8.789
-0.023,0.735,0.3,5.798,-23.987,7.629
-0.023,0.739,0.286,1.831,-9.277,5.493
0.039,0.762,0.32,-1.77,5.31,4.395
0.118,0.776,0.341,-3.845,16.052,3.784
0.163,0.788,0.368,-4.639,20.081,3.235
0.21,0.796,0.378,-4.517,18.982,2.441
0.224,0.793,0.377,-3.723,13.977,-0.061
0.253,0.835,0.419,-2.808,7.141,-2.686
0.263,0.817,0.4,-1.282,-1.404,-3.723
0.277,0.812,0.433,0.061,-9.155,-5.127
0.295,0.797,0.441,0.854,-18.372,-6.775
0.283,0.805,0.441,0.305,-29.724,-7.69
0.228,0.778,0.406,-1.343,-40.527,-7.202
0.168,0.808,0.394,-2.991,-47.18,-7.446
0.1,0.826,0.363,-4.456,-48.462,-5.92
0.072,0.837,0.353,-5.249,-44.434,-2.014
0.027,0.836,0.333,-5.615,-36.194,2.136
0.002,0.854,0.335,-6.47,-24.475,3.906
0.007,0.867,0.342,-7.629,-12.085,4.578
0.04,0.861,0.357,-8.667,-2.319,4.7
0.104,0.853,0.395,-9.216,3.479,3.357
0.164,0.824,0.408,-9.399,2.441,2.441
0.143,0.829,0.385,-11.597,-3.601,0.61
0.123,0.857,0.388,-14.587,-10.376,-2.38
0.147,0.863,0.366,-15.564,-18.372,-5.127
0.101,0.88,0.348,-16.541,-26.733,-8.484
0.082,0.906,0.318,-16.968,-32.41,-9.399
0.046,0.904,0.286,-15.869,-34.241,-8.301
-0.008,0.886,0.252,-13.977,-30.945,-8.362
-0.018,0.897,0.262,-12.756,-22.034,-10.315
0.043,0.89,0.298,-10.62,-11.902,-11.78
0.12,0.857,0.319,-8.911,-7.141,-11.475
0.145,0.877,0.347,-9.827,-8.118,-10.925
0.167,0.883,0.356,-11.353,-12.817,-9.766
0.167,0.887,0.349,-12.939,-19.043,-8.911
0.151,0.903,0.353,-14.893,-24.78,-9.399
0.151,0.891,0.345,-15.747,-29.663,-10.437
0.156,0.879,0.339,-16.724,-33.875,-11.78
0.142,0.872,0.329,-17.578,-38.33,-13.367
0.103,0.847,0.303,-18.066,-41.809,-14.221
0.056,0.826,0.283,-19.348,-41.626,-14.832
0.037,0.85,0.29,-21.362,-36.987,-15.442
0.046,0.844,0.286,-21.973,-31.372,-14.404
0.062,0.821,0.277,-23.254,-27.344,-11.78
0.08,0.823,0.276,-24.475,-25.269,-10.681
0.094,0.813,0.274,-24.414,-25.574,-10.681
0.102,0.79,0.265,-24.048,-28.137,-12.207
0.09,0.775,0.253,-24.17,-31.799,-14.954
0.072,0.773,0.247,-24.414,-35.4,-18.982
0.078,0.768,0.25,-24.902,-38.086,-23.376
0.105,0.742,0.257,-24.658,-41.382,-27.649
0.141,0.751,0.279,-25.33,-46.448,-31.311
0.174,0.774,0.297,-26.672,-54.626,-33.264
0.149,0.767,0.289,-28.137,-65.857,-33.63
0.127,0.761,0.279,-31.006,-73.914,-32.288
0.101,0.752,0.271,-36.377,-78.064,-29.663
2.309,0.683,-0.512,19.836,96.924,-11.536
2.716,0.996,-0.808,20.508,144.348,-1.038
3.228,1.331,-1.081,25.94,201.782,19.653
3.68,1.594,-1.387,37.964,254.211,51.636
4.0,1.87,-1.696,55.237,298.096,91.37
4.0,2.088,-1.982,76.782,336.182,137.085
4.0,2.182,-2.3,102.051,361.45,186.34
4.0,2.313,-2.506,128.967,370.3,232.361
4.0,2.324,-2.617,159.302,365.784,284.485
4.0,2.047,-2.709,197.815,358.948,345.093
4.0,1.659,-2.569,238.22,357.849,398.254
4.0,0.778,-2.943,289.551,361.267,453.308
3.958,0.374,-2.568,336.487,384.277,492.187
3.37,-0.349,-2.256,376.831,408.997,499.573
3.603,-0.779,-2.045,427.551,408.569,498.718
2.987,-1.396,-1.564,480.53,388.55,489.563
2.651,-1.767,-1.255,526.672,348.511,461.365
2.275,-2.012,-1.029,558.167,298.828,421.631
1.776,-2.149,-0.819,569.763,251.831,373.23
1.469,-2.007,-0.556,559.998,209.778,316.101
1.241,-1.802,-0.368,532.959,166.016,257.996
1.06,-1.635,-0.204,491.699,123.474,205.933
0.873,-1.502,-0.112,439.331,81.421,161.133
0.699,-1.173,0.005,382.263,42.603,124.329
0.551,-0.916,0.016,332.947,10.498,95.764
0.391,-0.766,0.031,291.26,-11.169,74.158
0.245,-0.755,-0.006,256.714,-21.423,56.824
0.119,-0.743,-0.033,224.304,-20.142,42.236
0.015,-0.725,-0.05,191.589,-8.728,30.701
-0.079,-0.707,-0.091,160.095,9.705,22.583
-0.127,-0.693,-0.131,130.798,34.241,16.968
-0.119,-0.684,-0.177,102.478,60.913,11.841
-0.078,-0.651,-0.2,73.853,85.205,5.188
0.008,-0.585,-0.202,46.936,103.149,-1.953
0.1,-0.516,-0.228,24.658,112.061,-8.545
0.162,-0.439,-0.232,5.554,112.244,-15.381
0.21,-0.358,-0.308,-10.01,103.088,-23.376
0.198,-0.208,-0.303,-21.606,90.454,-31.677
0.231,-0.086,-0.31,-25.269,75.012,-39.001
0.219,0.075,-0.263,-21.118,57.8,-46.753
0.259,0.139,-0.281,-9.766,39.734,-50.659
0.307,0.213,-0.242,5.005,24.17,-53.162
0.276,0.328,-0.174,21.851,8.301,-56.396
0.278,0.316,-0.187,40.71,-6.531,-54.871
0.257,0.325,-0.11,53.955,-14.465,-52.856
0.304,0.377,0.188,62.134,-21.667,-52.612
0.522,0.284,-0.1,69.153,-43.945,-49.194
0.254,0.265,0.101,61.768,-51.453,-43.152
0.215,0.457,0.216,45.349,-52.673,-40.71
0.214,0.38,0.135,40.588,-54.993,-30.396
0.174,0.375,0.109,30.09,-46.753,-24.597
0.209,0.435,0.214,17.029,-31.494,-21.423
0.394,0.537,0.33,7.385,-24.475,-18.005
0.284,0.529,0.217,3.906,-26.184,-9.033
0.229,0.551,0.123,0.671,-18.25,2.686
0.08,0.535,0.092,-2.136,-3.418,7.507
-0.03,0.622,0.03,-4.517,26.978,-1.831
0.075,0.62,0.158,-4.578,69.824,-12.024
0.312,0.847,0.388,-1.587,96.436,-15.564
0.566,0.798,0.405,4.883,93.75,0.549
0.675,0.727,0.449,6.104,71.167,17.639
0.6,0.71,0.439,4.883,37.476,27.771
0.521,0.715,0.421,3.296,7.202,32.227
0.401,0.695,0.378,2.686,-14.709,30.64
0.318,0.685,0.371,2.38,-26.794,24.414
0.263,0.674,0.358,1.343,-31.433,17.822
0.274,0.686,0.373,-1.465,-31.006,14.465
0.22,0.647,0.305,-5.249,-28.076,13.306
0.214,0.752,0.353,-11.108,-19.226,9.46
0.244,0.755,0.323,-13.794,-10.437,7.996
0.277,0.76,0.321,-15.442,-3.479,7.202
0.286,0.771,0.312,-17.273,1.648,5.127
0.273,0.825,0.333,-18.127,6.47,1.282
0.347,0.809,0.33,-17.212,9.277,0.916
0.348,0.755,0.297,-16.174,8.789,2.441
0.38,0.783,0.327,-17.944,9.521,2.197
0.382,0.801,0.319,-18.616,7.629,0.427
0.394,0.817,0.321,-19.287,4.761,-0.122
0.381,0.807,0.298,-20.02,0.793,-0.122
0.365,0.822,0.303,-21.362,-2.075,-1.648
0.379,0.832,0.313,-21.484,-5.066,1.16
0.427,0.815,0.329,-22.461,-14.16,3.174
0.405,0.8,0.307,-23.254,-20.508,5.249
0.362,0.804,0.292,-24.353,-24.78,7.812
0.326,0.84,0.291,-26.367,-25.452,8.728
0.314,0.876,0.295,-27.1,-23.865,9.033
0.315,0.87,0.281,-27.527,-22.278,11.353
0.293,0.892,0.272,-29.114,-20.203,13.306
0.288,0.898,0.265,-31.25,-16.968,15.015
0.286,0.922,0.265,-32.654,-13.489,15.686
0.315,0.926,0.267,-33.569,-10.925,17.029
0.341,0.933,0.251,-33.997,-11.108,18.616
0.342,0.933,0.231,-35.583,-12.939,19.897
0.31,0.948,0.216,-37.048,-14.893,19.653
0.283,0.978,0.202,-37.842,-15.625,18.921
0.268,0.991,0.18,-37.598,-15.747,19.409
0.259,1.004,0.161,-37.17,-15.381,21.179
0.228,1.004,0.132,-36.865,-14.526,22.522
0.21,1.023,0.134,-36.743,-12.146,23.499
0.209,1.016,0.131,-35.034,-10.437,25.146
0.206,1.001,0.122,-32.959,-10.01,26.672
0.202,0.994,0.123,-31.311,-10.01,27.893
0.198,0.981,0.128,-29.602,-11.169,28.442
0.19,1.0,0.128,-27.832,-13.245,27.832
0.178,1.008,0.125,-26.794,-15.93,26.978
0.157,1.004,0.114,-25.757,-18.677,26.306
0.143,1.0,0.11,-24.841,-20.508,25.635
0.128,0.989,0.1,-23.987,-21.729,23.804
0.122,0.988,0.096,-22.766,-22.278,21.362
0.124,0.978,0.095,-21.912,-22.827,19.653
0.119,0.95,0.092,-20.935,-23.499,17.7
0.116,0.935,0.094,-19.836,-24.414,15.32
0.117,0.928,0.096,-18.494,-26.062,12.939
0.111,0.952,0.097,-16.479,-28.137,10.193
0.088,0.951,0.094,-14.404,-30.151,7.568
0.075,0.936,0.094,-13.062,-30.518,5.676
0.073,0.926,0.103,-12.573,-29.175,3.601
0.084,0.915,0.107,-12.878,-27.405,1.404
0.093,0.914,0.112,-14.16,-26.55,-0.732
1.738,0.681,0.041,12.39,115.54,12.695
1.741,0.797,-0.12,16.418,137.268,18.433
1.917,0.956,-0.293,19.714,177.917,22.156
2.297,1.149,-0.445,21.912,232.117,28.259
2.808,1.362,-0.628,22.705,286.316,41.748
3.323,1.577,-0.869,21.851,332.52,63.965
3.743,1.78,-1.223,20.691,369.812,96.436
4.0,1.999,-1.649,23.376,404.541,135.559
4.0,2.293,-2.014,37.476,443.42,174.683
4.0,2.632,-2.154,65.918,476.746,221.069
4.0,2.329,-2.551,112.305,487.732,284.973
4.0,2.437,-2.342,158.081,485.779,330.078
4.0,2.07,-2.146,216.553,467.041,369.812
4.0,1.151,-2.139,285.4,424.683,411.194
3.924,0.69,-1.676,337.036,383.484,432.251
3.592,-0.08,-1.511,394.104,344.91,452.637
3.119,-0.538,-1.227,439.636,314.575,454.224
2.741,-0.987,-0.934,470.215,294.556,454.773
2.283,-1.283,-0.63,485.352,273.56,449.89
1.757,-1.442,-0.431,484.314,251.953,432.19
1.347,-1.523,-0.303,469.666,235.657,402.1
1.025,-1.498,-0.188,441.589,221.558,359.924
0.831,-1.474,-0.115,404.358,204.346,310.73
0.629,-1.172,-0.02,362.305,180.115,261.414
0.449,-0.918,-0.044,325.745,150.513,214.661
0.376,-0.657,-0.051,299.744,120.3,173.035
0.302,-0.448,0.003,284.912,94.604,131.897
0.202,-0.455,0.031,279.541,75.317,92.773
0.108,-0.578,0.042,272.827,64.392,57.739
0.022,-0.735,0.045,256.836,62.378,28.931
-0.001,-0.846,0.032,230.896,67.993,7.263
0.011,-0.839,0.015,195.068,76.965,-6.104
0.034,-0.826,-0.083,154.053,85.144,-10.254
0.026,-0.79,-0.23,109.863,94.116,-7.019
0.005,-0.68,-0.347,66.04,105.957,0.244
-0.016,-0.512,-0.412,28.931,118.835,9.644
-0.052,-0.387,-0.475,6.714,129.211,15.076
-0.07,-0.288,-0.498,-2.502,136.841,13.184
-0.034,-0.188,-0.45,-1.892,140.503,3.54
0.07,-0.114,-0.362,7.202,135.742,-11.23
0.178,-0.073,-0.259,19.409,120.789,-28.931
0.289,0.002,-0.116,30.273,96.558,-45.105
0.372,0.054,-0.03,40.71,62.866,-56.091
0.413,0.031,0.035,47.913,25.33,-62.317
0.375,0.057,0.083,48.218,-8.057,-66.772
0.312,0.156,0.138,44.189,-33.447,-65.369
0.316,0.082,0.105,39.551,-50.049,-57.129
0.228,0.156,0.188,28.015,-55.725,-53.223
0.24,0.308,0.244,12.085,-54.565,-48.34
0.254,0.176,0.225,1.953,-50.903,-34.912
0.236,0.475,0.252,-11.719,-42.236,-33.997
0.338,0.466,0.262,-19.531,-28.748,-27.771
0.371,0.506,0.183,-18.311,-24.475,-22.095
0.339,0.546,0.188,-17.029,-18.921,-16.602
0.338,0.675,0.232,-12.085,-13.0,-12.39
0.395,0.703,0.243,0.916,-9.46,-6.653
0.357,0.609,0.217,12.024,-7.629,0.488
0.281,0.684,0.284,13.489,-3.174,2.93
0.194,0.652,0.277,14.587,2.136,7.08
0.076,0.661,0.257,11.292,12.573,6.775
0.081,0.705,0.285,4.089,29.48,7.751
0.097,0.733,0.282,-1.953,44.8,14.343
0.152,0.767,0.306,-7.751,54.81,21.973
0.278,0.803,0.374,-10.864,57.068,29.114
0.354,0.809,0.413,-9.766,47.18,33.63
0.304,0.729,0.357,-9.399,27.771,35.461
0.195,0.775,0.402,-12.451,8.606,34.607
0.212,0.816,0.363,-10.986,-5.127,33.63
0.167,0.84,0.355,-9.216,-11.23,24.963
0.198,0.796,0.34,-7.324,-16.724,18.494
0.206,0.809,0.371,-7.935,-20.752,12.878
0.191,0.837,0.334,-8.118,-26.306,9.644
0.181,0.849,0.322,-11.719,-27.405,5.676
0.187,0.86,0.297,-12.024,-28.015,3.479
0.179,0.882,0.303,-13.916,-25.879,2.686
0.177,0.823,0.259,-15.076,-22.034,5.249
0.182,0.873,0.302,-17.151,-16.174,5.432
0.203,0.876,0.306,-17.7,-11.047,7.08
0.201,0.806,0.27,-16.968,-8.24,9.399
0.186,0.873,0.323,-17.883,-4.517,6.348
0.236,0.899,0.358,-17.273,-2.258,5.981
0.244,0.826,0.312,-15.198,-5.066,8.179
0.186,0.871,0.323,-18.433,-8.728,7.446
0.151,0.885,0.317,-21.545,-11.902,7.385
0.14,0.876,0.316,-21.545,-15.076,7.202
0.129,0.831,0.295,-20.264,-18.738,6.47
0.112,0.805,0.29,-20.203,-21.362,4.578
0.095,0.808,0.295,-21.362,-22.339,1.526
0.081,0.829,0.298,-22.339,-22.766,-1.282
0.071,0.837,0.294,-23.254,-22.888,-2.563
0.052,0.83,0.281,-24.963,-21.851,-1.892
0.036,0.844,0.268,-27.466,-18.799,-0.305
0.036,0.865,0.264,-29.785,-14.465,0.244
0.056,0.853,0.265,-31.372,-10.193,0.732
0.082,0.847,0.259,-32.898,-7.935,1.038
0.11,0.854,0.271,-33.997,-7.874,1.526
0.106,0.835,0.236,-33.813,-10.01,2.075
0.062,0.868,0.231,-34.363,-11.719,1.709
0.05,0.879,0.219,-34.058,-11.108,1.526
0.057,0.881,0.204,-33.752,-9.094,1.343
0.078,0.887,0.207,-34.729,-7.69,1.831
0.104,0.881,0.211,-36.072,-7.629,2.136
0.127,0.862,0.208,-36.438,-10.315,1.892
0.133,0.874,0.204,-36.804,-15.198,0.427
0.127,0.877,0.198,-36.072,-21.423,-1.953
0.091,0.883,0.175,-34.851,-26.672,-4.7
0.052,0.912,0.158,-35.034,-29.236,-7.629
0.024,0.941,0.149,-35.767,-28.564,-9.705
0.027,0.942,0.15,-36.194,-25.391,-10.254
0.051,0.91,0.139,-36.621,-21.484,-9.216
0.082,0.919,0.145,-39.124,-17.883,-7.935
0.108,0.939,0.156,-41.992,-15.686,-5.798
0.113,0.935,0.155,-43.579,-15.503,-4.028
0.11,0.924,0.146,-44.739,-16.479,-3.784
0.1,0.933,0.142,-45.654,-17.639,-5.493
0.093,0.934,0.131,-46.814,-18.127,-7.812
0.097,0.931,0.133,-47.302,-17.883,-10.132
0.121,0.915,0.135,-47.974,-17.578,-12.024
0.131,0.923,0.137,-48.523,-18.616,-13.855
2.026,0.779,-0.776,70.251,78.796,43.823
2.337,1.065,-1.052,76.782,96.13,52.673
2.674,1.422,-1.314,81.482,126.16,71.838
3.029,1.797,-1.508,86.06,166.26,105.957
3.37,2.098,-1.648,95.459,205.872,149.719
3.59,2.256,-1.727,111.206,233.704,196.045
3.645,2.321,-1.731,131.592,244.263,240.295
3.488,2.228,-1.776,156.372,241.089,280.579
3.363,2.023,-1.839,181.274,238.708,316.895
3.202,1.752,-1.852,204.773,243.286,354.065
3.034,1.421,-1.826,225.464,252.197,388.367
2.84,1.053,-1.801,246.704,264.16,413.94
2.676,0.593,-1.715,270.508,277.222,427.429
2.563,0.199,-1.537,300.11,284.912,428.101
2.482,-0.266,-1.355,333.069,283.142,421.326
2.343,-0.728,-1.131,357.849,269.775,405.151
2.155,-1.095,-0.93,368.469,249.084,381.104
1.985,-1.303,-0.849,366.394,224.426,353.394
1.739,-1.321,-0.825,357.849,197.693,326.782
1.586,-1.19,-0.768,350.708,179.443,306.519
1.51,-1.065,-0.795,349.976,169.495,288.818
1.325,-0.965,-0.864,348.45,163.635,267.334
1.127,-0.832,-0.843,339.966,164.734,243.958
0.974,-0.673,-0.725,327.637,170.654,219.971
0.892,-0.573,-0.572,314.209,175.171,192.81
0.844,-0.432,-0.364,297.913,172.241,162.415
0.813,-0.338,-0.146,279.419,158.325,132.812
0.778,-0.285,0.012,260.498,134.033,105.347
0.686,-0.311,0.094,240.173,106.445,79.041
0.63,-0.364,0.128,214.905,83.435,57.861
0.564,-0.349,0.149,183.777,67.383,43.762
0.487,-0.305,0.192,151.672,58.96,36.865
0.424,-0.326,0.151,122.559,56.335,37.72
0.335,-0.339,0.079,94.666,60.181,40.466
0.24,-0.252,0.041,68.909,71.045,40.588
0.216,-0.122,0.037,51.575,85.876,38.879
0.242,-0.041,0.025,44.983,98.328,37.537
0.264,0.033,0.013,45.532,104.492,35.767
0.3,0.117,0.047,49.5,103.699,31.982
0.338,0.165,0.081,55.847,94.238,27.1
0.297,0.206,0.114,61.89,77.332,20.325
0.258,0.232,0.15,65.979,58.167,12.817
0.213,0.245,0.17,67.017,39.795,5.859
0.161,0.231,0.181,63.11,23.987,0.61
0.118,0.229,0.188,54.871,11.536,-2.38
0.069,0.25,0.193,44.189,2.502,-3.723
0.02,0.291,0.193,33.508,-2.869,-4.883
0.0,0.309,0.177,24.292,-4.578,-5.615
-0.007,0.354,0.176,17.029,-3.113,-7.019
-0.0,0.379,0.177,11.597,-0.122,-9.033
0.032,0.401,0.187,7.629,3.113,-11.23
0.11,0.388,0.191,4.028,4.761,-13.0
0.104,0.444,0.227,0.488,2.502,-15.564
0.232,0.439,0.228,-0.427,-3.235,-14.343
0.196,0.525,0.258,-0.916,-10.132,-12.39
0.213,0.463,0.173,-1.343,-19.287,-9.521
0.151,0.594,0.281,-5.493,-25.085,-9.827
0.215,0.511,0.211,-4.15,-34.302,-4.211
0.125,0.582,0.213,-7.263,-39.246,-5.798
0.074,0.668,0.231,-9.399,-40.466,-7.751
0.022,0.645,0.204,-7.568,-39.551,-5.554
-0.054,0.634,0.202,-7.874,-33.508,-5.554
-0.109,0.702,0.306,-11.719,-22.583,-8.301
0.148,0.674,0.267,-13.428,-13.611,-6.775
0.022,0.69,0.295,-17.456,-8.362,-6.409
0.072,0.735,0.295,-24.353,-9.827,-5.554
0.01,0.693,0.243,-27.893,-11.475,-3.357
-0.023,0.706,0.242,-34.607,-6.775,-5.615
0.018,0.768,0.258,-40.527,0.793,-9.399
0.079,0.759,0.234,-42.847,6.104,-11.292
0.125,0.789,0.235,-44.678,8.301,-13.977
0.153,0.768,0.201,-45.349,7.385,-16.052
0.16,0.791,0.181,-46.448,5.92,-20.02
0.137,0.799,0.19,-46.692,4.944,-25.879
0.46,0.93,0.329,-44.373,-0.366,-30.64
0.263,0.773,0.165,-35.95,-18.066,-26.123
0.276,0.847,0.173,-36.011,-30.457,-22.522
0.174,0.888,0.172,-33.691,-33.386,-24.231
0.187,0.885,0.172,-28.87,-29.541,-25.818
0.198,0.855,0.172,-27.466,-22.949,-25.452
0.219,0.853,0.188,-29.785,-16.235,-23.865
0.243,0.841,0.197,-34.363,-10.742,-21.606
0.267,0.827,0.192,-40.161,-8.24,-17.944
0.264,0.845,0.163,-46.082,-8.484,-14.16
0.285,0.917,0.203,-51.086,-8.118,-12.39
0.24,0.798,0.096,-52.185,-8.911,-10.193
0.25,0.965,0.159,-55.237,-7.69,-12.878
0.226,0.878,0.084,-54.016,-7.446,-12.329
0.227,1.029,0.11,-54.077,-5.737,-15.564
0.276,0.981,0.084,-51.514,-4.456,-14.282
0.258,0.995,0.062,-49.988,-3.906,-14.832
0.252,1.044,0.076,-50.049,-3.052,-18.433
0.254,1.051,0.101,-48.95,-3.54,-19.958
0.263,1.053,0.088,-47.729,-4.639,-19.409
0.334,1.071,0.113,-48.035,-6.104,-17.7
0.337,1.022,0.029,-46.326,-11.292,-13.0
0.341,1.074,0.071,-47.791,-14.282,-9.705
0.283,1.022,-0.006,-47.668,-15.381,-7.69
0.292,1.052,0.007,-45.959,-12.573,-8.301
0.278,1.096,0.002,-44.678,-8.423,-11.169
0.286,1.111,-0.0,-43.396,-3.906,-11.597
0.284,1.109,-0.023,-40.771,-0.488,-9.949
0.319,1.145,0.005,-40.283,4.578,-8.789
0.378,1.138,0.025,-38.208,6.104,-6.104
0.384,1.119,0.013,-36.987,2.441,-2.869
0.311,1.107,-0.036,-36.621,-2.93,1.587
0.255,1.164,-0.029,-36.194,-4.639,3.235
0.281,1.179,-0.007,-32.166,-3.723,2.258
0.342,1.129,-0.004,-27.161,-4.578,3.662
0.37,1.094,-0.01,-25.085,-9.888,6.348
0.354,1.076,-0.018,-24.719,-17.639,9.216
0.317,1.042,-0.03,-24.109,-24.841,10.132
0.277,1.008,-0.042,-23.071,-30.09,8.301
0.244,1.045,-0.037,-21.973,-33.081,5.188
0.221,1.047,-0.043,-19.104,-33.508,4.211
0.201,1.016,-0.061,-15.747,-32.227,4.944
0.207,1.01,-0.058,-13.977,-28.442,5.371
0.213,0.993,-0.053,-12.695,-23.621,6.042
0.221,0.956,-0.067,-11.78,-20.02,7.385
2.498,1.015,-1.376,-7.446,129.578,13.55
3.105,1.439,-1.712,18.25,206.97,34.058
3.718,1.76,-1.996,51.636,273.987,68.237
4.0,1.962,-2.346,83.801,317.932,111.145
4.0,2.158,-2.67,113.159,342.346,154.724
4.0,2.311,-2.968,138.733,363.037,200.989
4.0,2.273,-3.28,166.199,389.343,251.526
4.0,2.213,-3.499,195.312,428.955,301.636
4.0,1.982,-3.459,228.577,479.553,359.07
4.0,1.407,-3.201,271.423,516.663,414.856
4.0,0.682,-2.834,318.542,516.846,448.853
3.991,-0.022,-2.428,367.126,485.657,457.275
3.558,-0.713,-2.017,418.579,441.833,450.317
3.183,-1.349,-1.632,466.797,397.461,430.481
2.905,-1.869,-1.331,500.488,358.154,401.123
2.478,-2.214,-1.219,513.123,323.303,368.591
1.988,-2.285,-1.007,504.272,304.504,335.999
1.803,-2.215,-0.836,485.229,302.979,307.373
1.703,-2.02,-0.686,453.491,304.687,273.682
1.565,-1.799,-0.616,410.583,298.95,235.413
1.491,-1.449,-0.541,369.263,284.729,197.571
1.42,-1.09,-0.504,340.332,265.198,162.476
1.421,-0.793,-0.423,327.271,238.953,137.146
1.352,-0.641,-0.305,320.068,202.698,120.117
1.184,-0.731,-0.24,309.387,157.471,105.286
0.961,-0.545,-0.036,287.476,113.22,89.294
0.748,-0.672,-0.079,267.456,74.402,83.313
0.511,-0.669,-0.077,237.427,47.363,72.144
0.277,-0.629,-0.081,202.271,35.583,61.096
0.12,-0.703,-0.215,174.072,33.386,54.871
0.0,-0.608,-0.179,142.639,45.532,41.809
-0.047,-0.615,-0.258,118.774,58.96,29.846
-0.108,-0.491,-0.235,99.365,71.655,19.714
-0.09,-0.293,-0.186,86.304,82.947,9.888
-0.053,-0.193,-0.164,86.243,86.426,0.366
0.009,-0.102,-0.083,90.759,82.947,-12.451
0.088,-0.011,0.035,98.938,68.237,-25.818
0.202,0.029,0.025,109.375,41.809,-33.875
0.103,0.048,0.102,113.953,14.404,-38.879
0.049,0.051,0.107,112.0,-7.751,-44.861
-0.009,0.049,0.123,108.215,-19.836,-48.401
-0.029,0.055,0.108,98.755,-22.156,-51.941
-0.006,0.102,0.136,85.693,-15.747,-51.208
0.013,0.183,0.161,72.388,-7.69,-46.509
0.069,0.179,0.147,60.913,0.0,-38.635
0.065,0.181,0.145,48.584,8.545,-36.926
0.189,0.362,0.268,36.987,16.479,-41.138
0.113,0.408,0.226,31.311,16.602,-38.635
0.358,0.455,0.284,31.006,13.062,-29.236
0.322,0.44,0.234,34.546,4.333,-24.231
0.342,0.541,0.299,31.799,-3.723,-22.827
0.295,0.531,0.282,32.227,-13.0,-18.433
0.229,0.486,0.235,31.799,-19.226,-17.09
0.184,0.541,0.286,27.1,-18.616,-18.921
0.161,0.563,0.285,24.231,-16.235,-13.977
0.132,0.585,0.295,21.362,-11.536,-7.08
0.125,0.589,0.32,18.433,-7.202,-0.549
0.108,0.673,0.37,15.32,-3.174,5.249
0.091,0.659,0.365,13.245,-0.427,11.292
0.056,0.661,0.383,9.705,1.221,13.733
0.021,0.66,0.381,4.822,3.235,13.611
-0.005,0.672,0.381,-1.709,6.592,11.475
0.009,0.735,0.408,-7.996,9.888,8.118
0.066,0.769,0.418,-11.292,9.277,6.47
0.086,0.764,0.39,-12.817,3.845,6.531
0.086,0.803,0.391,-15.686,-2.686,5.188
0.062,0.813,0.357,-18.188,-8.972,2.747
0.043,0.845,0.332,-20.508,-13.123,-0.427
0.067,0.855,0.292,-21.912,-15.076,-3.601
0.057,0.87,0.277,-21.912,-15.808,-7.507
0.057,0.869,0.244,-21.606,-13.855,-11.414
0.091,0.921,0.268,-21.179,-8.362,-14.099
0.173,0.888,0.265,-19.653,-4.578,-14.465
0.181,0.856,0.263,-18.616,-4.761,-13.794
0.231,0.939,0.292,-19.104,-5.737,-12.756
0.239,0.902,0.243,-17.334,-7.324,-10.803
0.267,0.881,0.264,-14.954,-10.071,-8.728
0.228,0.871,0.236,-15.747,-13.245,-11.597
0.184,0.908,0.24,-16.541,-14.465,-13.672
0.206,0.942,0.251,-16.663,-13.611,-13.245
0.224,0.933,0.236,-14.709,-14.099,-9.888
0.202,0.939,0.216,-15.198,-14.099,-6.104
0.156,0.946,0.218,-16.907,-11.475,-3.967
0.141,0.965,0.222,-17.7,-6.714,-3.54
0.151,0.94,0.224,-16.663,-1.709,-2.93
0.171,0.934,0.243,-16.724,1.953,-3.113
0.19,0.921,0.255,-15.93,2.258,-3.662
0.187,0.944,0.272,-15.869,-0.366,-3.662
0.166,0.95,0.26,-15.381,-4.761,-2.625
0.131,0.952,0.24,-14.771,-8.24,-1.282
0.115,0.978,0.249,-13.733,-9.338,-2.502
0.125,0.962,0.244,-10.864,-10.01,-3.845
0.123,0.954,0.25,-7.69,-10.925,-6.47
0.122,0.947,0.261,-4.7,-11.658,-9.521
0.123,0.933,0.271,-1.465,-12.756,-11.841
0.113,0.928,0.277,0.671,-13.733,-13.672
0.112,0.934,0.291,1.953,-14.587,-14.893
0.134,0.947,0.298,1.587,-14.526,-13.794
0.139,0.966,0.299,0.244,-15.686,-10.803
0.123,0.971,0.29,-1.282,-17.151,-8.728
0.111,0.969,0.281,-2.441,-17.029,-9.583
0.104,0.967,0.274,-3.54,-15.32,-11.902
0.098,0.967,0.273,-4.822,-12.817,-13.977
0.088,0.938,0.251,-5.859,-9.399,-15.442
0.047,0.935,0.199,-8.118,-3.601,-18.738
0.001,0.907,0.199,-11.047,7.263,-22.644
0.163,1.121,0.386,-10.986,16.235,-24.292
0.311,0.883,0.266,-2.93,10.01,-14.038
0.34,0.929,0.339,-3.54,-0.488,-9.705
0.291,0.88,0.286,-4.761,-15.442,-5.188
0.204,0.902,0.283,-4.7,-29.968,-7.629
0.135,0.848,0.26,-4.272,-28.748,-10.864
0.149,0.833,0.264,-4.272,-25.696,-12.573
0.147,0.815,0.264,-5.005,-23.254,-13.062
0.14,0.792,0.259,-7.385,-21.423,-13.245
0.125,0.792,0.256,-10.071,-19.104,-14.526
0.125,0.803,0.253,-12.512,-16.113,-15.442
0.116,0.746,0.218,-13.916,-12.634,-14.099
0.125,0.724,0.21,-15.93,-8.301,-15.259
2.219,0.964,-0.358,25.696,105.225,4.089
2.813,1.223,-0.552,27.405,139.771,5.005
3.519,1.585,-0.779,26.611,171.143,14.648
4.0,1.979,-1.026,27.527,195.74,37.292
4.0,2.323,-1.332,30.884,213.135,75.439
4.0,2.608,-1.66,36.499,230.103,125.122
4.0,2.798,-1.837,50.537,252.258,185.974
4.0,2.402,-2.091,80.505,276.917,252.502
4.0,2.308,-1.701,112.976,303.284,297.852
4.0,1.524,-1.712,163.757,310.547,354.736
4.0,0.791,-1.405,216.98,301.208,418.457
3.677,0.04,-1.197,260.864,283.752,462.646
3.24,-0.668,-1.014,307.922,269.226,486.755
2.73,-1.263,-0.802,345.154,254.7,494.324
2.222,-1.662,-0.577,374.084,238.159,492.92
1.675,-1.964,-0.45,396.606,220.032,482.91
1.108,-2.157,-0.415,409.851,205.75,456.177
0.655,-2.187,-0.345,411.072,203.857,409.424
0.43,-2.03,-0.204,401.123,213.318,351.135
0.5,-1.84,-0.055,385.01,223.206,293.579
0.609,-1.539,0.082,358.948,221.13,247.437
0.688,-1.228,0.241,325.562,202.271,212.524
0.672,-1.054,0.354,292.786,169.495,185.181
0.558,-0.974,0.367,263.55,132.69,159.912
0.388,-0.95,0.313,234.192,103.394,134.155
0.255,-0.989,0.235,200.867,88.074,109.253
0.223,-0.995,0.169,164.368,88.013,86.304
0.265,-0.938,0.122,126.526,97.595,68.42
0.297,-0.82,0.081,90.332,107.605,57.861
0.323,-0.676,0.045,59.875,115.234,52.246
0.339,-0.539,0.013,36.621,121.155,49.805
0.313,-0.414,-0.027,20.142,124.207,47.974
0.297,-0.297,-0.036,10.132,124.878,43.823
0.28,-0.182,-0.031,5.615,122.437,36.072
0.317,-0.1,-0.024,6.287,116.333,24.231
0.343,0.0,-0.011,9.033,105.896,8.667
0.354,0.087,-0.008,14.832,91.309,-5.92
0.38,0.162,0.008,22.217,75.134,-15.503
0.373,0.198,0.003,31.189,58.411,-21.667
0.353,0.221,-0.004,39.185,43.64,-23.499
0.375,0.198,-0.015,45.837,31.433,-19.775
0.347,0.188,-0.011,48.706,20.203,-17.212
0.346,0.216,0.001,48.096,11.719,-15.686
0.296,0.292,0.02,44.739,5.066,-14.954
0.258,0.334,0.012,43.701,1.099,-11.108
0.241,0.378,0.033,42.358,2.93,-7.263
0.253,0.397,0.086,42.236,7.629,-5.554
0.304,0.444,0.21,42.236,9.216,-5.188
0.554,0.403,0.296,43.945,-0.244,-4.211
0.343,0.346,0.104,39.185,-15.137,-5.249
0.228,0.625,0.311,25.33,-14.648,-5.371
0.221,0.561,0.248,27.893,-16.663,1.892
0.189,0.561,0.278,28.259,-9.46,7.324
0.216,0.566,0.268,22.705,0.427,11.597
0.229,0.66,0.464,16.357,10.925,16.174
0.411,0.721,0.402,14.709,6.958,22.034
0.196,0.524,0.348,11.597,0.793,29.602
0.142,0.702,0.415,-3.662,3.296,27.954
0.102,0.655,0.309,-6.714,4.456,29.785
0.01,0.535,0.237,-13.245,13.123,27.283
0.025,0.74,0.321,-24.17,28.32,15.137
-0.057,0.676,0.215,-28.687,40.833,12.207
0.081,0.812,0.265,-33.508,52.368,9.094
0.241,0.842,0.281,-34.302,57.739,10.193
0.311,0.799,0.239,-31.006,51.514,13.123
0.368,0.902,0.287,-30.762,37.476,12.939
0.406,0.899,0.265,-27.649,16.418,16.907
0.36,0.92,0.241,-24.841,-5.127,18.311
0.327,0.919,0.21,-22.583,-23.193,17.212
0.291,0.941,0.189,-19.531,-36.255,14.404
0.264,0.948,0.177,-15.869,-44.128,10.681
0.251,0.931,0.165,-11.597,-48.218,6.836
0.213,0.957,0.155,-8.972,-48.157,3.113
0.183,0.962,0.141,-7.568,-43.213,1.526
0.159,0.956,0.127,-7.263,-33.447,0.671
0.145,0.986,0.136,-8.545,-19.287,-1.099
0.198,0.964,0.137,-10.437,-4.211,0.244
0.219,0.978,0.14,-12.756,7.812,2.441
0.275,1.006,0.163,-16.052,17.456,5.859
0.291,0.994,0.141,-16.785,21.24,8.301
0.292,1.036,0.154,-17.151,21.484,6.897
0.267,1.031,0.132,-15.381,18.494,5.249
0.246,1.068,0.153,-12.939,14.771,2.502
0.273,1.074,0.167,-8.423,10.01,1.221
0.314,1.041,0.171,-3.601,2.93,2.441
0.307,1.026,0.167,-0.793,-5.981,2.869
0.256,1.025,0.159,0.671,-14.526,2.197
0.208,1.017,0.147,1.648,-19.592,1.709
0.166,1.005,0.135,2.319,-20.264,0.366
0.148,0.997,0.134,2.747,-16.602,-1.099
0.158,0.999,0.144,2.625,-10.62,-1.16
0.171,1.001,0.157,2.747,-5.066,-0.793
0.197,0.993,0.167,3.052,-0.61,-0.305
0.219,0.982,0.178,3.418,1.526,-0.549
0.237,0.97,0.196,4.028,1.892,-1.282
0.248,0.959,0.198,4.517,0.0,-0.977
0.277,0.938,0.199,4.761,-3.235,0.61
0.277,0.967,0.231,4.333,-7.812,0.122
0.254,0.921,0.193,4.089,-13.489,1.831
0.229,0.933,0.2,3.235,-17.151,1.709
0.244,0.9,0.186,3.784,-19.897,2.502
0.23,0.9,0.187,2.563,-19.958,3.052
0.227,0.906,0.19,1.343,-19.104,4.15
0.228,0.902,0.182,0.488,-17.822,5.981
0.217,0.901,0.17,-0.244,-16.785,7.568
0.204,0.91,0.175,-0.549,-15.259,7.812
0.177,0.904,0.167,0.244,-13.611,7.324
0.159,0.894,0.163,0.977,-10.803,6.409
0.158,0.881,0.163,1.831,-6.653,5.188
0.161,0.88,0.174,2.075,-2.075,3.845
0.192,0.891,0.197,2.441,1.099,3.174
0.228,0.894,0.212,2.93,0.671,3.54
0.241,0.888,0.22,3.174,-2.991,3.906
0.243,0.883,0.221,2.686,-8.301,3.845
0.219,0.882,0.213,1.526,-14.343,3.601
0.187,0.88,0.205,0.305,-18.982,2.747
0.173,0.882,0.202,-0.977,-20.264,1.77
0.175,0.878,0.201,-1.953,-19.714,1.282
0.19,0.88,0.204,-3.967,-18.921,1.343
3.108,1.595,-0.416,-52.246,223.877,-51.88
3.963,2.087,-0.647,-44.373,263.184,-31.128
4.0,2.518,-0.84,-23.376,280.823,1.831
4.0,2.762,-1.018,5.371,278.015,42.236
4.0,2.72,-1.201,32.837,266.296,104.248
4.0,2.516,-1.331,55.176,257.446,182.373
4.0,2.113,-1.264,74.646,262.39,256.531
4.0,1.592,-1.036,96.558,282.104,310.181
4.0,1.008,-0.716,118.286,302.49,352.6
4.0,0.328,-0.447,138.245,317.261,393.921
4.0,0.277,-0.1,155.396,334.473,421.875
4.0,-0.977,-0.135,186.401,352.966,466.37
3.833,-1.187,0.154,195.862,364.319,473.022
3.165,-1.653,0.262,205.261,366.882,478.455
3.032,-1.4,0.618,221.497,351.562,477.6
2.595,-1.761,0.536,246.216,321.777,483.032
2.003,-1.911,0.376,271.301,277.344,479.675
1.571,-1.974,0.384,273.499,249.939,450.623
1.364,-1.765,0.373,269.043,241.943,416.687
1.195,-1.651,0.234,256.165,242.737,395.203
1.029,-1.411,0.139,235.596,250.0,365.051
0.915,-1.111,0.087,215.21,263.306,327.698
0.931,-0.866,0.07,199.158,272.827,291.626
0.914,-0.734,0.061,187.073,268.372,257.751
0.827,-0.645,0.044,177.429,252.136,222.473
0.72,-0.588,0.032,166.626,234.863,189.941
0.592,-0.599,-0.009,156.25,220.215,161.133
0.475,-0.617,-0.04,144.165,214.172,135.986
0.378,-0.605,-0.052,130.005,215.759,116.272
0.388,-0.568,-0.022,114.563,219.91,102.539
0.355,-0.514,-0.008,99.792,217.468,91.064
0.33,-0.459,-0.005,87.524,207.397,78.613
0.347,-0.408,-0.024,79.224,191.589,64.819
0.323,-0.314,-0.053,74.402,171.204,49.744
0.317,-0.202,-0.036,74.768,148.987,35.828
0.36,-0.119,-0.006,80.383,125.366,25.452
0.375,-0.066,0.005,89.233,97.473,18.066
0.302,-0.009,0.022,97.351,68.848,12.207
0.23,0.026,0.05,104.858,44.678,9.521
0.179,0.013,0.072,109.436,27.832,9.583
0.108,0.034,0.095,108.765,16.785,11.658
0.057,0.023,0.142,103.821,11.108,13.367
0.011,0.062,0.214,96.619,9.644,8.423
0.005,0.064,0.27,89.294,11.963,3.845
0.015,0.088,0.356,78.125,15.991,-2.014
0.075,0.095,0.374,64.392,19.226,-2.563
0.108,0.166,0.385,47.974,20.508,-2.502
0.149,0.221,0.386,33.997,19.653,-3.174
0.143,0.389,0.453,23.132,14.404,-5.92
0.28,0.297,0.358,18.25,4.089,-1.892
0.138,0.419,0.285,10.803,-5.859,1.77
0.022,0.548,0.292,4.211,-6.897,6.104
-0.026,0.557,0.219,7.935,-2.747,10.193
-0.026,0.572,0.199,11.23,8.057,9.399
0.012,0.694,0.305,11.963,20.386,7.08
0.085,0.643,0.227,16.785,23.865,9.155
0.004,0.615,0.27,15.076,25.696,10.01
-0.023,0.693,0.32,5.371,29.053,6.958
-0.061,0.564,0.27,0.977,31.86,7.812
-0.073,0.694,0.276,-9.827,37.17,-0.977
-0.128,0.712,0.239,-17.944,46.692,-7.507
0.014,0.796,0.295,-22.522,54.932,-9.705
0.066,0.797,0.279,-24.231,53.772,-11.475
0.192,0.894,0.328,-23.56,42.053,-9.827
0.194,0.846,0.258,-20.325,21.24,-4.333
0.175,0.933,0.243,-17.151,2.38,-1.709
0.112,0.886,0.177,-12.451,-11.902,1.038
0.055,0.931,0.157,-8.667,-19.653,-0.122
0.088,0.9,0.157,-6.287,-21.118,-0.977
0.028,0.899,0.06,-5.127,-20.569,-2.625
0.019,0.928,0.103,-8.85,-13.123,-4.211
0.026,0.931,0.075,-6.836,-4.395,-5.737
0.1,0.908,0.104,-7.019,7.141,-6.409
0.142,0.92,0.112,-6.714,13.062,-5.005
0.168,0.935,0.131,-8.728,15.32,-3.235
0.18,0.923,0.112,-9.46,13.916,-1.526
0.165,0.973,0.123,-10.498,10.498,-1.526
0.18,0.994,0.144,-9.521,5.005,-0.671
0.16,0.991,0.118,-5.554,-2.258,0.0
0.125,0.987,0.13,-1.526,-8.301,-0.549
0.089,0.957,0.122,2.38,-11.597,-1.587
0.079,0.956,0.146,4.15,-11.414,-3.662
0.08,0.931,0.138,3.723,-9.705,-3.906
0.063,0.951,0.143,1.404,-7.324,-4.395
0.033,0.975,0.135,-0.854,-3.54,-5.615
0.033,0.981,0.146,-1.404,2.686,-5.981
0.091,1.006,0.171,-1.038,9.705,-4.761
0.145,0.976,0.166,-0.793,13.245,-2.625
0.149,0.983,0.172,-2.197,13.0,-2.075
0.145,1.0,0.191,-3.479,10.986,-2.93
0.188,1.007,0.213,-2.625,8.057,-2.93
0.211,1.037,0.231,-0.793,1.953,-2.136
0.248,0.973,0.229,1.831,-6.653,0.671
0.183,0.979,0.203,3.54,-16.724,-0.244
0.148,0.945,0.207,3.296,-23.621,-0.916
0.104,0.975,0.201,4.456,-28.32,0.183
0.113,0.966,0.187,4.272,-29.724,4.883
0.058,0.894,0.127,3.601,-28.625,9.155
-0.028,0.924,0.135,0.61,-21.484,6.836
-0.06,0.943,0.146,-1.648,-9.705,2.197
-0.02,0.931,0.149,-1.404,2.441,-0.305
0.045,0.93,0.172,-0.977,12.634,-2.38
0.094,0.95,0.202,-0.183,16.479,-3.601
0.147,0.954,0.226,1.404,14.221,-3.662
0.184,0.935,0.222,3.357,6.775,-2.319
0.182,0.939,0.224,4.639,-3.052,-1.343
0.164,0.931,0.211,5.859,-13.428,-0.305
0.144,0.924,0.199,6.958,-22.461,0.488
0.125,0.925,0.198,7.751,-29.175,0.183
0.091,0.902,0.183,8.545,-34.424,-0.061
0.044,0.881,0.162,7.69,-36.438,0.061
0.003,0.893,0.162,5.188,-33.386,0.061
-0.008,0.871,0.153,2.319,-26.245,-0.183
-0.004,0.866,0.142,-1.404,-16.846,0.244
0.015,0.875,0.135,-5.493,-7.324,1.038
0.047,0.886,0.143,-8.667,0.366,0.916
0.081,0.898,0.147,-9.888,5.249,-0.122
0.111,0.914,0.157,-8.789,6.165,-1.221
0.134,0.924,0.17,-5.859,3.235,-1.892
1.672,0.645,-0.818,89.233,192.322,28.931
1.944,0.8,-1.058,105.652,226.074,38.391
2.266,1.006,-1.378,122.192,251.343,53.04
2.619,1.27,-1.77,138.977,271.484,75.5
3.047,1.915,-2.734,189.514,320.496,142.456
3.226,2.134,-3.109,224.854,358.276,194.519
3.291,2.239,-3.44,264.343,394.043,247.742
3.354,2.321,-3.644,303.406,425.598,293.701
3.306,2.366,-3.731,340.82,448.547,330.688
3.243,2.374,-3.674,376.587,462.402,357.788
3.234,2.155,-3.529,413.696,464.539,377.563
3.158,1.75,-3.343,444.397,448.73,386.597
3.032,1.287,-3.172,465.21,418.152,381.653
2.774,0.729,-3.0,478.516,381.531,368.164
2.511,0.139,-2.712,487.915,343.933,345.154
2.196,-0.448,-2.385,496.338,305.786,307.251
1.894,-0.917,-2.002,500.305,269.958,258.728
1.663,-1.266,-1.617,494.69,239.319,206.36
1.643,-1.264,-1.187,475.83,209.9,157.288
1.616,-1.052,-0.844,446.289,174.133,118.103
1.394,-0.982,-0.718,413.208,130.737,95.276
1.108,-0.844,-0.61,375.549,93.628,88.745
0.81,-0.721,-0.522,337.952,74.341,89.478
0.545,-0.643,-0.439,304.382,71.472,88.989
0.381,-0.558,-0.311,271.423,80.078,83.679
0.297,-0.589,-0.178,237.183,89.905,73.975
0.326,-0.639,-0.039,199.89,93.262,58.899
0.397,-0.644,0.056,159.912,85.693,39.124
0.457,-0.64,0.064,120.972,66.284,19.226
0.419,-0.605,-0.07,82.947,39.551,5.737
0.31,-0.51,-0.234,48.828,16.418,0.916
0.177,-0.443,-0.413,25.513,5.676,2.625
0.066,-0.414,-0.578,14.587,8.545,5.432
0.031,-0.397,-0.681,10.315,22.766,5.737
0.057,-0.345,-0.682,11.963,39.612,1.221
0.129,-0.259,-0.59,20.02,51.636,-7.69
0.207,-0.218,-0.48,33.203,52.673,-18.982
0.265,-0.188,-0.371,48.157,40.588,-30.212
0.29,-0.136,-0.261,61.829,18.555,-41.504
0.272,-0.1,-0.185,73.486,-8.484,-51.392
0.236,-0.054,-0.139,80.933,-35.217,-58.35
0.175,-0.003,-0.117,83.801,-58.167,-62.012
0.092,0.023,-0.138,82.703,-73.425,-62.195
-0.016,0.056,-0.153,78.003,-77.576,-60.974
-0.034,-0.005,-0.141,71.228,-68.542,-58.594
-0.017,0.151,-0.108,61.646,-50.476,-56.763
0.183,0.267,0.069,48.279,-17.7,-47.119
0.28,0.285,0.105,39.856,-8.423,-36.316
0.292,0.376,0.155,37.231,-9.094,-33.325
0.38,0.332,0.146,35.828,-13.733,-26.855
0.409,0.439,0.215,32.776,-22.949,-22.949
0.354,0.454,0.161,30.884,-34.546,-16.541
0.255,0.536,0.156,30.457,-40.894,-9.155
0.168,0.585,0.135,33.02,-40.161,-4.456
0.084,0.56,0.118,35.706,-30.579,0.366
0.048,0.575,0.159,32.837,-13.794,4.333
-0.017,0.516,0.187,26.55,3.906,4.272
-0.032,0.638,0.242,17.151,22.339,-0.427
-0.084,0.606,0.165,10.315,41.565,0.732
0.079,0.819,0.371,3.418,60.791,0.183
0.21,0.798,0.408,4.089,65.247,6.836
0.371,0.759,0.422,7.507,52.063,18.433
0.308,0.748,0.384,6.287,28.198,20.996
0.221,0.781,0.349,2.197,5.981,18.616
0.12,0.83,0.299,0.0,-7.446,11.597
0.136,0.854,0.279,-0.916,-11.475,8.24
0.103,0.869,0.222,-1.099,-10.071,5.188
0.138,0.932,0.255,-2.014,-4.7,2.93
0.183,0.936,0.255,0.122,0.122,3.296
0.224,0.966,0.265,2.136,3.479,3.906
0.22,0.954,0.256,2.258,5.615,4.7
0.243,0.971,0.288,2.197,7.629,4.761
0.288,0.931,0.289,2.686,8.057,5.676
0.313,0.963,0.331,1.465,5.798,3.662
0.336,0.964,0.33,1.282,0.0,4.333
0.298,0.945,0.294,1.404,-6.042,7.69
0.255,0.959,0.286,0.732,-7.629,8.911
0.23,0.965,0.281,1.16,-6.226,8.545
0.232,0.952,0.278,1.648,-3.784,8.728
0.216,0.959,0.282,2.197,-1.404,7.996
0.197,0.956,0.281,2.502,-0.122,7.263
0.2,0.966,0.286,2.991,1.038,7.996
0.184,0.951,0.272,4.578,2.014,10.132
0.178,0.945,0.281,5.188,4.395,11.963
0.185,0.936,0.294,4.761,7.629,11.719
0.204,0.927,0.307,3.601,8.972,10.62
0.236,0.929,0.331,1.953,7.263,10.01
0.25,0.923,0.333,0.366,1.77,9.949
0.228,0.924,0.32,-0.916,-5.31,9.644
0.196,0.924,0.307,-1.16,-11.475,8.179
0.176,0.913,0.301,-0.61,-15.93,6.226
0.153,0.901,0.289,0.488,-18.982,4.089
0.131,0.895,0.276,1.404,-20.02,3.052
0.112,0.891,0.273,2.136,-18.616,3.723
0.11,0.877,0.272,2.686,-15.564,4.15
0.126,0.88,0.285,2.991,-12.39,3.235
0.16,0.876,0.299,2.625,-11.536,2.441
0.185,0.861,0.305,2.502,-14.587,2.502
0.181,0.844,0.292,1.892,-19.836,2.258
0.161,0.85,0.282,0.732,-24.902,2.136
0.123,0.848,0.26,-0.122,-27.893,2.197
0.092,0.854,0.243,-1.221,-26.978,2.075
0.079,0.863,0.236,-2.014,-23.132,1.282
0.09,0.862,0.236,-1.831,-18.921,0.061
0.11,0.87,0.255,-0.732,-16.174,-1.709
0.119,0.871,0.275,1.282,-16.357,-3.479
0.122,0.863,0.286,3.723,-18.86,-5.188
0.127,0.844,0.298,5.615,-21.423,-5.493
0.128,0.825,0.307,5.859,-24.536,-5.737
0.123,0.823,0.313,4.883,-27.832,-7.324
0.099,0.829,0.309,3.418,-31.128,-9.277
0.1,0.83,0.304,1.404,-33.325,-10.254
0.098,0.828,0.287,-1.282,-34.973,-10.437
0.078,0.84,0.273,-4.456,-34.973,-10.437
0.064,0.847,0.263,-7.08,-32.166,-10.498
0.056,0.844,0.257,-8.545,-26.978,-11.292
0.083,0.831,0.266,-9.094,-20.386,-12.207
0.121,0.828,0.284,-9.216,-15.198,-12.939
0.129,0.839,0.293,-8.85,-13.306,-13.672
1.649,1.256,-1.321,36.072,174.5,-39.734
2.177,1.656,-1.832,33.691,240.845,-29.785
2.857,2.113,-2.333,31.372,313.416,-3.052
3.561,2.596,-2.799,34.79,376.221,36.743
4.0,3.046,-3.148,53.04,418.884,82.703
4.0,3.346,-3.332,88.989,435.181,131.104
4.0,3.361,-3.298,137.268,424.438,183.472
4.0,3.071,-3.125,188.354,396.729,239.746
4.0,2.534,-2.794,236.145,361.877,291.687
4.0,1.706,-2.461,277.588,324.219,335.083
3.664,1.063,-1.819,306.885,287.109,362.122
3.322,0.166,-1.837,337.097,253.601,389.099
3.071,-0.344,-1.433,361.877,241.882,412.842
2.857,-0.694,-1.045,373.901,240.173,410.889
2.542,-0.958,-0.789,383.85,240.112,398.56
2.403,-1.194,-0.575,382.996,232.788,376.953
2.088,-1.189,-0.247,369.629,218.75,343.14
1.913,-1.284,-0.336,350.464,203.125,316.589
1.751,-1.192,-0.254,310.974,187.073,286.072
1.507,-0.878,-0.344,271.851,171.631,264.404
1.304,-0.686,-0.467,246.155,167.236,245.483
1.174,-0.599,-0.553,230.103,171.57,221.68
1.124,-0.559,-0.578,215.576,179.565,192.566
1.123,-0.473,-0.548,202.026,182.312,162.354
1.165,-0.402,-0.492,191.956,173.584,135.559
1.196,-0.346,-0.412,186.462,150.33,111.023
1.147,-0.297,-0.319,182.983,117.065,89.844
1.055,-0.375,-0.323,179.932,79.407,75.928
0.894,-0.433,-0.339,170.471,47.974,66.528
0.671,-0.441,-0.358,155.09,28.381,59.326
0.432,-0.374,-0.325,139.038,24.353,54.077
0.298,-0.42,-0.313,124.939,33.569,51.27
0.201,-0.416,-0.308,109.985,49.622,46.936
0.114,-0.283,-0.254,93.506,68.298,38.391
0.121,-0.154,-0.231,83.801,84.9,32.104
0.175,-0.047,-0.207,83.74,95.825,26.184
0.252,0.043,-0.159,89.478,96.741,17.944
0.311,0.112,-0.11,98.755,85.999,8.667
0.336,0.177,-0.048,109.192,66.528,0.488
0.324,0.22,0.0,118.286,40.955,-4.456
0.241,0.243,0.02,123.657,15.808,-7.996
0.171,0.23,0.038,124.329,-2.319,-10.376
0.11,0.245,0.04,118.652,-10.315,-9.583
0.045,0.293,0.036,107.849,-9.338,-4.822
0.007,0.266,0.029,93.079,-1.892,-0.427
0.001,0.309,0.05,77.759,9.644,1.77
0.009,0.392,0.087,64.514,21.851,2.563
0.083,0.409,0.078,57.19,28.687,3.479
0.052,0.484,0.132,53.955,31.006,3.113
0.133,0.493,0.15,56.091,28.992,4.028
0.155,0.507,0.205,60.73,23.376,4.7
0.132,0.523,0.286,65.918,0.793,2.441
0.129,0.512,0.317,65.979,-9.46,2.747
0.119,0.462,0.339,61.584,-17.334,4.15
0.069,0.522,0.375,50.964,-23.743,5.127
-0.033,0.557,0.374,40.833,-27.832,9.46
-0.024,0.641,0.341,34.973,-25.757,13.733
-0.06,0.601,0.298,30.823,-16.235,16.174
-0.048,0.644,0.32,27.039,-6.287,16.541
-0.022,0.621,0.322,21.606,4.211,17.395
-0.011,0.665,0.375,17.639,10.986,16.113
0.001,0.606,0.363,13.916,13.733,14.221
0.029,0.802,0.493,9.827,13.062,11.475
0.071,0.685,0.361,12.695,8.301,16.602
-0.018,0.758,0.395,11.902,4.944,16.724
-0.008,0.735,0.376,11.78,3.052,15.32
-0.02,0.661,0.341,11.719,2.686,10.803
-0.057,0.734,0.342,6.348,4.211,-0.427
-0.047,0.775,0.383,3.296,8.362,-8.118
0.038,0.827,0.365,5.188,10.864,-10.132
0.095,0.82,0.36,5.676,12.085,-8.362
0.093,0.83,0.345,5.005,10.803,-5.493
0.108,0.852,0.372,3.906,10.376,-4.578
0.148,0.839,0.386,4.456,8.545,-4.761
0.149,0.839,0.39,5.249,3.967,-6.348
0.125,0.848,0.39,4.944,0.061,-8.728
0.092,0.857,0.392,5.005,-0.854,-11.169
0.117,0.902,0.411,4.456,1.038,-11.475
0.129,0.874,0.384,4.211,2.441,-8.85
0.17,0.926,0.445,3.54,3.235,-7.996
0.201,0.896,0.431,4.7,1.16,-6.592
0.195,0.904,0.442,6.104,-2.869,-7.446
0.186,0.907,0.447,6.287,-7.08,-8.484
0.167,0.905,0.443,5.859,-10.986,-8.362
0.155,0.898,0.435,5.31,-14.221,-7.812
0.147,0.86,0.416,4.395,-15.991,-6.958
0.123,0.859,0.405,1.953,-15.686,-7.507
0.127,0.865,0.397,-0.427,-13.428,-8.179
0.133,0.875,0.388,-2.197,-10.986,-7.751
0.143,0.886,0.388,-2.747,-9.46,-7.385
0.161,0.887,0.384,-2.441,-8.972,-6.775
0.17,0.89,0.379,-2.014,-9.949,-6.042
0.158,0.893,0.366,-1.465,-12.39,-5.615
0.139,0.889,0.355,0.183,-14.282,-6.226
0.099,0.874,0.344,1.709,-14.282,-7.385
0.089,0.87,0.35,2.563,-11.292,-8.667
0.113,0.873,0.377,3.296,-7.019,-9.583
0.169,0.856,0.404,3.357,-4.7,-9.094
0.209,0.836,0.412,1.343,-6.531,-6.47
0.209,0.847,0.409,-3.052,-11.719,-3.784
0.174,0.879,0.389,-7.385,-18.188,-2.686
0.124,0.878,0.347,-8.911,-22.949,-2.563
0.057,0.893,0.315,-9.094,-22.095,-2.869
0.055,0.9,0.318,-9.338,-14.832,-2.869
0.098,0.886,0.332,-7.874,-7.751,-2.808
0.15,0.887,0.354,-7.08,-4.333,-3.174
0.144,0.874,0.347,-7.08,-5.92,-3.479
0.109,0.873,0.333,-6.775,-8.911,-4.028
0.091,0.879,0.329,-5.798,-9.644,-5.066
0.114,0.891,0.343,-4.211,-8.972,-6.165
0.13,0.885,0.354,-2.258,-9.827,-6.287
0.142,0.865,0.351,-1.709,-12.512,-5.127
0.145,0.858,0.356,-2.991,-15.869,-3.845
0.151,0.864,0.363,-4.333,-19.592,-3.845
0.135,0.871,0.362,-5.432,-23.621,-3.601
0.125,0.868,0.344,-5.615,-27.161,-3.235
0.091,0.865,0.33,-5.249,-28.687,-3.479
0.032,0.87,0.312,-5.92,-26.917,-4.028
0.006,0.862,0.298,-6.958,-20.752,-4.089
2.096,0.85,0.014,20.996,82.397,33.569
2.526,1.124,-0.155,19.165,94.482,40.466
3.0,1.459,-0.386,19.043,110.291,51.025
3.439,1.777,-0.644,20.752,134.888,69.336
3.96,1.979,-0.925,24.292,171.936,99.976
4.0,2.189,-1.243,26.672,217.285,139.709
4.0,2.395,-1.449,30.518,267.578,187.744
4.0,2.342,-1.566,41.809,316.345,247.437
4.0,2.154,-1.61,61.34,354.126,303.223
4.0,1.842,-1.566,88.074,371.277,354.431
3.985,1.179,-1.568,121.765,367.432,401.062
3.646,0.816,-1.172,155.151,351.196,427.673
3.468,0.134,-1.02,208.984,314.514,456.36
2.974,-0.555,-0.885,263.184,272.156,475.464
2.467,-1.077,-0.709,311.523,244.08,482.727
2.048,-1.376,-0.625,357.971,231.384,473.572
1.761,-1.467,-0.402,394.104,238.037,448.364
1.57,-1.641,-0.228,427.734,246.521,415.955
1.349,-1.689,-0.096,445.007,248.413,373.657
1.269,-1.557,0.12,435.059,246.521,329.895
1.187,-1.419,0.325,403.564,232.727,291.016
1.079,-1.269,0.398,352.539,202.637,249.817
0.945,-1.003,0.37,287.17,162.231,207.214
0.793,-0.754,0.228,223.999,122.375,170.227
0.624,-0.582,0.015,171.265,93.201,147.156
0.528,-0.499,-0.158,129.883,79.59,130.798
0.557,-0.458,-0.3,102.539,78.186,114.929
0.608,-0.373,-0.423,86.304,78.552,98.999
0.609,-0.252,-0.463,82.153,77.393,83.984
0.633,-0.175,-0.453,92.407,74.219,72.388
0.713,-0.232,-0.403,111.816,65.979,62.5
0.762,-0.32,-0.318,128.723,48.401,56.274
0.69,-0.393,-0.231,136.353,20.386,53.955
0.603,-0.464,-0.195,136.536,-9.888,53.65
0.407,-0.427,-0.193,128.601,-38.574,51.941
0.171,-0.349,-0.196,119.08,-58.96,44.922
0.003,-0.262,-0.175,111.938,-66.162,34.363
-0.083,-0.168,-0.143,107.422,-62.073,22.888
-0.148,-0.085,-0.085,103.943,-51.025,12.39
-0.167,-0.034,-0.035,100.769,-35.461,4.883
-0.152,0.013,0.016,97.839,-16.663,-1.221
-0.113,0.066,0.122,94.482,2.319,-5.798
-0.008,0.074,0.22,92.041,17.822,-5.981
0.097,0.098,0.315,87.341,26.245,-2.747
0.16,0.11,0.359,77.881,24.414,5.615
0.132,0.167,0.394,65.186,16.357,11.597
0.084,0.224,0.401,54.016,6.897,10.925
0.042,0.27,0.4,44.8,0.427,7.629
0.011,0.309,0.403,37.17,-1.831,5.615
-0.003,0.359,0.413,31.982,-1.282,4.639
0.014,0.405,0.423,27.71,1.587,5.554
0.038,0.43,0.429,23.193,4.639,6.775
0.046,0.455,0.423,17.883,7.141,6.592
0.047,0.489,0.403,11.902,10.681,5.371
0.043,0.556,0.4,5.859,16.785,4.456
0.047,0.645,0.412,2.258,24.658,5.554
0.079,0.637,0.389,1.221,32.898,11.292
0.119,0.637,0.392,-2.014,40.344,17.029
0.142,0.658,0.409,-8.789,44.861,20.386
0.158,0.678,0.421,-15.625,44.922,20.142
0.199,0.704,0.426,-21.362,40.649,18.127
0.251,0.735,0.421,-25.391,31.86,16.785
0.275,0.757,0.386,-27.893,18.616,15.991
0.24,0.791,0.367,-29.785,5.005,14.404
0.161,0.781,0.307,-29.114,-6.287,11.841
0.054,0.753,0.234,-28.809,-10.193,7.812
-0.025,0.796,0.196,-30.823,-2.38,2.563
-0.012,0.835,0.195,-31.189,14.465,-0.732
0.079,0.848,0.204,-28.625,32.227,-2.075
0.19,0.871,0.244,-25.146,44.006,-2.93
0.3,0.898,0.3,-20.996,46.265,-3.418
0.387,0.882,0.333,-16.113,38.33,-3.662
0.387,0.902,0.35,-12.024,23.376,-5.554
0.407,0.92,0.383,-8.85,6.348,-7.263
0.412,0.911,0.389,-3.845,-10.986,-8.301
0.424,0.912,0.41,-0.061,-27.649,-8.789
0.381,0.892,0.396,1.892,-44.312,-7.019
0.295,0.903,0.375,0.427,-56.641,-5.31
0.185,0.908,0.34,-1.648,-60.852,-4.517
0.102,0.918,0.31,-4.7,-53.589,-4.456
0.07,0.919,0.295,-8.118,-37.537,-4.639
0.092,0.927,0.3,-11.536,-16.602,-4.639
0.136,0.938,0.311,-15.198,2.625,-5.005
0.185,0.944,0.322,-18.677,17.029,-5.92
0.224,0.958,0.326,-20.691,25.33,-7.629
0.265,0.982,0.33,-21.484,27.649,-8.362
0.309,0.992,0.327,-20.203,24.78,-7.69
0.34,0.994,0.319,-17.639,17.822,-6.653
0.342,0.995,0.311,-14.893,7.751,-6.104
0.343,0.989,0.311,-12.146,-3.113,-6.348
0.31,0.995,0.291,-9.094,-13.794,-6.287
0.276,0.979,0.229,-7.019,-21.118,-5.737
0.209,0.984,0.254,-8.423,-22.217,-6.287
0.18,0.965,0.22,-7.935,-20.386,-3.357
0.174,0.99,0.231,-6.958,-14.893,-3.296
0.189,0.989,0.236,-4.395,-9.338,-3.784
0.21,1.01,0.277,-1.343,-6.226,-5.493
0.274,1.007,0.312,2.136,-6.775,-6.714
0.299,0.97,0.307,4.822,-12.512,-6.409
0.295,0.964,0.305,5.188,-21.484,-6.47
0.281,0.959,0.304,5.249,-30.579,-6.836
0.28,0.939,0.293,6.165,-39.368,-6.409
0.246,0.925,0.275,6.775,-47.546,-5.981
0.185,0.922,0.262,7.324,-53.345,-6.226
0.13,0.918,0.255,8.118,-53.894,-6.47
0.093,0.886,0.244,10.01,-49.072,-6.592
0.056,0.875,0.253,10.742,-39.978,-8.728
0.045,0.885,0.283,10.132,-28.076,-11.536
0.092,0.881,0.324,9.155,-15.808,-11.78
0.166,0.861,0.356,7.629,-8.24,-9.46
0.214,0.853,0.376,4.456,-6.958,-6.226
0.225,0.852,0.379,0.366,-10.559,-4.028
0.229,0.864,0.374,-3.174,-16.602,-3.845
0.228,0.865,0.35,-4.7,-23.682,-4.7
0.229,0.863,0.339,-5.005,-30.701,-5.798
0.219,0.857,0.316,-3.784,-36.804,-8.423
0.153,0.905,0.305,-3.662,-39.856,-12.878
0.184,0.804,0.27,-2.502,-40.039,-12.329
0.103,0.815,0.289,-2.197,-36.499,-13.245
2.491,1.17,-0.307,-18.25,163.33,1.038
2.971,1.429,-0.424,-15.442,190.369,23.193
3.477,1.654,-0.539,-10.376,207.642,54.932
3.802,1.848,-0.692,-1.16,215.088,85.632
3.898,1.948,-0.832,12.695,220.886,118.347
3.919,1.916,-0.914,28.381,228.455,164.734
3.894,1.807,-0.992,42.419,237.427,214.722
3.531,1.627,-1.112,56.396,252.075,253.174
3.272,1.696,-1.148,68.604,284.363,289.185
3.288,1.002,-1.361,84.045,333.435,331.97
3.065,1.165,-0.953,86.548,381.104,345.398
3.202,0.977,-0.99,101.99,406.067,369.751
3.077,0.548,-0.985,124.39,427.612,393.066
3.244,0.434,-0.953,149.475,444.092,400.94
3.124,0.221,-0.853,176.025,456.055,401.001
3.152,-0.072,-0.74,208.557,457.825,399.353
3.056,-0.301,-0.615,235.474,444.214,397.949
2.802,-0.449,-0.494,261.414,410.034,388.733
2.471,-0.503,-0.489,289.673,364.502,374.939
2.029,-0.626,-0.505,310.852,320.984,357.91
1.595,-0.862,-0.59,322.937,287.598,332.275
1.273,-0.901,-0.578,321.106,271.851,296.692
1.04,-0.828,-0.498,311.462,266.907,261.536
0.881,-0.774,-0.414,304.138,262.146,228.882
0.759,-0.689,-0.286,297.241,253.54,194.458
0.647,-0.63,-0.15,290.527,238.708,158.447
0.596,-0.656,0.002,283.813,217.285,124.451
0.71,-0.771,0.161,271.606,189.514,98.938
0.794,-0.855,0.242,244.568,148.926,87.769
0.689,-0.855,0.221,203.613,97.412,82.52
0.448,-0.807,0.094,159.119,49.133,74.829
0.177,-0.761,-0.072,119.08,21.545,62.256
-0.009,-0.66,-0.211,84.778,22.156,48.096
-0.061,-0.554,-0.298,58.411,46.021,37.231
-0.013,-0.469,-0.323,42.603,79.834,28.442
0.117,-0.369,-0.278,36.987,109.497,18.005
0.271,-0.285,-0.192,40.405,122.864,8.24
0.356,-0.224,-0.121,50.232,116.15,-1.404
0.406,-0.172,-0.034,62.5,93.445,-11.23
0.352,-0.138,0.0,75.806,61.035,-20.264
0.317,-0.112,0.064,86.365,29.968,-28.503
0.274,-0.102,0.105,93.384,3.723,-33.264
0.189,-0.1,0.107,94.421,-17.273,-35.156
0.049,-0.045,0.139,87.463,-29.175,-36.743
-0.01,-0.014,0.201,76.782,-29.663,-37.537
-0.048,0.039,0.236,64.026,-22.461,-36.316
-0.013,0.122,0.261,49.377,-11.169,-31.494
0.044,0.244,0.278,34.851,-0.61,-25.635
0.023,0.299,0.246,24.841,7.996,-16.907
0.103,0.355,0.228,16.113,16.418,-13.489
0.077,0.539,0.327,12.329,22.644,-14.771
0.214,0.511,0.35,15.625,19.897,-9.705
0.442,0.509,0.292,19.592,6.287,-3.113
0.176,0.43,0.206,15.564,-9.094,0.366
0.108,0.643,0.269,1.831,-16.663,-2.136
0.019,0.654,0.223,3.54,-19.104,0.488
0.016,0.648,0.214,5.005,-13.916,1.526
-0.013,0.746,0.215,4.028,-6.897,0.122
-0.175,0.672,0.138,4.089,3.479,1.282
-0.217,0.718,0.146,-1.831,23.743,-1.953
-0.342,0.545,-0.006,-7.935,52.734,-3.113
-0.085,0.832,0.208,-20.325,88.379,-13.855
0.152,0.951,0.388,-23.865,105.591,-11.658
0.405,0.777,0.275,-17.761,88.318,4.517
0.409,0.844,0.294,-22.278,59.692,12.512
0.289,0.9,0.256,-25.452,28.442,14.221
0.155,0.91,0.177,-23.437,4.822,12.451
0.143,0.925,0.153,-20.508,-7.141,8.667
0.136,0.918,0.116,-17.517,-13.794,6.836
0.134,0.926,0.105,-16.846,-17.761,6.897
0.11,0.957,0.095,-15.503,-19.47,5.798
0.087,0.967,0.08,-12.939,-18.25,3.601
0.067,0.965,0.07,-9.705,-12.817,0.671
0.078,0.976,0.079,-7.263,-4.028,-2.502
0.093,0.982,0.078,-5.92,5.615,-4.15
0.126,0.995,0.102,-5.859,14.954,-5.676
0.169,1.016,0.124,-5.066,21.362,-6.409
0.223,0.96,0.118,-5.005,24.292,-5.615
0.247,0.994,0.14,-6.897,23.926,-5.005
0.273,1.018,0.141,-8.911,20.325,-3.296
0.278,1.023,0.137,-9.888,14.832,-2.014
0.278,1.043,0.145,-8.545,7.935,-2.136
0.286,1.043,0.155,-5.249,0.122,-2.502
0.281,1.034,0.151,-2.014,-8.362,-2.93
0.244,1.039,0.145,0.732,-16.846,-3.479
0.2,1.04,0.142,2.991,-23.193,-3.54
0.166,1.035,0.136,5.249,-25.574,-3.052
0.158,1.034,0.15,8.118,-24.841,-2.869
0.174,1.011,0.164,10.315,-22.827,-2.502
0.198,0.982,0.18,10.925,-21.667,-1.709
0.227,0.975,0.211,10.681,-22.339,-1.282
0.25,0.952,0.217,9.094,-26.184,0.244
0.238,0.94,0.202,5.798,-32.227,2.197
0.191,0.939,0.179,1.77,-38.025,3.479
0.134,0.932,0.143,-2.014,-40.283,3.418
0.074,0.942,0.1,-6.653,-30.701,2.075
0.076,0.934,0.086,-7.263,-22.034,2.808
0.087,0.94,0.085,-8.057,-13.184,4.15
0.106,0.953,0.096,-8.24,-6.653,6.287
0.121,0.955,0.106,-7.751,-3.235,8.85
0.124,0.958,0.121,-6.653,-2.93,10.315
0.119,0.959,0.139,-5.371,-5.249,10.986
0.118,0.958,0.158,-4.089,-9.644,11.536
0.114,0.96,0.172,-3.052,-15.869,12.085
0.1,0.946,0.177,-1.526,-23.682,12.085
0.06,0.947,0.169,-1.282,-31.067,12.268
0.028,0.937,0.151,-1.587,-35.339,12.268
0.01,0.939,0.16,-1.953,-35.461,10.132
0.005,0.943,0.176,-3.113,-33.752,6.409
0.007,0.926,0.165,-4.15,-32.41,4.272
0.009,0.946,0.182,-5.92,-30.945,1.526
-0.004,0.974,0.174,-7.812,-29.785,0.977
-0.01,0.921,0.122,-9.399,-27.771,5.066
-0.062,0.935,0.104,-12.329,-21.484,5.31
-0.088,0.915,0.09,-14.343,-10.254,2.686
-0.016,0.973,0.168,-15.259,0.732,-2.075
0.042,0.926,0.159,-14.099,4.272,-3.662
0.097,0.901,0.178,-15.32,1.892,-3.296
0.135,0.984,0.184,-16.418,-5.981,-3.967
2.522,0.875,-0.901,-7.568,55.908,21.851
3.002,1.272,-1.332,-7.263,97.229,31.982
3.537,1.785,-1.744,0.305,156.067,56.152
4.0,2.191,-2.123,19.104,228.333,94.421
4.0,2.478,-2.447,48.767,302.002,147.034
4.0,2.564,-2.544,80.627,357.849,214.417
4.0,2.407,-2.484,117.371,381.104,285.278
4.0,2.073,-2.196,158.875,367.92,350.647
4.0,1.577,-1.862,206.177,322.266,403.931
3.719,0.868,-1.696,253.601,266.602,441.223
3.196,0.198,-1.377,288.086,228.516,461.853
2.804,-0.33,-1.108,309.509,204.834,470.642
2.433,-0.652,-0.913,323.303,188.965,472.29
2.123,-0.848,-0.683,332.458,179.932,467.712
1.894,-0.983,-0.504,343.384,170.837,455.872
1.668,-1.061,-0.387,351.257,158.081,434.143
1.376,-1.207,-0.371,349.304,144.653,403.687
1.191,-1.338,-0.349,330.872,136.719,368.896
1.097,-1.256,-0.307,295.532,136.658,328.552
1.007,-1.058,-0.27,248.779,139.587,287.415
0.962,-0.926,-0.317,204.773,142.334,252.136
0.894,-0.761,-0.374,166.748,146.118,220.52
0.784,-0.523,-0.404,133.057,153.198,192.383
0.676,-0.419,-0.394,109.863,164.001,167.48
0.559,-0.448,-0.365,99.915,175.476,144.714
0.505,-0.432,-0.268,98.267,184.021,123.596
0.494,-0.397,-0.155,102.783,182.007,103.516
0.505,-0.393,-0.037,112.305,166.443,84.778
0.498,-0.418,0.045,121.338,138.855,69.153
0.431,-0.47,0.077,125.305,102.661,55.786
0.328,-0.487,0.064,124.146,66.528,42.114
0.197,-0.483,0.011,119.08,38.574,28.015
0.093,-0.469,-0.036,111.755,23.437,14.526
0.038,-0.396,-0.048,101.501,20.569,4.456
0.073,-0.304,-0.02,90.576,24.536,-2.136
0.113,-0.237,-0.008,80.872,26.917,-7.324
0.129,-0.193,-0.012,71.472,25.696,-13.0
0.144,-0.132,-0.011,61.89,23.01,-17.822
0.156,-0.063,-0.004,54.26,20.691,-21.79
0.167,-0.005,-0.011,50.659,18.86,-24.109
0.214,0.071,-0.016,50.415,18.311,-23.376
0.227,0.159,0.002,54.138,17.212,-20.508
0.256,0.168,0.036,60.181,14.893,-16.357
0.2,0.253,0.06,64.941,11.169,-14.709
0.23,0.227,0.095,68.298,9.155,-11.23
0.208,0.28,0.155,66.956,7.568,-10.376
0.225,0.331,0.209,64.27,5.859,-7.996
0.231,0.341,0.23,60.73,2.502,-5.249
0.248,0.357,0.276,53.589,-1.282,-2.747
0.285,0.37,0.276,43.152,-6.714,0.061
0.19,0.418,0.274,30.273,-13.0,1.099
0.111,0.536,0.263,18.921,-16.052,2.747
0.052,0.551,0.224,12.39,-13.428,5.493
0.015,0.604,0.189,7.507,-6.836,4.578
0.017,0.641,0.205,3.662,3.54,4.333
0.087,0.695,0.191,1.709,11.658,4.822
0.092,0.627,0.129,-0.122,17.334,6.226
0.075,0.735,0.18,-6.897,21.667,3.052
0.047,0.765,0.175,-8.179,21.912,2.014
0.029,0.69,0.103,-7.629,21.973,1.343
0.003,0.766,0.128,-11.536,26.001,-3.662
-0.028,0.767,0.113,-13.245,30.579,-7.629
-0.047,0.752,0.056,-14.648,35.706,-10.559
0.03,0.817,0.096,-18.433,44.128,-14.099
0.195,0.933,0.148,-18.982,47.424,-14.404
0.332,0.836,0.101,-15.503,39.246,-8.301
0.331,0.934,0.111,-17.09,6.897,-5.005
0.307,0.894,0.08,-15.076,-8.972,-2.625
0.258,0.921,0.036,-14.404,-20.325,-2.197
0.232,0.942,0.015,-14.526,-26.062,-0.671
0.199,0.959,-0.01,-13.123,-27.893,0.061
0.175,0.954,-0.031,-11.23,-25.574,0.549
0.099,0.946,-0.066,-9.338,-19.409,-0.916
0.084,0.978,-0.048,-8.484,-7.019,-3.784
0.134,0.993,-0.023,-6.714,7.446,-6.165
0.196,1.01,0.013,-4.089,18.433,-7.996
0.25,1.017,0.048,-1.16,24.231,-8.911
0.292,1.007,0.077,1.404,24.353,-8.484
0.322,1.01,0.105,3.174,19.958,-7.324
0.337,1.022,0.125,3.967,11.658,-5.615
0.335,1.019,0.129,4.395,1.404,-3.418
0.307,1.013,0.119,3.601,-8.667,-1.282
0.259,1.019,0.109,1.892,-17.029,0.305
0.216,1.017,0.088,0.366,-22.095,1.648
0.173,1.012,0.067,-0.427,-22.949,2.319
0.148,1.014,0.061,-0.366,-20.63,1.831
0.151,1.007,0.06,0.366,-16.174,0.854
0.16,1.018,0.066,1.892,-11.658,-0.549
0.178,1.022,0.08,3.296,-7.446,-1.526
0.196,1.012,0.09,5.127,-4.028,-1.587
0.213,0.997,0.107,7.141,-1.892,-1.343
0.231,0.973,0.128,9.033,-1.16,-1.282
0.248,0.938,0.146,10.559,-1.831,-1.221
0.268,0.897,0.157,10.803,-4.333,-0.916
0.288,0.885,0.165,9.644,-8.301,-0.061
0.291,0.886,0.166,7.629,-13.855,1.404
0.278,0.889,0.158,5.493,-19.897,2.686
0.252,0.892,0.138,3.357,-25.33,3.784
0.222,0.899,0.12,1.16,-28.442,4.15
0.188,0.904,0.104,-0.366,-29.114,4.089
0.163,0.901,0.094,-1.16,-26.917,3.54
0.148,0.891,0.09,-0.854,-23.376,2.014
0.145,0.896,0.099,-0.183,-19.409,0.854
0.156,0.905,0.113,1.16,-16.296,0.122
0.165,0.899,0.116,3.113,-14.954,0.427
0.154,0.903,0.118,4.761,-15.015,0.671
0.145,0.921,0.134,5.676,-14.648,0.549
0.171,0.896,0.141,7.263,-14.221,0.916
0.192,0.854,0.137,7.69,-15.198,0.61
0.181,0.854,0.149,6.287,-17.09,-1.343
0.179,0.837,0.151,3.967,-19.592,-2.686
0.156,0.819,0.136,1.343,-21.606,-3.418
0.112,0.78,0.106,-2.38,-21.79,-4.395
0.096,0.835,0.133,-7.141,-18.677,-8.423
0.145,0.941,0.194,-9.888,-16.541,-9.521
0.186,0.797,0.101,-7.751,-18.799,-3.418
0.169,0.875,0.145,-9.644,-20.813,-3.357
0.19,0.856,0.152,-9.583,-24.109,-3.052
0.143,0.819,0.105,-8.362,-28.625,-3.174
2.391,1.412,-0.424,-22.156,157.043,-22.949
3.177,1.76,-0.61,-27.1,198.181,-8.728
3.964,2.178,-0.821,-27.039,220.581,14.771
4.0,2.641,-1.02,-17.151,224.365,46.265
4.0,3.046,-1.17,4.944,214.6,92.285
4.0,3.253,-1.291,36.011,198.853,153.137
4.0,3.111,-1.325,70.251,190.796,222.9
4.0,2.328,-1.423,98.145,196.228,287.415
4.0,2.115,-0.791,98.206,205.322,339.844
4.0,1.266,-0.875,109.619,189.209,414.001
3.858,0.859,-0.692,110.596,185.12,471.008
3.385,0.376,-0.581,116.272,202.087,509.033
3.188,0.058,-0.421,139.954,230.347,533.752
3.077,-0.273,-0.178,169.861,248.474,543.091
3.038,-0.576,0.063,206.055,242.737,543.335
2.994,-0.842,0.312,237.854,212.646,538.818
2.822,-1.069,0.401,258.301,161.926,528.32
2.541,-1.246,0.448,258.85,107.3,511.414
2.227,-1.415,0.436,240.906,61.829,491.821
1.773,-1.523,0.329,205.75,31.982,474.243
1.184,-1.277,0.181,160.278,26.489,452.515
0.582,-0.997,-0.023,120.422,55.969,421.082
0.177,-0.756,-0.182,93.872,120.117,381.714
0.006,-0.551,-0.144,82.458,204.712,337.402
0.1,-0.536,0.023,87.646,283.875,289.246
0.281,-0.679,0.183,96.252,333.557,239.563
0.361,-0.927,0.237,93.689,345.52,191.956
0.264,-1.027,0.297,81.482,329.895,148.01
0.14,-1.024,0.337,66.528,302.49,112.122
0.081,-0.956,0.353,53.772,270.508,85.266
0.087,-0.865,0.336,43.091,237.427,65.002
0.102,-0.808,0.255,34.485,201.843,46.448
0.122,-0.762,0.159,24.841,167.786,27.039
0.199,-0.669,0.065,15.015,138.916,7.996
0.256,-0.499,-0.015,6.836,115.051,-6.47
0.241,-0.351,-0.108,4.639,94.788,-15.869
0.196,-0.196,-0.181,9.888,83.069,-21.667
0.143,-0.067,-0.199,20.325,82.092,-25.391
0.135,0.004,-0.198,33.813,89.417,-27.1
0.179,0.02,-0.157,44.983,99.426,-28.687
0.186,0.06,-0.087,50.293,105.713,-30.945
0.22,0.118,-0.018,52.307,105.469,-33.875
0.249,0.172,0.08,52.917,101.501,-35.034
0.395,0.185,0.13,50.11,93.628,-28.87
0.428,0.242,0.167,39.978,79.102,-18.677
0.364,0.326,0.176,28.748,61.89,-8.362
0.293,0.437,0.156,19.043,49.133,-3.662
0.25,0.502,0.159,14.343,42.542,-2.075
0.296,0.652,0.176,16.113,36.804,1.953
0.126,0.655,0.135,17.456,36.499,5.31
0.075,0.756,0.225,15.808,43.823,4.822
0.118,0.717,0.227,19.104,50.049,5.249
0.122,0.704,0.243,18.372,54.138,4.028
0.14,0.686,0.3,11.902,54.993,3.357
0.117,0.684,0.264,2.747,50.354,2.747
0.03,0.848,0.365,-8.057,46.997,2.075
-0.039,0.72,0.224,-12.451,42.236,9.094
-0.243,0.627,0.106,-19.836,43.091,10.437
-0.262,0.761,0.069,-32.898,57.8,-0.183
0.036,1.042,0.362,-37.842,77.332,-4.883
0.13,0.765,0.127,-29.053,69.214,3.174
0.207,0.904,0.152,-28.259,55.908,5.981
0.141,0.965,0.151,-27.039,40.955,0.732
0.172,0.992,0.159,-18.677,26.245,-3.174
0.181,0.948,0.133,-9.888,12.268,-6.104
0.174,0.97,0.144,-5.188,2.075,-10.681
0.188,0.966,0.149,0.305,-6.226,-11.841
0.172,0.942,0.125,4.7,-12.939,-13.123
0.156,0.918,0.114,6.165,-15.808,-13.123
0.133,0.934,0.111,6.165,-15.198,-14.16
0.153,0.948,0.126,6.165,-11.292,-14.038
0.183,0.929,0.123,6.348,-8.362,-10.925
0.187,0.932,0.122,5.127,-6.897,-7.141
0.171,0.956,0.131,3.601,-7.019,-4.822
0.151,0.969,0.135,3.296,-7.568,-3.357
0.149,0.986,0.147,4.395,-7.629,-3.113
0.161,0.99,0.163,6.47,-8.484,-3.235
0.18,0.974,0.174,8.972,-11.169,-2.869
0.172,0.976,0.181,10.742,-16.235,-2.869
0.138,0.987,0.184,12.451,-21.973,-3.296
0.108,0.986,0.189,13.916,-26.367,-3.418
0.09,0.983,0.198,15.625,-28.564,-3.357
0.07,0.982,0.204,16.968,-29.114,-2.991
0.061,0.984,0.218,17.761,-27.527,-1.587
0.058,0.988,0.24,18.066,-24.719,0.671
0.061,0.977,0.255,19.47,-22.522,1.709
0.07,0.962,0.266,19.409,-20.569,2.014
0.069,0.958,0.275,17.639,-19.653,2.502
0.066,0.958,0.281,14.587,-19.775,3.174
0.066,0.959,0.286,12.085,-19.897,3.174
0.069,0.965,0.288,10.254,-20.63,2.136
0.066,0.976,0.299,9.644,-21.973,0.366
0.054,0.972,0.295,9.644,-23.621,-0.977
0.045,0.969,0.294,9.949,-24.17,-2.441
0.033,0.956,0.286,10.315,-23.132,-3.418
0.015,0.949,0.275,9.888,-20.508,-4.761
0.004,0.944,0.267,8.85,-15.808,-5.859
0.009,0.925,0.26,8.423,-9.827,-5.737
0.04,0.908,0.274,7.446,-3.479,-4.761
0.087,0.904,0.299,6.226,0.061,-3.784
0.131,0.891,0.321,5.31,-0.427,-3.052
0.161,0.879,0.326,3.906,-4.944,-2.625
0.16,0.879,0.324,1.16,-12.024,-2.686
0.136,0.881,0.306,-2.075,-19.592,-2.808
0.109,0.897,0.29,-5.188,-25.085,-2.686
0.079,0.892,0.264,-6.958,-27.405,-2.686
0.049,0.894,0.264,-8.118,-26.123,-3.967
0.042,0.934,0.288,-8.118,-22.888,-6.348
0.066,0.894,0.285,-6.226,-20.508,-4.639
0.083,0.945,0.316,-6.714,-18.86,-3.845
0.098,0.874,0.281,-6.592,-19.226,-0.793
0.081,0.876,0.275,-8.423,-19.043,-0.916
0.081,0.904,0.279,-12.146,-17.944,-5.066
0.089,0.926,0.284,-14.709,-18.86,-7.874
0.135,0.932,0.287,-16.602,-23.132,-6.958
0.124,0.913,0.238,-18.311,-29.358,-4.272
0.083,0.932,0.21,-19.836,-33.142,-3.662
0.054,0.927,0.18,-20.508,-32.898,-4.211
0.043,0.927,0.162,-20.569,-28.931,-5.981
2.181,0.682,-0.077,2.625,100.83,38.757
2.388,0.85,-0.12,7.141,109.924,53.955
2.573,1.009,-0.204,11.719,116.333,69.58
2.661,1.149,-0.347,12.878,123.779,86.365
2.754,1.271,-0.502,10.681,134.521,106.14
2.891,1.368,-0.633,8.545,149.353,124.451
3.046,1.427,-0.725,9.216,166.382,140.259
3.162,1.468,-0.797,13.733,183.899,159.668
3.306,1.5,-0.838,22.644,200.195,185.913
3.521,1.47,-0.864,39.734,216.003,214.6
3.633,1.306,-0.895,64.453,230.225,246.155
3.644,1.217,-0.799,87.891,240.356,278.442
3.594,1.068,-0.572,111.389,245.667,312.866
3.66,0.823,-0.429,138.794,236.084,346.619
3.498,0.5,-0.375,161.072,218.994,382.874
3.299,0.097,-0.298,168.64,212.708,416.077
3.17,-0.22,-0.194,168.457,211.609,440.43
2.948,-0.477,-0.1,166.138,204.468,461.548
2.696,-0.701,0.001,170.166,186.646,475.769
2.391,-0.903,0.012,181.091,161.438,484.619
2.001,-1.081,-0.016,193.665,136.23,490.173
1.56,-1.161,-0.058,202.82,118.225,486.45
1.179,-1.137,-0.067,207.092,110.291,468.933
0.886,-1.083,-0.049,207.947,110.84,440.918
0.658,-0.959,-0.016,208.496,115.417,403.32
0.482,-0.814,0.049,210.083,119.019,359.009
0.395,-0.747,0.133,210.51,118.896,313.354
0.398,-0.737,0.249,206.97,114.624,272.034
0.445,-0.76,0.358,196.472,104.797,238.953
0.434,-0.755,0.422,178.467,90.271,211.243
0.382,-0.742,0.428,154.846,76.111,189.27
0.295,-0.747,0.352,128.113,68.481,170.471
0.23,-0.719,0.24,99.426,72.815,150.696
0.219,-0.639,0.136,72.388,89.417,126.465
0.281,-0.539,0.039,52.063,112.976,103.516
0.327,-0.376,-0.049,39.368,137.268,84.656
0.424,-0.226,-0.092,37.415,159.607,69.214
0.654,-0.144,-0.065,44.983,172.485,58.96
0.784,-0.053,-0.013,57.007,162.354,55.176
0.792,0.014,0.019,70.984,130.066,55.298
0.643,0.061,0.013,86.548,86.426,55.847
0.411,0.049,-0.01,101.44,46.997,53.589
0.163,0.043,-0.002,111.145,25.696,50.72
-0.068,0.008,0.109,111.511,37.415,45.044
-0.15,0.126,0.224,102.661,55.908,37.109
-0.063,0.17,0.294,91.064,71.533,33.447
0.037,0.196,0.388,75.134,77.148,30.518
0.059,0.295,0.44,55.847,68.665,24.658
0.072,0.427,0.462,38.574,51.392,19.836
0.05,0.509,0.456,28.137,30.334,16.296
0.02,0.539,0.416,22.766,12.085,14.404
-0.047,0.588,0.381,19.287,0.61,13.489
-0.095,0.625,0.364,16.846,-2.686,13.794
-0.137,0.623,0.323,15.503,0.977,15.381
-0.177,0.639,0.304,11.78,12.512,16.663
-0.182,0.663,0.316,6.104,28.87,15.93
-0.139,0.696,0.34,0.977,45.044,13.611
-0.041,0.723,0.363,-4.028,55.603,12.329
0.028,0.731,0.363,-8.728,57.251,13.428
0.032,0.761,0.349,-12.939,51.392,14.648
0.008,0.797,0.336,-14.954,43.701,15.564
-0.037,0.811,0.333,-14.587,37.537,16.296
-0.049,0.804,0.333,-13.733,34.241,17.395
-0.044,0.811,0.349,-14.099,32.41,18.494
-0.049,0.827,0.36,-14.893,29.236,18.616
-0.044,0.83,0.365,-14.893,24.719,17.334
-0.063,0.841,0.363,-14.709,19.592,15.564
-0.088,0.896,0.368,-14.282,14.893,13.977
-0.102,0.912,0.349,-12.146,12.207,15.015
-0.083,0.875,0.325,-9.888,12.329,15.991
-0.083,0.875,0.331,-10.254,14.343,13.0
-0.089,0.895,0.332,-11.963,16.296,8.24
-0.092,0.893,0.308,-14.099,19.714,5.005
-0.085,0.914,0.299,-16.174,23.682,3.113
-0.04,0.928,0.298,-17.7,27.832,2.808
0.015,0.928,0.299,-18.188,29.297,3.601
0.063,0.932,0.298,-18.86,25.513,4.761
0.072,0.928,0.275,-19.043,16.663,5.493
0.034,0.947,0.248,-18.616,6.348,5.127
-0.001,0.951,0.222,-16.479,-1.221,4.456
-0.02,0.971,0.215,-13.245,-5.127,4.822
-0.036,0.975,0.219,-8.911,-7.507,5.005
-0.076,0.955,0.208,-4.089,-9.827,4.15
-0.105,0.947,0.212,-0.671,-9.827,2.136
-0.113,0.943,0.22,1.16,-6.714,0.549
-0.109,0.927,0.229,2.747,-2.441,-1.282
-0.069,0.905,0.252,3.357,1.77,-3.357
-0.026,0.9,0.272,2.808,3.54,-4.639
0.003,0.922,0.29,1.648,1.465,-5.127
0.016,0.933,0.3,1.099,-3.479,-4.822
0.025,0.931,0.299,1.099,-10.071,-3.723
0.021,0.953,0.295,1.953,-17.395,-2.93
-0.022,0.941,0.264,2.93,-23.743,-2.258
-0.074,0.927,0.247,3.357,-25.391,-2.014
-0.1,0.938,0.25,3.845,-21.118,-2.991
-0.106,0.923,0.245,4.15,-13.184,-4.211
-0.096,0.924,0.245,4.272,-4.395,-4.639
-0.08,0.926,0.251,4.272,3.845,-5.737
-0.045,0.939,0.275,4.089,10.315,-6.592
0.01,0.93,0.296,4.639,13.367,-6.775
0.053,0.917,0.315,5.188,11.536,-6.592
0.083,0.913,0.326,5.066,5.188,-5.31
0.084,0.922,0.326,5.066,-3.784,-4.028
0.075,0.922,0.318,6.042,-13.0,-3.54
0.058,0.908,0.304,7.202,-21.79,-3.113
0.026,0.896,0.293,6.714,-28.442,-2.38
-0.033,0.913,0.283,5.737,-31.738,-2.319
-0.073,0.868,0.264,4.639,-29.48,-1.526
-0.078,0.872,0.258,3.174,-22.095,-0.61
-0.076,0.863,0.257,1.038,-12.695,-0.854
-0.068,0.896,0.295,-1.099,-3.723,-1.892
-0.008,0.912,0.324,-1.892,1.709,-0.977
0.021,0.873,0.322,-0.916,1.465,1.709
-0.001,0.868,0.314,-1.526,-1.587,2.747
-0.042,0.888,0.313,-2.441,-4.272,0.916
-0.054,0.881,0.309,-2.38,-5.676,-0.488
-0.019,0.906,0.335,-1.953,-6.348,-1.465
0.019,0.889,0.329,-0.488,-10.803,-0.488
0.01,0.878,0.323,-0.183,-18.188,0.732
3.111,1.535,-1.134,-88.562,515.015,-105.408
4.0,1.96,-1.121,-85.999,525.208,-63.11
4.0,2.304,-1.12,-65.43,445.923,-3.174
4.0,2.511,-1.224,-23.987,308.228,57.129
4.0,2.423,-1.409,35.889,169.312,116.15
3.993,2.065,-1.542,95.764,77.026,174.194
3.515,1.565,-1.613,133.85,54.749,230.652
2.91,1.104,-1.692,136.169,106.995,275.574
3.139,1.51,-1.399,112.549,222.412,307.8
3.547,0.945,-1.426,108.154,340.698,354.309
3.707,0.946,-1.046,104.431,406.982,370.667
3.989,0.73,-0.562,111.206,411.499,384.766
3.835,0.484,-0.252,144.897,343.933,405.945
3.506,0.149,-0.147,191.772,249.023,434.326
2.934,-0.239,-0.209,231.079,161.133,450.195
2.411,-0.625,-0.191,249.695,110.291,460.205
2.041,-0.92,-0.121,246.704,93.323,460.144
1.792,-0.833,-0.041,225.159,100.403,449.951
1.467,-0.748,-0.089,197.51,118.591,436.768
1.237,-0.63,-0.152,173.462,148.132,417.908
1.099,-0.48,-0.254,158.447,186.768,390.869
1.014,-0.358,-0.282,152.222,228.149,357.483
1.068,-0.268,-0.246,153.87,261.292,324.585
1.174,-0.223,-0.146,160.461,275.574,293.762
1.312,-0.246,-0.04,170.837,263.306,264.221
1.299,-0.24,0.061,181.641,224.06,239.502
1.109,-0.267,0.086,195.129,167.358,216.064
0.845,-0.336,0.053,209.045,113.098,192.932
0.489,-0.426,0.018,219.543,75.134,168.701
0.197,-0.52,0.002,221.985,62.195,145.02
-0.049,-0.672,0.019,190.796,97.717,117.432
0.021,-0.65,0.052,160.583,128.357,109.741
0.116,-0.554,0.079,128.784,151.733,99.121
0.167,-0.372,0.096,100.708,160.461,85.083
0.183,-0.206,0.091,82.031,156.189,71.289
0.156,-0.076,0.067,74.707,144.043,57.983
0.095,0.004,0.023,75.378,130.31,46.265
-0.039,0.068,-0.018,79.712,121.216,36.316
-0.079,0.117,-0.004,85.815,122.864,27.1
-0.113,0.124,0.015,91.919,129.944,18.25
-0.113,0.12,0.068,95.154,137.939,10.01
-0.06,0.113,0.141,94.666,145.142,3.906
0.024,0.094,0.22,89.783,147.583,-0.061
0.135,0.082,0.299,79.346,141.174,-1.953
0.212,0.117,0.36,64.209,123.901,-0.549
0.213,0.2,0.393,47.485,97.107,1.77
0.199,0.282,0.39,34.302,66.895,3.052
0.148,0.351,0.352,25.33,37.72,4.028
0.021,0.377,0.284,19.836,14.526,3.784
-0.089,0.455,0.264,16.113,5.676,0.488
-0.148,0.466,0.228,16.418,10.254,-0.61
-0.115,0.485,0.226,17.639,24.902,-0.732
-0.02,0.493,0.264,16.907,42.664,2.014
0.047,0.515,0.31,14.465,54.382,5.798
0.105,0.536,0.338,11.108,56.58,9.583
0.113,0.539,0.328,7.751,51.575,12.024
0.089,0.581,0.351,3.479,44.434,11.597
0.078,0.629,0.375,0.183,36.072,10.925
0.065,0.663,0.389,0.0,26.917,11.108
0.041,0.691,0.407,0.977,17.822,12.146
0.041,0.696,0.412,3.723,8.423,13.733
0.029,0.712,0.422,5.676,-1.038,15.198
-0.008,0.725,0.428,7.751,-11.353,15.076
-0.059,0.753,0.438,9.216,-20.691,13.794
-0.092,0.804,0.455,10.864,-27.649,12.939
-0.131,0.766,0.413,13.489,-31.616,14.526
-0.184,0.761,0.411,12.939,-29.602,14.404
-0.226,0.761,0.414,9.216,-23.071,11.23
-0.253,0.793,0.443,5.249,-13.611,6.592
-0.208,0.773,0.44,1.16,-3.906,2.319
-0.195,0.795,0.436,-4.395,4.395,-2.93
-0.151,0.81,0.427,-9.705,10.864,-6.104
-0.092,0.838,0.424,-13.977,14.404,-7.019
-0.032,0.847,0.415,-16.418,13.489,-6.897
0.022,0.88,0.41,-17.212,7.446,-6.897
0.015,0.89,0.372,-16.235,-2.136,-7.263
0.006,0.901,0.34,-13.977,-10.62,-7.996
-0.002,0.917,0.326,-10.315,-16.602,-9.216
-0.023,0.906,0.313,-5.798,-20.203,-10.742
-0.024,0.903,0.319,-1.953,-21.179,-12.512
-0.022,0.871,0.323,0.549,-20.569,-13.367
-0.054,0.904,0.318,0.122,-19.165,-14.221
-0.051,0.905,0.341,-2.197,-14.709,-11.353
-0.031,0.904,0.343,-2.502,-9.277,-9.094
-0.027,0.916,0.34,-3.967,-3.845,-10.925
-0.028,0.928,0.36,-5.005,-0.977,-11.841
-0.013,0.924,0.357,-5.432,1.77,-12.329
0.014,0.942,0.374,-5.31,3.54,-13.611
0.058,0.943,0.396,-4.089,2.502,-13.611
0.094,0.938,0.408,-1.526,-2.563,-13.428
0.11,0.943,0.418,0.732,-10.559,-13.672
0.105,0.932,0.418,2.563,-20.996,-13.916
0.1,0.921,0.413,3.967,-31.311,-13.367
0.084,0.914,0.4,4.395,-40.466,-11.292
0.026,0.907,0.375,3.967,-47.363,-8.972
-0.04,0.902,0.353,3.357,-49.316,-8.057
-0.08,0.885,0.337,2.625,-45.105,-8.118
-0.118,0.85,0.321,1.038,-35.95,-8.85
-0.104,0.897,0.352,-2.014,-23.621,-9.827
-0.061,0.863,0.336,-3.845,-12.817,-7.385
-0.031,0.884,0.366,-5.554,-5.859,-7.507
-0.006,0.885,0.374,-5.737,-3.357,-9.216
0.01,0.887,0.385,-5.31,-5.127,-10.01
0.03,0.902,0.398,-4.15,-9.399,-10.681
0.05,0.878,0.391,-1.892,-16.602,-9.338
0.027,0.875,0.382,-0.916,-25.146,-8.667
-0.0,0.889,0.38,-0.854,-31.677,-8.667
-0.013,0.88,0.372,-0.183,-36.133,-8.423
-0.017,0.862,0.363,0.0,-39.429,-7.751
-0.045,0.851,0.352,-0.366,-41.626,-7.69
-0.066,0.852,0.359,-1.343,-41.199,-8.301
-0.076,0.831,0.35,-1.587,-39.246,-8.911
-0.074,0.813,0.35,-2.502,-35.828,-9.705
-0.085,0.805,0.341,-4.578,-31.433,-10.315
-0.106,0.804,0.327,-7.324,-25.696,-10.986
-0.108,0.803,0.317,-9.827,-18.188,-11.597
-0.078,0.805,0.329,-11.108,-10.376,-12.573
-0.027,0.802,0.349,-11.841,-5.859,-12.695
0.024,0.79,0.365,-12.024,-5.981,-11.78
2.205,1.272,-0.046,-29.053,192.139,-22.461
3.004,1.564,-0.257,-44.25,248.108,-26.489
3.813,1.936,-0.55,-56.58,288.757,-15.503
4.0,2.412,-0.889,-67.078,306.885,14.099
4.0,2.93,-1.276,-65.186,313.171,49.011
4.0,3.251,-1.583,-40.039,324.036,85.876
4.0,3.356,-1.647,1.77,346.497,143.555
4.0,2.7,-1.698,52.307,370.178,223.022
4.0,2.359,-1.155,90.576,384.399,290.649
4.0,1.403,-1.06,132.69,376.038,361.023
4.0,0.751,-0.695,167.847,360.718,423.096
3.759,-0.024,-0.36,195.801,347.168,474.792
3.325,-0.538,-0.056,231.079,328.491,507.507
2.81,-0.969,0.131,262.207,305.725,522.4
2.302,-1.268,0.236,283.63,278.748,521.423
1.775,-1.387,0.249,293.457,252.93,507.385
1.303,-1.334,0.258,295.959,235.596,475.342
1.124,-1.292,0.319,298.523,228.088,424.683
1.073,-1.235,0.34,298.584,224.06,374.756
1.09,-1.162,0.367,290.527,216.919,336.121
1.069,-1.071,0.351,275.024,204.102,304.321
1.016,-0.936,0.334,254.211,189.819,272.766
0.842,-0.809,0.286,229.065,174.866,245.3
0.65,-0.703,0.234,204.529,163.33,217.529
0.553,-0.733,0.14,183.716,159.668,183.777
0.535,-0.716,0.056,162.537,160.095,147.888
0.743,-0.759,0.041,140.747,158.875,118.042
0.909,-0.785,-0.057,117.676,147.034,104.797
0.803,-0.588,-0.158,92.468,124.207,101.074
0.634,-0.435,-0.282,81.299,107.178,94.971
0.512,-0.391,-0.38,83.557,104.98,83.801
0.418,-0.314,-0.374,90.027,115.479,73.059
0.344,-0.27,-0.329,99.792,127.991,64.697
0.3,-0.275,-0.256,111.084,136.414,54.626
0.3,-0.293,-0.137,117.737,137.329,43.152
0.238,-0.252,-0.03,115.723,128.174,34.241
0.146,-0.206,0.049,106.384,113.037,29.663
0.075,-0.163,0.097,93.079,98.389,26.794
-0.017,-0.037,0.13,77.576,87.219,21.179
0.001,0.0,0.21,62.073,80.505,15.808
0.022,0.061,0.202,48.462,73.486,10.681
0.072,0.156,0.234,35.4,66.833,6.897
0.107,0.223,0.239,25.635,56.824,4.639
0.104,0.296,0.214,19.165,45.959,6.226
0.073,0.376,0.203,16.235,38.208,8.606
0.07,0.409,0.223,17.639,35.217,10.376
0.117,0.397,0.28,21.423,31.738,9.949
0.252,0.377,0.263,23.01,22.278,5.31
0.046,0.539,0.354,20.142,10.01,0.183
0.07,0.509,0.31,23.315,-0.305,3.906
-0.043,0.617,0.375,27.588,-3.906,5.188
0.039,0.605,0.369,32.837,-7.812,5.981
0.045,0.649,0.394,34.729,-8.728,8.972
-0.059,0.527,0.331,33.569,-10.498,10.071
-0.115,0.6,0.339,24.475,-5.615,5.432
-0.198,0.674,0.412,16.174,6.836,5.432
-0.072,0.458,0.326,9.094,20.508,9.949
-0.154,0.7,0.397,-7.629,33.569,2.441
-0.142,0.688,0.343,-19.836,44.067,6.104
-0.139,0.591,0.216,-23.865,51.025,10.742
-0.197,0.8,0.295,-32.227,65.857,-1.526
0.058,0.843,0.368,-27.466,71.533,-2.686
0.116,0.861,0.353,-19.104,61.951,-3.723
0.174,0.85,0.356,-13.062,42.786,-1.099
0.136,0.875,0.354,-8.24,20.569,-0.305
0.124,0.882,0.366,-0.977,0.977,-1.77
0.117,0.828,0.338,5.31,-15.32,-4.15
0.077,0.815,0.324,8.118,-28.564,-8.606
0.043,0.816,0.321,7.629,-36.316,-11.78
0.044,0.802,0.308,4.761,-38.757,-11.536
0.025,0.797,0.29,0.427,-37.292,-9.399
0.022,0.802,0.271,-4.883,-31.86,-7.324
0.003,0.833,0.259,-9.827,-23.56,-5.798
-0.01,0.845,0.235,-12.817,-13.184,-5.676
-0.005,0.856,0.225,-14.832,-0.549,-5.737
0.045,0.872,0.236,-16.113,12.512,-5.676
0.103,0.877,0.241,-15.869,21.545,-5.859
0.151,0.905,0.269,-15.198,25.513,-7.019
0.182,0.91,0.287,-13.672,23.376,-8.911
0.216,0.935,0.312,-10.681,15.747,-10.315
0.221,0.943,0.316,-6.348,3.723,-10.315
0.177,0.94,0.307,-2.197,-9.338,-9.888
0.11,0.942,0.304,2.014,-19.897,-10.315
0.085,0.945,0.311,4.822,-24.536,-9.46
0.052,0.935,0.309,7.385,-25.391,-8.301
0.026,0.918,0.312,8.301,-23.132,-7.202
0.034,0.904,0.324,7.08,-18.188,-5.676
0.039,0.909,0.337,4.211,-12.939,-4.761
0.046,0.909,0.337,0.916,-8.606,-4.15
0.058,0.929,0.345,-2.075,-5.188,-4.517
0.053,0.93,0.336,-3.662,-2.808,-5.249
0.067,0.943,0.333,-4.761,-0.793,-5.493
0.073,0.958,0.335,-5.31,0.793,-6.042
0.096,0.965,0.339,-5.371,1.465,-6.775
0.116,0.954,0.338,-4.272,0.122,-7.568
0.126,0.96,0.349,-3.479,-2.014,-8.728
0.133,0.957,0.35,-2.136,-5.798,-9.521
0.143,0.944,0.352,-0.793,-9.949,-8.85
0.162,0.932,0.355,0.183,-14.771,-7.69
0.158,0.899,0.342,0.671,-20.447,-6.531
0.141,0.884,0.323,-0.427,-25.452,-5.859
0.095,0.887,0.315,-3.113,-28.259,-5.432
0.1,0.902,0.321,-5.31,-28.32,-4.272
0.076,0.851,0.28,-6.409,-27.71,-2.625
0.035,0.853,0.26,-9.338,-24.414,-0.854
-0.003,0.841,0.228,-12.451,-16.968,1.16
-0.016,0.831,0.216,-14.16,-5.554,1.404
0.007,0.835,0.233,-15.137,7.141,0.366
0.076,0.825,0.266,-14.526,16.846,-0.244
0.136,0.813,0.289,-13.428,19.775,-0.549
0.163,0.825,0.314,-12.512,15.991,-0.427
0.17,0.838,0.33,-11.597,7.629,0.0
0.127,0.851,0.315,-10.742,-12.817,-0.549
0.098,0.843,0.298,-11.475,-21.484,-1.648
0.075,0.835,0.283,-12.878,-26.428,-2.747
0.057,0.825,0.271,-15.015,-28.198,-3.296
0.05,0.816,0.257,-17.151,-27.71,-3.174
0.043,0.844,0.242,-20.02,-24.902,-2.441
0.026,0.883,0.229,-22.827,-20.325,-1.465
2.489,1.326,-0.781,-96.68,331.665,-82.031
3.369,1.697,-1.039,-96.375,372.437,-74.341
4.0,2.115,-1.236,-80.505,384.766,-55.725
4.0,2.465,-1.412,-49.805,367.676,-18.921
4.0,2.626,-1.571,-9.277,330.811,40.039
4.0,2.474,-1.624,36.377,294.312,116.638
4.0,2.04,-1.632,82.031,266.968,193.115
3.949,1.645,-1.674,115.662,254.395,249.512
3.696,1.194,-1.693,136.963,271.912,291.382
3.486,0.835,-1.64,153.32,314.697,314.758
3.299,0.621,-1.471,159.851,366.821,315.857
3.52,0.416,-1.09,175.354,411.438,326.782
3.555,0.27,-1.031,200.867,423.34,347.656
3.467,-0.007,-0.825,235.962,415.71,374.39
3.358,-0.426,-0.682,274.414,380.92,391.052
3.101,-0.498,-0.488,308.655,328.552,392.7
2.596,-0.576,-0.396,339.722,269.104,394.592
2.127,-0.709,-0.433,362.976,215.881,394.409
1.729,-0.854,-0.48,369.446,180.908,391.174
1.288,-0.868,-0.526,359.253,166.565,375.305
0.925,-0.797,-0.552,339.172,173.401,346.313
0.716,-0.7,-0.541,319.824,198.364,312.073
0.729,-0.6,-0.454,303.711,230.713,277.893
0.856,-0.555,-0.327,289.734,253.418,247.681
0.998,-0.557,-0.204,276.123,255.31,221.191
1.019,-0.514,-0.074,258.728,235.474,197.998
0.918,-0.5,-0.013,242.554,199.585,177.063
0.739,-0.505,-0.008,228.333,161.682,158.875
0.516,-0.529,-0.027,214.6,131.775,140.93
0.31,-0.573,-0.052,201.477,114.38,122.07
0.143,-0.604,-0.067,186.584,109.314,104.187
0.01,-0.609,-0.075,168.64,114.075,87.891
-0.018,-0.586,-0.045,150.452,125.0,71.228
-0.021,-0.548,0.001,134.705,134.277,53.284
0.006,-0.514,0.041,121.826,136.536,34.729
0.062,-0.436,0.115,112.183,130.737,17.7
0.128,-0.383,0.177,106.323,116.15,3.906
0.157,-0.36,0.204,101.318,92.041,-4.395
0.143,-0.31,0.213,96.252,62.439,-9.705
0.068,-0.264,0.175,92.468,33.63,-13.55
-0.053,-0.175,0.181,89.966,13.306,-17.578
-0.094,-0.177,0.16,90.027,2.625,-20.264
-0.151,-0.175,0.167,87.708,1.038,-22.949
-0.162,-0.167,0.213,80.566,6.348,-26.428
-0.101,-0.145,0.227,70.557,13.367,-29.48
-0.09,-0.084,0.276,56.885,21.179,-33.02
-0.009,0.018,0.298,42.847,27.222,-33.875
0.095,0.087,0.321,34.851,26.489,-29.846
0.286,0.2,0.335,27.649,7.874,-19.592
0.243,0.251,0.327,24.353,-7.568,-17.456
0.207,0.348,0.35,20.203,-22.705,-18.005
0.19,0.369,0.314,20.752,-35.828,-16.296
0.087,0.414,0.292,20.02,-43.335,-15.991
-0.022,0.536,0.302,19.165,-42.236,-16.479
-0.095,0.534,0.241,22.949,-31.982,-12.024
-0.178,0.571,0.219,24.963,-11.902,-7.629
-0.27,0.512,0.129,23.743,16.907,-5.066
-0.277,0.391,0.075,16.846,58.228,-12.207
-0.006,1.001,0.652,5.859,100.83,-30.151
0.26,0.656,0.45,10.559,94.177,-16.724
0.473,0.688,0.526,5.432,69.763,0.366
0.396,0.814,0.545,-4.395,36.926,6.47
0.293,0.809,0.477,-5.798,0.671,12.756
0.155,0.841,0.435,-4.639,-24.902,12.024
0.073,0.842,0.391,-1.282,-39.551,7.446
0.023,0.877,0.385,2.136,-45.837,2.686
-0.076,0.894,0.363,4.883,-45.471,-0.732
-0.167,0.86,0.304,6.226,-34.79,-0.916
-0.219,0.856,0.29,4.7,-11.597,-0.732
-0.162,0.838,0.34,0.671,19.043,-2.686
-0.013,0.884,0.427,-1.526,43.884,-4.456
0.21,0.866,0.479,-4.517,54.382,-3.052
0.246,0.864,0.482,-7.935,48.645,-2.197
0.205,0.877,0.463,-11.719,34.912,-1.404
0.148,0.94,0.447,-13.367,23.621,-2.38
0.162,0.922,0.443,-10.62,15.808,-2.38
0.237,0.917,0.451,-6.287,6.47,-2.319
0.216,0.901,0.429,-4.944,-4.028,-1.526
0.155,0.906,0.414,-4.211,-14.282,-0.916
0.083,0.89,0.374,-3.479,-20.02,-1.648
0.042,0.877,0.363,-2.808,-18.494,-3.54
0.042,0.896,0.368,-2.502,-12.634,-5.676
0.053,0.914,0.372,-2.869,-6.653,-6.226
0.054,0.845,0.331,-4.089,-1.404,-4.639
0.017,0.922,0.362,-6.653,4.578,-6.042
0.057,0.882,0.34,-7.568,9.949,-4.333
0.05,0.896,0.325,-7.202,14.099,-4.822
0.056,0.905,0.354,-6.836,17.7,-7.324
0.108,0.941,0.388,-4.578,18.311,-8.789
0.174,0.962,0.432,-1.77,13.855,-10.315
0.223,0.924,0.43,1.709,3.235,-8.667
0.184,0.922,0.431,2.93,-9.338,-7.935
0.142,0.925,0.436,2.747,-19.592,-8.545
0.115,0.899,0.419,3.845,-26.306,-9.216
0.096,0.901,0.421,3.906,-28.137,-10.01
0.096,0.892,0.425,3.174,-28.015,-9.094
0.105,0.886,0.433,2.441,-27.527,-7.324
0.106,0.872,0.43,0.977,-27.71,-5.127
0.088,0.865,0.424,-1.343,-27.893,-4.089
0.064,0.865,0.411,-3.845,-27.1,-3.906
0.053,0.871,0.398,-5.859,-24.292,-3.479
0.046,0.883,0.391,-6.958,-20.691,-3.113
0.032,0.883,0.379,-6.714,-17.029,-3.052
0.032,0.889,0.381,-5.737,-12.573,-3.723
0.038,0.889,0.388,-4.822,-8.728,-4.272
0.054,0.88,0.394,-4.15,-5.92,-4.517
0.067,0.869,0.398,-4.15,-4.211,-4.211
0.061,0.872,0.404,-4.822,-3.54,-4.333
0.059,0.874,0.409,-5.188,-3.601,-4.578
0.063,0.867,0.416,-5.371,-3.784,-4.517
0.071,0.86,0.42,-5.493,-4.883,-5.005
0.07,0.853,0.418,-5.92,-6.958,-5.371
0.074,0.854,0.414,-7.385,-9.277,-5.615
0.066,0.855,0.402,-8.85,-11.963,-6.042
0.058,0.859,0.392,-10.315,-14.099,-6.714
0.055,0.858,0.376,-11.414,-15.137,-7.446
0.049,0.86,0.36,-11.78,-14.465,-8.362
0.057,0.864,0.351,-11.658,-12.573,-8.24
0.069,0.864,0.347,-11.475,-9.766,-7.812
1.509,0.468,0.921,-11.658,29.785,-46.936
1.748,0.642,0.945,-19.226,44.739,-46.509
2.048,0.863,0.962,-28.259,60.486,-44.373
2.42,1.115,0.945,-37.476,76.233,-40.833
2.807,1.398,0.901,-47.974,92.468,-34.729
3.255,1.783,0.867,-59.448,114.441,-29.602
3.689,2.099,0.809,-67.932,154.236,-32.837
4.0,2.203,0.685,-75.5,216.492,-30.029
4.0,2.365,0.559,-90.576,295.044,-9.155
4.0,2.504,0.307,-107.605,375.732,26.123
4.0,2.602,0.046,-120.361,442.627,78.796
4.0,2.633,-0.164,-117.432,481.628,139.893
4.0,2.383,-0.293,-91.553,489.441,210.388
4.0,1.951,-0.354,-46.204,484.497,270.63
4.0,1.569,0.106,9.888,485.657,319.275
4.0,0.538,-0.043,87.402,472.046,385.193
4.0,-0.142,0.164,144.653,470.032,448.669
3.949,-0.737,0.205,195.251,466.309,496.155
3.48,-1.368,0.291,241.089,451.965,523.987
2.999,-1.849,0.404,275.635,426.636,539.795
2.517,-2.205,0.406,297.363,394.226,548.035
1.963,-2.355,0.38,302.551,365.051,547.791
1.344,-2.302,0.384,293.945,348.206,527.527
0.851,-2.136,0.32,282.288,346.558,486.633
0.614,-1.887,0.286,270.447,357.605,431.274
0.654,-1.605,0.301,262.207,367.432,370.728
0.881,-1.339,0.388,255.859,356.262,316.833
0.993,-1.104,0.479,250.244,309.631,274.841
0.856,-0.967,0.48,244.141,237.305,240.234
0.557,-0.936,0.377,235.596,161.926,207.886
0.22,-0.963,0.254,221.252,107.544,171.997
0.13,-1.052,0.16,200.5,84.167,136.23
0.114,-1.054,0.078,166.504,82.214,115.051
0.087,-0.94,-0.002,124.573,90.698,104.431
0.14,-0.818,-0.115,87.158,106.323,94.91
0.267,-0.627,-0.227,59.753,122.009,80.322
0.482,-0.391,-0.269,48.523,129.395,61.646
0.593,-0.206,-0.287,56.763,119.934,45.044
0.592,-0.092,-0.288,78.857,97.168,32.715
0.468,-0.055,-0.278,106.628,69.885,23.621
0.258,-0.08,-0.247,134.644,47.729,12.817
0.029,-0.085,-0.177,156.25,38.452,0.732
-0.103,-0.119,-0.054,167.969,41.748,-8.057
-0.114,-0.183,0.061,170.349,50.354,-14.526
-0.051,-0.192,0.221,159.241,61.096,-12.573
-0.029,-0.186,0.324,135.62,63.293,-4.7
-0.011,-0.148,0.372,107.239,58.777,1.648
-0.067,-0.01,0.426,76.965,52.673,2.258
-0.068,0.094,0.417,52.917,45.959,1.343
-0.012,0.197,0.426,35.767,39.612,-0.183
0.098,0.146,0.441,22.4,31.311,-2.197
-0.027,0.432,0.366,8.545,18.127,-9.583
-0.104,0.442,0.374,6.897,11.536,-4.15
-0.135,0.508,0.318,14.282,15.564,1.221
-0.104,0.501,0.323,23.621,24.414,-0.732
-0.049,0.526,0.461,30.334,33.752,-6.165
0.19,0.648,0.468,36.987,29.358,-10.254
0.036,0.514,0.501,40.161,18.86,-6.287
0.029,0.637,0.513,35.645,11.719,-5.127
-0.043,0.508,0.464,32.288,5.92,0.366
-0.145,0.345,0.392,18.25,10.559,0.122
-0.32,0.573,0.339,-0.61,25.513,-10.925
-0.218,0.591,0.4,-13.184,56.091,-12.756
-0.033,0.802,0.434,-17.395,75.989,-14.954
0.093,0.767,0.471,-16.357,76.172,-9.949
0.179,0.756,0.517,-16.052,63.049,-4.822
0.19,0.948,0.563,-13.245,40.283,-5.92
0.208,0.878,0.492,-7.812,15.808,-0.977
0.125,0.905,0.494,-3.479,-7.568,-4.089
0.097,0.886,0.474,1.587,-25.757,-5.005
0.036,0.858,0.444,3.906,-37.048,-7.751
0.014,0.863,0.439,3.723,-41.809,-8.789
-0.018,0.834,0.398,1.77,-40.894,-7.996
-0.052,0.849,0.371,-1.892,-33.569,-7.202
-0.102,0.856,0.327,-6.47,-19.043,-5.798
-0.12,0.906,0.332,-10.62,0.671,-5.981
-0.05,0.898,0.328,-12.024,22.461,-6.348
0.044,0.92,0.353,-12.817,40.771,-7.507
0.139,0.962,0.394,-13.245,49.255,-8.301
0.206,0.943,0.402,-11.047,46.631,-7.141
0.243,0.955,0.423,-7.935,36.377,-7.69
0.257,0.965,0.446,-2.93,21.24,-9.766
0.236,0.915,0.421,3.174,3.723,-10.498
0.158,0.913,0.4,7.812,-11.108,-12.329
0.086,0.905,0.391,12.329,-20.325,-14.954
0.07,0.887,0.387,16.724,-23.071,-16.602
0.08,0.848,0.386,19.226,-21.912,-16.541
0.064,0.818,0.39,18.066,-19.043,-15.198
0.058,0.836,0.399,13.916,-14.587,-13.55
0.055,0.835,0.406,8.362,-9.399,-9.949
0.058,0.837,0.397,3.174,-4.028,-6.775
0.114,0.936,0.463,-0.732,0.122,-7.935
0.143,0.842,0.407,-0.305,-2.502,-5.371
0.115,0.927,0.452,-1.526,-6.226,-7.507
0.08,0.877,0.438,0.122,-10.01,-9.521
0.13,0.909,0.476,2.991,-13.916,-13.428
0.148,0.861,0.457,6.165,-21.118,-14.954
0.138,0.889,0.472,6.531,-29.541,-16.296
0.087,0.877,0.444,8.118,-38.025,-16.235
0.051,0.863,0.418,9.521,-41.443,-15.442
0.024,0.839,0.402,9.216,-38.696,-15.625
0.029,0.817,0.399,7.935,-31.25,-15.869
0.026,0.813,0.406,4.395,-21.973,-15.564
0.04,0.804,0.411,-0.549,-12.329,-14.893
0.059,0.842,0.421,-5.859,-3.418,-13.123
0.085,0.853,0.413,-10.62,3.784,-7.996
0.099,0.855,0.397,-13.733,9.766,-3.906
0.11,0.878,0.397,-14.221,13.794,-3.418
0.13,0.904,0.413,-13.489,15.259,-5.127
0.173,0.905,0.429,-11.292,13.0,-6.165
0.198,0.895,0.431,-8.423,6.409,-6.348
0.192,0.897,0.433,-6.042,-2.563,-6.287
0.182,0.896,0.433,-3.357,-11.23,-6.47
0.186,0.897,0.438,-0.244,-20.02,-7.69
0.181,0.887,0.436,2.747,-29.663,-9.399
0.119,0.86,0.411,5.31,-39.001,-12.085
0.043,0.823,0.38,6.165,-43.213,-15.991
0.005,0.797,0.369,4.761,-38.879,-19.531
0.006,0.799,0.371,0.732,-28.564,-19.958
2.019,1.072,-0.104,-7.935,122.803,49.255
2.462,1.306,-0.346,-20.386,179.932,44.8
4.0,1.994,-1.122,-53.101,342.468,67.322
4.0,2.499,-1.667,-62.561,412.292,100.464
4.0,2.974,-2.105,-54.749,457.947,144.775
4.0,3.329,-2.23,-19.592,478.333,205.139
4.0,2.741,-2.441,52.246,462.646,289.612
4.0,2.348,-1.91,134.033,424.377,356.812
4.0,1.286,-1.571,215.515,360.962,414.673
3.937,0.011,-1.406,285.339,291.077,463.257
3.068,-0.692,-0.906,311.951,251.526,486.084
2.578,-1.278,-0.695,335.754,236.023,506.47
1.994,-1.556,-0.413,349.792,231.934,500.977
1.435,-1.734,-0.309,358.765,234.985,484.436
1.032,-1.72,-0.155,364.624,242.676,451.782
0.777,-1.601,-0.044,370.422,251.16,403.687
0.707,-1.541,0.08,374.878,256.287,345.703
0.734,-1.453,0.2,371.155,248.413,290.1
0.8,-1.333,0.32,357.544,223.877,245.056
0.87,-1.1,0.438,337.646,184.814,216.492
0.741,-0.845,0.526,311.951,132.996,198.547
0.545,-0.75,0.535,283.325,80.444,181.396
0.275,-0.722,0.464,248.169,39.246,159.729
0.039,-0.695,0.366,206.116,19.043,131.409
-0.032,-0.712,0.265,162.231,21.667,102.539
-0.026,-0.644,0.163,119.629,40.649,81.177
-0.004,-0.511,0.068,80.75,69.031,70.435
0.063,-0.453,-0.033,50.72,100.22,65.796
0.18,-0.387,-0.113,30.212,130.371,61.951
0.296,-0.258,-0.137,18.005,152.527,54.443
0.399,-0.13,-0.141,15.015,161.072,44.067
0.469,-0.039,-0.141,20.508,154.236,33.081
0.458,0.054,-0.115,31.86,133.667,20.142
0.422,0.12,-0.097,48.34,106.506,7.935
0.392,0.165,-0.08,65.369,78.674,0.427
0.35,0.184,-0.055,78.735,52.795,-2.625
0.24,0.202,-0.047,87.097,30.09,-4.578
0.138,0.244,-0.03,90.698,15.808,-5.981
0.09,0.206,-0.021,92.346,10.498,-7.08
0.011,0.271,0.028,89.6,12.573,-10.01
0.012,0.301,0.091,85.632,17.761,-9.338
0.021,0.382,0.138,81.604,21.24,-10.376
0.08,0.349,0.185,77.942,23.437,-8.118
0.109,0.375,0.224,71.289,22.034,-7.874
0.121,0.383,0.271,64.087,17.7,-8.728
0.143,0.389,0.3,56.152,12.329,-10.132
0.158,0.434,0.32,47.241,6.714,-11.292
0.156,0.468,0.339,38.513,1.831,-10.986
0.183,0.465,0.35,31.189,-1.831,-8.484
0.234,0.513,0.364,20.691,-5.249,-4.578
0.216,0.577,0.323,11.047,-9.338,-0.916
0.144,0.618,0.313,5.066,-11.23,3.174
0.111,0.665,0.291,3.601,-11.047,3.967
0.074,0.69,0.278,5.981,-8.118,1.77
0.066,0.691,0.266,8.606,-2.563,-0.122
0.058,0.745,0.29,11.169,2.686,-0.244
0.069,0.704,0.275,14.648,7.08,2.075
0.022,0.663,0.275,15.991,12.756,1.831
0.011,0.934,0.368,16.296,17.273,2.563
0.284,0.687,0.343,21.851,17.09,15.442
0.078,0.648,0.318,16.968,14.404,10.62
0.136,0.67,0.39,6.897,10.986,6.714
-0.025,0.794,0.383,1.892,6.897,1.099
-0.012,0.701,0.305,-0.732,7.812,0.366
-0.155,0.668,0.114,-4.15,17.456,-7.935
0.047,1.075,0.501,-11.475,42.114,-24.414
0.156,0.807,0.365,-3.784,41.077,-23.499
0.366,0.853,0.475,-0.854,30.09,-16.479
0.331,0.835,0.443,-2.136,11.658,-14.954
0.34,0.857,0.463,-1.099,-9.827,-11.841
0.258,0.879,0.436,-0.366,-27.771,-12.207
0.224,0.878,0.426,0.488,-39.673,-12.878
0.192,0.862,0.392,0.549,-45.776,-11.658
0.168,0.863,0.38,-1.221,-46.265,-10.681
0.128,0.884,0.356,-3.357,-41.687,-10.315
0.147,0.91,0.374,-5.066,-33.081,-8.85
0.144,0.87,0.323,-4.883,-24.536,-7.874
0.117,0.932,0.344,-6.897,-14.099,-10.071
0.143,0.938,0.349,-7.69,-4.578,-9.277
0.171,0.934,0.346,-7.019,2.869,-7.324
0.188,0.945,0.351,-6.958,8.057,-6.165
0.195,0.952,0.366,-6.042,10.254,-6.042
0.222,0.952,0.386,-4.211,9.216,-5.676
0.212,0.925,0.363,-2.869,5.188,-5.554
0.204,0.952,0.393,-2.197,0.427,-6.348
0.21,0.961,0.401,-0.793,-5.493,-7.08
0.206,0.927,0.397,1.16,-12.207,-6.958
0.178,0.924,0.382,2.38,-18.616,-6.653
0.139,0.908,0.369,2.808,-22.583,-6.958
0.093,0.941,0.376,3.113,-22.583,-9.705
0.083,0.91,0.367,3.479,-18.799,-9.521
0.113,0.91,0.387,2.808,-13.489,-8.423
0.144,0.875,0.385,1.587,-9.766,-5.859
0.143,0.887,0.397,-0.854,-7.874,-4.7
0.152,0.867,0.398,-2.808,-6.836,-3.296
0.173,0.867,0.403,-4.517,-7.141,-2.502
0.192,0.879,0.408,-6.47,-9.399,-2.197
0.199,0.895,0.401,-7.874,-14.343,-1.465
0.182,0.901,0.387,-9.399,-20.203,-0.244
0.171,0.89,0.363,-10.193,-24.902,1.221
0.148,0.897,0.346,-10.132,-27.71,1.465
0.119,0.883,0.326,-9.644,-27.771,0.793
0.105,0.88,0.323,-7.935,-25.208,-0.916
0.11,0.873,0.329,-5.981,-21.362,-2.625
0.115,0.868,0.337,-4.7,-18.005,-3.174
0.121,0.875,0.348,-4.089,-15.015,-3.235
0.13,0.876,0.351,-3.723,-12.939,-2.258
0.138,0.876,0.353,-3.784,-11.658,-0.183
0.149,0.87,0.356,-3.967,-10.681,1.648
0.136,0.866,0.357,-4.822,-9.949,3.174
0.121,0.869,0.361,-5.859,-8.606,3.296
0.118,0.871,0.364,-6.348,-6.775,2.136
0.12,0.873,0.364,-6.409,-4.883,0.671
0.13,0.879,0.368,-5.981,-3.784,-0.244
0.145,0.887,0.377,-5.371,-3.784,-0.549
0.158,0.886,0.387,-4.089,-5.92,-0.549
0.147,0.879,0.382,-2.808,-9.155,-0.916
0.143,0.88,0.38,-2.197,-11.902,-1.709
0.137,0.883,0.377,-2.014,-14.099,-2.502
1.832,1.229,0.796,-129.15,342.163,-126.16
2.861,1.694,0.83,-167.969,406.311,-119.995
3.691,2.117,0.772,-200.073,418.091,-91.309
4.0,2.482,0.632,-221.802,379.944,-49.927
4.0,2.734,0.38,-230.225,315.002,-1.587
4.0,2.869,0.101,-226.135,246.704,55.847
3.782,2.901,-0.12,-209.839,201.233,113.525
3.443,2.744,-0.292,-184.509,190.43,165.466
3.136,2.516,-0.312,-156.921,212.341,217.224
3.025,2.23,-0.189,-129.333,258.24,268.616
3.003,1.766,0.058,-95.642,312.683,307.617
2.831,1.326,0.521,-68.726,363.159,317.81
2.95,0.801,0.792,-41.077,396.423,334.473
2.827,0.234,0.858,-16.479,410.339,373.23
2.76,-0.034,1.017,-11.108,414.185,400.391
2.616,-0.106,1.037,2.869,395.508,418.579
2.425,0.37,1.307,26.978,355.103,440.613
2.206,0.321,1.46,66.895,290.771,465.942
1.883,-0.348,1.192,109.802,205.627,488.281
1.207,-0.729,0.937,120.605,127.563,485.229
0.483,-0.756,0.67,111.267,80.75,452.698
-0.086,-0.646,0.383,100.464,75.989,405.029
-0.39,-0.502,0.183,93.75,110.413,356.567
-0.386,-0.383,0.065,91.614,165.894,315.125
-0.201,-0.306,0.08,91.187,219.177,280.884
0.145,-0.251,0.171,90.515,248.108,252.502
0.391,-0.221,0.314,91.309,244.629,224.976
0.564,-0.254,0.403,94.238,211.365,201.05
0.555,-0.282,0.411,93.933,156.982,182.8
0.427,-0.365,0.3,91.187,100.586,164.856
0.261,-0.432,0.142,85.266,59.814,143.25
0.023,-0.41,-0.003,77.271,40.1,118.286
-0.214,-0.329,-0.118,71.35,45.349,93.323
-0.302,-0.261,-0.17,69.763,73.853,69.519
-0.151,-0.266,-0.153,70.74,114.136,51.086
0.118,-0.242,-0.052,66.162,146.667,44.25
0.341,-0.189,0.032,56.335,152.893,47.18
0.456,-0.142,0.074,44.373,132.812,56.763
0.412,-0.067,0.066,32.593,96.191,66.711
0.268,0.03,0.017,23.437,56.641,71.228
0.056,0.161,-0.026,19.287,25.635,69.458
-0.216,0.255,-0.071,22.522,9.705,63.965
-0.399,0.203,-0.134,30.334,14.832,53.467
-0.527,0.33,-0.137,36.926,39.429,35.522
-0.465,0.2,-0.113,45.593,75.806,20.142
-0.404,0.35,-0.027,48.706,109.741,-0.305
-0.254,0.279,0.044,50.659,135.071,-14.099
-0.027,0.392,0.229,48.523,145.63,-24.475
0.204,0.378,0.327,46.509,133.972,-24.841
0.301,0.4,0.377,39.673,105.347,-19.226
0.231,0.401,0.377,30.151,66.467,-11.047
0.173,0.491,0.38,20.508,30.029,-5.127
0.005,0.535,0.313,13.977,3.296,-1.587
-0.089,0.564,0.256,10.132,-8.972,0.671
-0.174,0.588,0.213,6.836,-7.996,-1.282
-0.226,0.628,0.199,3.784,2.686,-5.981
-0.236,0.659,0.195,1.099,18.555,-12.085
-0.21,0.698,0.215,-1.77,36.438,-18.433
-0.156,0.732,0.246,-4.15,51.819,-23.071
-0.084,0.754,0.266,-5.249,60.852,-24.963
-0.033,0.794,0.292,-5.493,62.378,-25.879
0.008,0.827,0.306,-4.822,57.007,-25.391
0.035,0.841,0.306,-3.723,46.509,-23.499
0.038,0.863,0.307,-2.93,32.837,-21.484
-0.004,0.889,0.292,-2.197,18.494,-19.836
-0.058,0.903,0.271,-0.488,8.179,-18.982
-0.102,0.898,0.252,1.16,4.272,-18.799
-0.139,0.884,0.232,2.014,6.104,-19.287
-0.158,0.88,0.212,1.038,13.55,-19.836
-0.156,0.89,0.202,-1.343,24.17,-20.874
-0.124,0.914,0.221,-3.723,35.217,-22.827
-0.058,0.951,0.256,-4.333,43.335,-24.597
0.036,0.96,0.298,-3.418,44.922,-24.719
0.143,0.992,0.368,-1.099,38.269,-23.254
0.229,0.997,0.412,2.075,21.118,-18.433
0.277,0.975,0.408,5.127,-4.578,-10.559
0.243,0.98,0.399,6.836,-31.921,-3.784
0.161,0.976,0.374,8.24,-56.03,1.099
0.048,0.95,0.328,10.315,-72.998,4.456
-0.082,0.938,0.286,11.108,-78.491,4.639
-0.172,0.92,0.258,11.475,-70.618,2.441
-0.216,0.9,0.243,11.169,-52.856,-1.465
-0.22,0.893,0.24,9.766,-29.663,-5.554
-0.189,0.898,0.246,7.568,-5.859,-9.521
-0.142,0.901,0.247,5.371,15.564,-12.268
-0.014,0.95,0.304,0.671,42.419,-11.414
0.069,0.901,0.27,0.854,44.006,-7.812
0.094,0.977,0.326,0.854,38.94,-9.216
0.098,0.979,0.319,0.793,28.259,-6.653
0.1,0.886,0.279,3.052,13.367,-2.625
0.021,0.945,0.284,3.967,0.61,-3.845
-0.008,0.954,0.294,5.371,-7.446,-4.822
0.001,0.946,0.302,9.399,-14.343,-4.639
-0.005,0.94,0.292,12.329,-19.653,-4.395
-0.015,0.916,0.281,13.733,-23.804,-2.93
-0.052,0.911,0.277,13.184,-25.879,-2.563
-0.086,0.911,0.274,11.78,-25.452,-2.38
-0.125,0.89,0.253,9.949,-22.217,-2.075
-0.144,0.878,0.238,7.324,-15.808,-1.831
-0.154,0.893,0.24,3.845,-6.897,-2.686
-0.134,0.92,0.257,1.892,1.77,-3.601
-0.094,0.937,0.271,0.916,7.69,-3.357
-0.041,0.934,0.283,0.61,8.85,-1.465
-0.013,0.935,0.295,0.488,5.859,0.549
-0.007,0.938,0.302,0.854,-0.916,1.648
-0.016,0.939,0.306,1.526,-8.972,2.441
-0.021,0.945,0.312,2.319,-17.944,2.93
-0.053,0.935,0.297,3.418,-26.428,3.174
-0.093,0.918,0.28,3.662,-32.288,3.479
-0.142,0.911,0.262,2.93,-34.241,3.54
-0.196,0.904,0.247,1.648,-31.372,2.747
-0.221,0.897,0.241,-0.183,-23.193,2.258
-0.227,0.9,0.246,-1.953,-11.963,1.892
-0.209,0.897,0.256,-4.15,-0.183,1.953
-0.177,0.904,0.269,-6.653,10.437,2.197
-0.14,0.915,0.286,-8.728,17.7,2.319
-0.108,0.92,0.29,-10.437,20.874,3.296
-0.091,0.927,0.293,-11.719,20.447,4.089
-0.076,0.925,0.294,-11.963,16.785,4.517
1.563,1.25,0.924,-41.931,119.08,-51.331
2.092,1.656,0.923,-62.439,157.166,-64.575
2.678,2.072,0.885,-84.473,191.284,-75.134
3.251,2.516,0.781,-108.093,217.896,-75.989
3.813,2.995,0.65,-130.981,240.845,-68.787
4.0,3.34,0.502,-150.452,271.179,-56.763
4.0,3.408,0.204,-166.443,314.026,-29.053
4.0,3.429,-0.055,-182.373,375.061,10.62
4.0,3.339,-0.208,-190.735,448.425,66.711
4.0,3.01,-0.229,-175.537,506.104,148.56
4.0,2.456,-0.003,-129.578,533.386,228.516
4.0,2.027,0.703,-61.523,521.729,290.588
3.803,0.877,0.885,33.936,464.417,366.455
3.217,0.118,1.105,110.168,390.564,425.476
2.524,-0.742,1.127,155.029,330.933,456.726
1.886,-1.217,1.08,174.683,291.992,456.421
1.3,-1.374,0.982,175.232,268.738,428.772
0.933,-1.368,0.85,170.044,259.033,385.315
0.785,-1.315,0.73,161.194,253.174,338.501
0.813,-1.284,0.652,151.794,246.643,297.546
0.937,-1.184,0.618,138.916,235.474,272.034
0.974,-0.962,0.572,122.925,210.327,263.855
0.883,-0.722,0.521,108.459,173.523,265.808
0.588,-0.594,0.456,90.759,97.9,274.17
0.416,-0.628,0.449,84.167,60.669,264.648
0.223,-0.709,0.416,75.439,30.273,240.967
0.149,-0.766,0.38,61.768,17.029,211.06
0.18,-0.755,0.363,43.701,19.714,177.246
0.239,-0.678,0.33,27.588,32.837,142.517
0.28,-0.578,0.277,15.137,50.476,111.633
0.338,-0.478,0.213,8.484,68.054,85.999
0.366,-0.393,0.144,8.301,82.886,64.636
0.351,-0.323,0.09,13.916,94.177,46.57
0.332,-0.255,0.05,22.705,102.661,33.997
0.345,-0.159,0.041,33.203,107.483,29.297
0.321,-0.071,0.023,45.715,105.286,30.212
0.336,-0.002,0.034,59.021,96.985,34.18
0.316,0.082,0.06,70.801,81.36,40.588
0.304,0.089,0.054,81.665,58.044,46.936
0.184,0.202,0.075,88.379,32.776,50.11
0.072,0.207,0.037,95.642,10.071,53.894
-0.022,0.221,0.001,99.976,-3.784,54.688
-0.151,0.223,0.03,100.464,-7.507,48.767
-0.217,0.249,0.061,99.121,-5.493,38.513
-0.244,0.189,0.071,95.947,3.296,31.616
-0.23,0.171,0.088,86.731,16.235,26.001
-0.204,0.212,0.139,73.242,30.823,20.02
-0.138,0.262,0.162,60.181,43.762,15.93
-0.081,0.315,0.221,47.363,52.673,10.254
0.01,0.372,0.285,35.706,54.504,4.028
0.007,0.453,0.232,26.001,48.95,-1.77
-0.036,0.578,0.275,16.846,46.143,-3.601
-0.017,0.63,0.247,12.329,43.457,-1.404
-0.029,0.677,0.245,10.498,41.626,1.465
-0.011,0.724,0.254,8.667,39.978,5.249
0.008,0.762,0.226,7.324,36.377,10.925
-0.031,0.742,0.175,5.249,33.447,14.893
-0.1,0.775,0.189,0.427,33.997,14.343
-0.124,0.786,0.175,-2.441,36.743,12.024
-0.131,0.778,0.172,-3.723,41.382,8.301
-0.148,0.791,0.175,-6.409,46.509,2.502
-0.15,0.826,0.163,-8.179,50.842,-3.601
-0.15,0.883,0.161,-9.338,55.725,-7.935
-0.138,0.883,0.137,-8.972,60.181,-9.827
-0.126,0.894,0.113,-8.118,64.88,-12.39
-0.096,0.931,0.116,-7.935,70.618,-15.381
-0.042,0.951,0.125,-7.324,74.646,-17.151
0.022,0.95,0.139,-5.188,75.317,-18.127
0.056,0.95,0.154,-2.441,73.12,-19.714
0.1,0.965,0.177,0.427,68.665,-20.935
0.156,0.977,0.206,3.662,62.195,-20.081
0.2,0.994,0.235,7.507,51.941,-18.555
0.22,0.989,0.251,11.108,38.818,-16.113
0.227,0.966,0.258,13.672,24.902,-12.695
0.238,0.961,0.275,14.587,11.902,-8.85
0.241,0.952,0.286,14.893,-0.305,-5.127
0.224,0.945,0.282,14.465,-10.803,-2.136
0.221,0.957,0.289,12.939,-19.348,1.465
0.211,0.944,0.278,10.925,-26.428,5.371
0.18,0.961,0.262,8.423,-32.776,7.446
0.13,0.96,0.238,6.165,-37.17,9.216
0.067,0.961,0.213,4.456,-37.231,9.338
0.03,0.963,0.201,4.089,-31.738,6.775
0.008,0.968,0.2,4.761,-22.827,2.686
0.006,0.972,0.207,5.981,-12.451,-1.221
0.039,0.979,0.23,7.324,-2.136,-4.089
0.076,0.977,0.249,9.094,5.432,-6.592
0.109,0.976,0.269,10.864,9.155,-7.751
0.136,0.977,0.29,12.207,9.155,-7.751
0.157,0.968,0.298,12.878,5.432,-5.92
0.138,0.941,0.288,11.475,0.366,-2.747
0.094,0.941,0.279,8.545,-3.113,1.221
0.057,0.957,0.286,5.127,-2.747,5.127
0.049,0.975,0.302,3.296,0.366,8.423
0.064,0.963,0.296,2.869,3.601,10.559
0.073,0.953,0.292,1.526,6.714,9.766
0.076,0.949,0.286,-0.366,8.606,6.714
0.084,0.951,0.287,-2.93,9.338,2.441
0.101,0.958,0.287,-5.249,8.85,-2.075
0.116,0.967,0.282,-7.202,6.165,-4.822
0.136,0.966,0.278,-8.24,2.014,-6.287
0.134,0.955,0.254,-8.484,-3.052,-5.554
0.144,0.981,0.255,-8.24,-8.423,-3.845
0.122,0.974,0.24,-7.324,-13.611,-2.869
0.109,0.995,0.228,-5.737,-18.738,-1.587
0.081,0.97,0.207,-3.54,-22.766,-0.305
0.071,0.947,0.193,-2.075,-23.987,0.977
0.055,0.947,0.19,-2.319,-22.766,1.404
0.05,0.942,0.181,-2.136,-20.813,2.075
0.02,0.939,0.175,-2.38,-18.25,2.197
0.011,0.943,0.175,-2.625,-14.282,1.526
0.023,0.948,0.183,-2.197,-9.888,1.465
0.047,0.966,0.203,-1.099,-7.019,1.404
0.057,0.967,0.215,0.732,-7.263,1.465
0.061,0.956,0.221,3.235,-8.911,1.404
0.062,0.947,0.23,5.127,-11.536,0.854
0.051,0.934,0.237,6.287,-14.709,0.427
0.038,0.915,0.242,6.47,-17.334,0.671
0.018,0.902,0.242,6.653,-18.799,0.732
0.994,1.0,0.909,-11.169,33.875,30.151
1.126,1.16,0.936,-12.207,48.889,25.391
1.233,1.408,0.943,-14.709,65.796,16.174
1.312,1.707,0.914,-18.86,90.149,-0.671
1.528,1.984,0.868,-26.367,127.686,-22.4
1.849,2.255,0.833,-40.649,176.575,-42.969
2.232,2.436,0.758,-61.462,233.032,-56.396
2.807,2.731,0.684,-90.332,289.49,-51.086
3.246,3.109,0.613,-122.925,332.642,-20.935
3.37,3.506,0.476,-147.034,355.835,19.897
3.325,3.784,0.44,-156.677,373.779,61.646
3.292,3.648,0.528,-150.391,397.583,109.009
3.237,3.047,0.653,-132.812,427.734,160.095
3.213,2.557,1.021,-116.272,452.698,216.431
3.078,1.797,1.19,-89.783,453.491,288.879
2.796,1.134,1.304,-55.359,433.838,356.445
2.363,0.319,1.345,-13.977,406.372,405.396
1.991,-0.428,1.274,30.029,372.559,433.899
1.514,-1.019,1.087,60.303,336.975,440.43
1.034,-1.287,0.864,71.899,305.908,430.542
0.61,-1.332,0.64,74.707,284.302,411.377
0.299,-1.233,0.494,75.073,273.56,386.597
0.133,-1.094,0.45,77.637,270.813,360.84
0.143,-0.984,0.437,82.031,267.944,339.783
0.376,-0.89,0.457,81.299,255.798,325.073
0.587,-0.781,0.49,73.853,224.121,309.326
0.632,-0.682,0.502,65.125,175.598,282.715
0.55,-0.584,0.469,59.753,124.634,249.695
0.388,-0.518,0.406,59.143,89.844,212.402
0.214,-0.514,0.32,60.547,79.346,172.485
0.124,-0.575,0.242,60.913,93.567,132.629
0.164,-0.634,0.184,55.42,127.441,97.229
0.212,-0.585,0.153,41.687,168.945,69.336
0.234,-0.487,0.115,23.987,208.435,49.805
0.316,-0.362,0.061,6.836,241.028,36.621
0.429,-0.253,0.024,-6.409,260.559,24.963
0.435,-0.141,-0.023,-13.55,264.893,11.23
0.38,0.001,-0.07,-15.381,260.498,-2.686
0.404,0.111,-0.086,-11.841,251.282,-12.268
0.379,0.228,-0.099,-4.517,236.328,-17.273
0.284,0.288,-0.121,6.042,218.75,-20.935
0.252,0.403,-0.12,17.334,203.979,-24.963
0.233,0.483,-0.092,29.48,189.575,-27.466
0.239,0.514,-0.057,40.771,172.729,-27.954
0.227,0.537,-0.03,48.95,153.259,-27.344
0.242,0.579,-0.003,52.979,133.057,-24.963
0.24,0.581,0.008,53.772,110.718,-20.142
0.197,0.581,0.0,51.208,88.623,-16.052
0.119,0.611,0.004,46.204,69.458,-14.16
0.056,0.641,0.001,42.236,55.603,-14.771
0.046,0.649,0.009,39.856,48.523,-16.418
0.035,0.662,0.016,37.659,45.105,-17.029
0.018,0.699,0.029,35.828,43.457,-17.273
0.046,0.737,0.061,34.668,43.518,-16.052
0.068,0.758,0.082,33.142,42.664,-12.695
0.039,0.793,0.092,30.701,39.795,-8.667
0.021,0.822,0.105,28.564,38.147,-4.944
0.031,0.845,0.112,27.405,38.025,-1.892
0.046,0.833,0.119,26.489,38.33,0.549
0.069,0.821,0.13,25.452,37.72,2.38
0.064,0.819,0.152,24.109,35.767,3.479
0.068,0.795,0.188,23.071,32.593,4.456
0.102,0.84,0.302,21.179,26.428,4.395
0.185,0.838,0.123,21.851,13.733,9.521
-0.021,0.756,0.168,19.653,8.423,16.357
-0.106,0.853,0.153,13.123,10.071,13.245
-0.184,0.72,0.076,14.282,17.822,14.038
-0.267,0.757,0.062,8.911,35.4,4.028
-0.264,0.814,0.119,3.784,61.89,-9.827
-0.157,0.899,0.166,2.563,84.778,-16.968
0.005,0.827,0.158,2.319,96.985,-17.395
0.129,0.888,0.224,0.0,101.013,-19.775
0.235,0.944,0.273,-0.916,92.834,-20.569
0.308,0.922,0.275,0.244,73.059,-15.564
0.328,0.915,0.273,0.793,48.34,-9.949
0.294,0.905,0.25,1.221,24.231,-5.493
0.249,0.912,0.234,2.686,3.906,-3.54
0.204,0.912,0.226,5.737,-9.888,-2.93
0.158,0.892,0.211,8.911,-18.616,-2.563
0.114,0.875,0.196,10.925,-22.156,-2.38
0.1,0.876,0.196,10.254,-20.569,-1.892
0.083,0.872,0.195,8.24,-15.991,-0.793
0.077,0.876,0.201,5.554,-10.01,0.366
0.076,0.88,0.213,1.77,-0.732,-0.671
0.111,0.912,0.233,0.977,0.366,-1.465
0.115,0.918,0.226,-0.183,-0.488,-1.709
0.107,0.94,0.227,-0.916,-2.014,-2.808
0.104,0.942,0.223,-0.916,-4.211,-3.784
0.109,0.937,0.222,-0.549,-6.042,-5.432
0.115,0.928,0.219,-0.061,-7.568,-7.629
0.107,0.925,0.213,0.061,-8.484,-9.583
0.113,0.935,0.215,-0.305,-7.751,-10.742
0.117,0.951,0.219,-0.854,-6.165,-10.925
0.121,0.967,0.224,-1.709,-4.944,-10.559
0.115,0.974,0.22,-2.686,-3.906,-9.338
0.099,0.963,0.207,-4.028,-2.625,-7.812
0.107,1.028,0.203,-5.188,-1.282,-6.226
0.096,0.942,0.184,-6.287,1.343,-4.028
0.092,0.991,0.199,-8.057,4.272,-6.714
0.096,0.961,0.171,-8.728,5.615,-6.592
0.129,0.953,0.183,-10.254,7.629,-4.761
0.144,0.981,0.183,-11.047,7.935,-5.737
0.167,0.995,0.17,-10.01,4.7,-5.798
0.155,0.997,0.17,-9.46,0.488,-4.395
0.172,1.026,0.188,-7.629,-4.211,-3.479
0.199,1.003,0.185,-3.174,-10.437,-2.014
0.188,0.99,0.179,0.854,-18.188,-0.488
0.129,0.975,0.174,3.54,-25.635,-0.488
0.101,0.952,0.167,5.31,-28.503,-0.488
0.074,0.938,0.17,5.066,-26.733,-0.549
0.075,0.928,0.172,3.174,-22.766,-0.366
0.065,0.928,0.175,0.61,-18.494,-0.061
0.064,0.926,0.177,-2.319,-13.855,-0.366
0.067,0.922,0.177,-4.456,-8.972,-1.099
0.071,0.93,0.182,-6.042,-4.456,-2.075
0.089,0.944,0.193,-6.958,-0.916,-2.502
0.108,0.939,0.201,-6.714,0.244,-2.563
0.125,0.927,0.21,-5.554,-0.977,-2.38
0.14,0.916,0.217,-5.066,-4.456,-1.892
1.737,1.084,0.44,-13.855,66.345,7.812
2.162,1.369,0.389,-29.48,90.576,7.019
2.648,1.659,0.303,-47.791,113.586,10.559
3.078,1.906,0.143,-64.819,138.0,19.043
3.389,2.138,-0.042,-81.36,164.185,38.391
3.554,2.364,-0.272,-95.642,194.519,70.862
3.627,2.53,-0.507,-102.051,230.103,109.924
3.574,2.589,-0.695,-98.145,269.104,147.644
3.615,2.538,-0.649,-83.374,307.007,185.852
3.554,2.228,-0.579,-55.115,324.951,232.727
3.318,1.764,-0.533,-20.752,324.28,282.227
3.0,1.31,-0.465,12.939,322.876,317.688
2.686,0.863,-0.432,49.316,328.613,340.942
2.441,0.472,-0.347,83.557,346.008,355.225
2.198,0.127,-0.295,116.211,367.554,364.99
2.009,-0.112,-0.252,148.01,390.564,368.53
1.892,-0.299,-0.186,179.443,411.926,367.432
1.806,-0.495,-0.128,211.67,422.852,362.061
1.73,-0.632,-0.065,239.746,422.852,353.394
1.687,-0.673,0.013,259.277,411.072,343.506
1.63,-0.734,0.09,271.423,386.108,333.435
1.491,-0.798,0.153,273.987,350.342,322.693
1.238,-0.785,0.198,266.235,309.998,308.96
1.001,-0.731,0.242,253.357,273.437,292.419
0.784,-0.634,0.281,239.258,243.835,271.362
0.585,-0.549,0.33,224.854,220.886,246.094
0.446,-0.498,0.364,208.618,202.515,219.36
0.299,-0.44,0.365,190.063,187.012,190.918
0.192,-0.419,0.324,169.067,177.49,162.903
0.191,-0.452,0.293,146.484,174.011,137.634
0.226,-0.443,0.26,120.85,172.485,117.554
0.23,-0.344,0.231,93.811,169.006,102.783
0.144,-0.227,0.17,70.74,163.635,91.553
0.098,-0.168,0.094,53.955,162.598,80.505
0.13,-0.132,0.05,41.26,165.894,69.702
0.148,-0.077,0.011,31.25,165.161,58.228
0.144,-0.005,-0.021,25.269,158.081,45.837
0.123,0.099,-0.037,24.719,146.545,34.302
0.106,0.172,-0.02,30.762,132.935,23.682
0.084,0.212,-0.0,40.222,118.103,14.404
0.079,0.251,0.038,50.842,102.478,5.188
0.089,0.29,0.094,60.913,86.487,-3.052
0.102,0.296,0.141,68.054,69.275,-9.399
0.098,0.276,0.185,70.801,52.185,-13.55
0.093,0.27,0.223,67.627,38.513,-13.794
0.07,0.27,0.241,57.556,28.687,-10.681
0.052,0.279,0.241,42.908,22.949,-6.592
0.015,0.32,0.227,26.611,20.447,-4.456
-0.015,0.365,0.202,11.23,20.264,-3.662
-0.059,0.437,0.166,-1.038,23.193,-3.418
-0.047,0.467,0.144,-9.033,30.334,-3.479
-0.056,0.571,0.122,-12.756,39.612,-6.409
0.028,0.563,0.156,-12.024,47.974,-10.132
0.093,0.656,0.195,-9.766,50.415,-13.672
0.144,0.66,0.203,-5.31,45.227,-12.207
0.163,0.699,0.212,-0.916,34.668,-9.521
0.172,0.722,0.22,3.418,22.644,-6.653
0.174,0.712,0.227,6.592,9.827,-3.54
0.163,0.717,0.241,7.08,-3.174,-0.427
0.127,0.752,0.22,6.226,-16.235,3.479
0.039,0.728,0.167,5.188,-25.208,7.385
-0.026,0.764,0.177,2.808,-26.855,7.324
-0.054,0.751,0.175,2.869,-24.536,5.127
-0.1,0.781,0.187,2.319,-19.348,0.732
-0.125,0.811,0.194,2.563,-12.39,-3.235
-0.146,0.823,0.181,2.319,-3.967,-5.676
-0.127,0.854,0.197,0.549,6.409,-8.728
-0.108,0.883,0.204,-1.526,15.503,-11.475
-0.058,0.899,0.208,-3.418,21.851,-12.939
0.006,0.916,0.226,-5.615,25.024,-14.16
0.064,0.929,0.231,-7.385,23.56,-15.32
0.106,0.941,0.227,-8.606,17.09,-15.991
0.12,0.963,0.218,-8.972,7.385,-16.602
0.147,0.972,0.21,-7.935,-3.052,-16.724
0.135,0.982,0.188,-6.287,-13.489,-16.663
0.111,0.99,0.171,-3.784,-21.729,-16.846
0.095,0.99,0.161,-0.793,-25.513,-16.296
0.085,0.975,0.155,2.136,-25.33,-15.259
0.058,0.956,0.149,3.784,-22.278,-15.076
0.058,0.943,0.156,4.456,-16.174,-16.052
0.109,0.948,0.181,3.723,-8.362,-16.541
0.167,0.956,0.201,2.38,-3.479,-15.381
0.207,0.968,0.21,0.488,-2.991,-12.695
0.209,0.978,0.205,-0.549,-6.042,-10.437
0.214,0.996,0.213,-0.122,-10.071,-10.193
0.219,0.994,0.215,1.526,-15.503,-10.01
0.217,0.998,0.221,3.723,-22.034,-9.46
0.196,0.999,0.224,6.775,-28.992,-9.399
0.179,0.994,0.225,10.01,-34.668,-9.338
0.159,0.994,0.231,12.573,-38.635,-9.277
0.101,0.992,0.228,14.465,-40.71,-9.583
0.053,0.98,0.222,15.991,-38.696,-10.01
0.037,0.964,0.226,15.564,-31.25,-9.46
0.055,0.99,0.247,14.038,-21.667,-8.667
0.063,0.917,0.235,11.292,-12.695,-6.47
0.1,0.968,0.288,6.714,-6.226,-7.08
0.137,0.925,0.283,4.211,-5.127,-4.639
0.145,0.962,0.284,2.441,-6.592,-2.563
0.151,0.964,0.273,0.793,-9.094,-0.916
0.13,0.967,0.281,1.221,-13.55,-0.793
0.116,0.953,0.266,1.099,-16.846,-1.648
0.112,0.962,0.281,1.343,-19.409,-1.953
0.118,0.948,0.273,1.343,-21.667,-1.099
0.099,0.94,0.269,2.197,-24.231,-0.244
0.074,0.944,0.267,1.892,-24.658,0.793
0.054,0.949,0.266,1.77,-23.376,1.831
0.045,0.935,0.261,2.075,-21.118,3.418
0.031,0.922,0.257,1.16,-18.188,4.639
0.024,0.928,0.25,-0.366,-14.832,4.822
0.033,0.914,0.254,-1.892,-11.23,4.639
0.037,0.903,0.256,-3.723,-8.789,3.906
0.046,0.907,0.26,-4.578,-7.202,3.113
0.055,0.907,0.25,-5.371,-6.287,2.93
0.067,0.908,0.251,-5.798,-5.981,3.479
0.076,0.913,0.252,-6.531,-7.324,3.662
0.074,0.91,0.246,-6.47,-10.254,3.784
0.059,0.913,0.234,-6.653,-13.611,4.089
0.045,0.913,0.225,-6.165,-15.625,4.456
0.025,0.913,0.223,-5.31,-16.724,4.517
1.782,0.965,-0.462,-24.902,84.351,7.385
2.202,1.198,-0.596,-33.264,109.558,11.963
2.655,1.419,-0.773,-37.292,132.751,16.174
3.137,1.673,-0.944,-37.109,157.593,22.034
3.606,1.915,-1.115,-30.518,184.998,34.79
3.995,2.125,-1.286,-18.555,213.44,59.448
4.0,2.25,-1.421,-3.967,240.723,95.337
4.0,2.258,-1.499,14.221,263.672,139.343
4.0,2.181,-1.488,35.767,280.579,189.148
4.0,2.012,-1.439,63.11,287.842,236.633
4.0,1.683,-1.321,92.834,288.086,283.264
4.0,1.289,-1.086,121.094,287.537,328.186
4.0,1.265,-0.881,156.25,284.18,372.925
3.62,0.051,-0.675,198.425,282.471,421.814
3.326,-0.061,-0.214,198.975,288.452,425.903
2.489,-0.565,-0.104,219.604,293.274,444.336
2.698,-0.702,-0.062,224.243,298.95,453.857
1.843,-1.053,-0.19,236.328,309.57,465.82
1.482,-1.083,-0.148,230.652,329.285,449.097
1.263,-1.021,-0.186,235.046,357.544,420.044
1.042,-1.087,-0.191,243.713,383.85,381.165
1.046,-1.082,-0.076,249.634,401.245,337.28
1.09,-1.008,0.073,250.305,400.757,295.044
1.073,-0.927,0.184,245.361,376.77,227.783
0.863,-0.622,0.361,224.548,294.373,200.5
0.714,-0.487,0.405,212.219,248.413,178.406
0.542,-0.451,0.42,200.073,208.679,158.936
0.399,-0.491,0.391,187.561,178.833,138.184
0.271,-0.507,0.351,172.913,160.156,116.333
0.169,-0.523,0.295,156.372,151.001,94.666
0.111,-0.512,0.208,139.282,149.719,74.158
0.127,-0.446,0.152,121.887,154.602,54.443
0.15,-0.36,0.097,107.117,159.485,36.926
0.171,-0.287,0.047,97.046,160.645,20.935
0.184,-0.201,0.023,92.346,157.959,5.676
0.14,-0.095,0.007,92.957,151.245,-8.301
